amount_p,posx1_p,posx2_p,posx3_p,posx4_p,posx5_p,center_to_center_p,edge_to_edge_p,w_p,stim_lengt_p,eccentricity_p,line1_p,line2_p,line3_p,line4_p,line5_p,amount,posx1,posx2,posx3,posx4,posx5,center_to_center,edge_to_edge,w,stim_length,eccentricity,trial_type,deg_to_pix_index,posx1_in_pix,posx2_in_pix,posx3_in_pix,posx4_in_pix,posx5_in_pix,line1,line2,line3,line4,line5,trials.thisRepN,trials.thisTrialN,trials.thisN,trials.thisIndex,blocks.thisRepN,blocks.thisTrialN,blocks.thisN,blocks.thisIndex,loop.thisRepN,loop.thisTrialN,loop.thisN,loop.thisIndex,key_resp_3.started,key_resp_3.keys,key_resp_3.rt,key_resp.keys,key_resp.rt,response,starting_width_deg,starting_space_deg,response_width_degree,response_spacing_degree,response_width_pixel,response_spacing_pixel,next_5.keys,next_5.rt,key_resp_4.keys,key_resp_4.rt,text_3.started,text_4.started,key_resp_2.started,participant,age,gender,resp_group,date,expName,psychopyVersion,frameRate
,,,,,,,,,,,,,,,,,,,,,,,,,,,,,,,,,,,,,,,,,,,,,,,,,,,320.7451118,c,180.2587863,,,,,,,,,,,,,,,,,703,20,male,left_right_width,2024-05-14_09h36.14.190,exp1,2023.1.0,60.14433428
3,9.5,10,10.5,0,0,0.5,0.4,0.1,1.1,10,9,9,9,0,0,,,,,,,,,,,,,,,,,,,,,,,,0,0,0,0,,,,,,,,,,,,num_3,3.3417572,num_3,0.25,0.7,0.1,0.55,3.82055,21.01303,return,15.584863,,,,,,703,20,male,left_right_width,2024-05-14_09h36.14.190,exp1,2023.1.0,60.14433428
5,8.6,9.3,10,10.7,11.4,0.7,0.3,0.4,3.2,10,9,9,9,9,9,,,,,,,,,,,,,,,,,,,,,,,,0,1,1,7,,,,,,,,,,,,num_4,3.592102,num_4,0.2,1.1,0.5,0.9,19.10275,34.38495,return,7.0258734,,,,,,703,20,male,left_right_width,2024-05-14_09h36.14.190,exp1,2023.1.0,60.14433428
3,9,10,11,0,0,1,0.9,0.1,2.1,10,9,9,9,0,0,,,,,,,,,,,,,,,,,,,,,,,,0,2,2,1,,,,,,,,,,,,num_3,3.1573277,num_3,0.55,0.7,0.1,0.75,3.82055,28.65413,return,11.8071699,,,,,,703,20,male,left_right_width,2024-05-14_09h36.14.190,exp1,2023.1.0,60.14433428
4,8.65,9.55,10.45,11.35,0,0.9,0.5,0.4,3.1,10,9,9,9,9,0,,,,,,,,,,,,,,,,,,,,,,,,0,3,3,5,,,,,,,,,,,,num_4,3.0439131,num_4,0.3,1.3,0.6,0.9,22.9233,34.38495,return,12.9488161,,,,,,703,20,male,left_right_width,2024-05-14_09h36.14.190,exp1,2023.1.0,60.14433428
5,9,9.5,10,10.5,11,0.5,0.1,0.4,2.4,10,9,9,9,9,9,,,,,,,,,,,,,,,,,,,,,,,,0,4,4,8,,,,,,,,,,,,num_4,5.2277236,num_4,0.35,0.8,0.65,0.8,24.83358,30.5644,return,16.3274067,,,,,,703,20,male,left_right_width,2024-05-14_09h36.14.190,exp1,2023.1.0,60.14433428
3,8.2,10,11.8,0,0,1.8,1.4,0.4,4,10,9,9,9,0,0,,,,,,,,,,,,,,,,,,,,,,,,0,5,5,2,,,,,,,,,,,,num_4,5.2583962,num_4,0.2,1,0.45,1,17.19248,38.2055,return,11.8712758,,,,,,703,20,male,left_right_width,2024-05-14_09h36.14.190,exp1,2023.1.0,60.14433428
5,9.25,9.625,10,10.375,10.75,0.375,0.125,0.25,1.75,10,9,9,9,9,9,,,,,,,,,,,,,,,,,,,,,,,,0,6,6,6,,,,,,,,,,,,num_5,2.935663,num_5,0.2,0.8,0.35,0.6,13.37193,22.9233,return,16.8895224,,,,,,703,20,male,left_right_width,2024-05-14_09h36.14.190,exp1,2023.1.0,60.14433428
4,9.25,9.75,10.25,10.75,0,0.5,0.25,0.25,1.75,10,9,9,9,9,0,,,,,,,,,,,,,,,,,,,,,,,,0,7,7,4,,,,,,,,,,,,num_4,10.1258082,num_4,0.4,0.6,0.15,0.5,5.73083,19.10275,return,17.6517442,,,,,,703,20,male,left_right_width,2024-05-14_09h36.14.190,exp1,2023.1.0,60.14433428
4,9.5,9.833333333,10.16666667,10.5,0,0.333333333,0.233333333,0.1,1.1,10,9,9,9,9,0,,,,,,,,,,,,,,,,,,,,,,,,0,8,8,3,,,,,,,,,,,,num_3,5.3032277,num_3,0.25,0.7,0.3,0.55,11.46165,21.01303,return,14.1245364,,,,,,703,20,male,left_right_width,2024-05-14_09h36.14.190,exp1,2023.1.0,60.14433428
,,,,,,,,,,,,,,,,,,,,,,,,,,,,,,,,,,,,,,,,,,,,,,,,,,,,,,,,,,,,,,,,,c,143.339361,,,,703,20,male,left_right_width,2024-05-14_09h36.14.190,exp1,2023.1.0,60.14433428
,,,,,,,,,,,,,,,,5,7.8,8.9,10,11.1,12.2,1.1,0.85,0.25,4.65,10,initial,36.05,281,321,361,400,440,9,9,9,9,9,,,,,0,0,0,0,0,0,0,36,,,,num_4,2.0280686,num_4,0.3,0.6,0.15,1.2,5.73083,45.8466,return,8.7716274,,,,,,703,20,male,left_right_width,2024-05-14_09h36.14.190,exp1,2023.1.0,60.14433428
,,,,,,,,,,,,,,,,3,8.9,10,11.1,0,0,1.1,0.7,0.4,2.6,10,initial,36.05,321,361,400,0,0,9,9,9,0,0,,,,,0,0,0,0,0,1,1,4,,,,num_3,1.8159346,num_3,0.3,0.6,0.45,0.9,17.19248,34.38495,return,5.0155788,,,,,,703,20,male,left_right_width,2024-05-14_09h36.14.190,exp1,2023.1.0,60.14433428
,,,,,,,,,,,,,,,,4,8.65,9.55,10.45,11.35,0,0.9,0.65,0.25,2.95,10,initial,36.05,312,344,377,409,0,9,9,9,9,0,,,,,0,0,0,0,0,2,2,30,,,,num_4,2.2851943,num_4,0.2,0.8,0.2,0.8,7.6411,30.5644,return,2.1403913,,,,,,703,20,male,left_right_width,2024-05-14_09h36.14.190,exp1,2023.1.0,60.14433428
,,,,,,,,,,,,,,,,5,8.6,9.3,10,10.7,11.4,0.7,0.15,0.55,3.35,10,initial,36.05,310,335,361,386,411,9,9,9,9,9,,,,,0,0,0,0,0,3,3,40,,,,num_5,3.2199015,num_5,0.2,0.9,0.45,0.75,17.19248,28.65413,return,9.9288772,,,,,,703,20,male,left_right_width,2024-05-14_09h36.14.190,exp1,2023.1.0,60.14433428
,,,,,,,,,,,,,,,,5,8.2,9.1,10,10.9,11.8,0.9,0.35,0.55,4.15,10,initial,36.05,296,328,361,393,425,9,9,9,9,9,,,,,0,0,0,0,0,4,4,46,,,,num_5,7.9703745,num_5,0.45,0.5,0.25,0.55,9.55138,21.01303,return,12.9082322,,,,,,703,20,male,left_right_width,2024-05-14_09h36.14.190,exp1,2023.1.0,60.14433428
,,,,,,,,,,,,,,,,3,7.8,10,12.2,0,0,2.2,1.65,0.55,4.95,10,match,36.05,281,361,440,0,0,9,9,9,0,0,,,,,0,0,0,0,0,5,5,35,,,,num_3,2.0395265,num_3,0.25,0.7,0.65,1.6,24.83358,61.12881,return,10.0471316,,,,,,703,20,male,left_right_width,2024-05-14_09h36.14.190,exp1,2023.1.0,60.14433428
,,,,,,,,,,,,,,,,4,8.65,9.55,10.45,11.35,0,0.9,0.35,0.55,3.25,10,initial,36.05,312,344,377,409,0,9,9,9,9,0,,,,,0,0,0,0,0,6,6,28,,,,num_4,5.339472,num_4,0.45,1.1,0.65,1.4,24.83358,53.48771,return,3.6972669,,,,,,703,20,male,left_right_width,2024-05-14_09h36.14.190,exp1,2023.1.0,60.14433428
,,,,,,,,,,,,,,,,5,8.35,9.175,10,10.825,11.65,0.825,0.275,0.55,3.85,10,match,36.05,301,331,361,390,420,9,9,9,9,9,,,,,0,0,0,0,0,7,7,18,,,,num_5,3.8228196,num_5,0.55,0.8,0.65,1.45,24.83358,55.39798,return,5.2327297,,,,,,703,20,male,left_right_width,2024-05-14_09h36.14.190,exp1,2023.1.0,60.14433428
,,,,,,,,,,,,,,,,4,8.35,9.45,10.55,11.65,0,1.1,0.85,0.25,3.55,10,initial,36.05,301,341,380,420,0,9,9,9,9,0,,,,,0,0,0,0,0,8,8,19,,,,num_4,2.4200726,num_4,0.4,1.2,0.2,1,7.6411,38.2055,return,9.8552057,,,,,,703,20,male,left_right_width,2024-05-14_09h36.14.190,exp1,2023.1.0,60.14433428
,,,,,,,,,,,,,,,,3,9.3,10,10.7,0,0,0.7,0.15,0.55,1.95,10,initial,36.05,335,361,386,0,0,9,9,9,0,0,,,,,0,0,0,0,0,9,9,6,,,,num_3,1.7679342,num_3,0.35,1,0.6,0.7,22.9233,26.74385,return,8.2082484,,,,,,703,20,male,left_right_width,2024-05-14_09h36.14.190,exp1,2023.1.0,60.14433428
,,,,,,,,,,,,,,,,4,8.65,9.55,10.45,11.35,0,0.9,0.5,0.4,3.1,10,initial,36.05,312,344,377,409,0,9,9,9,9,0,,,,,0,0,0,0,0,10,10,32,,,,num_4,1.4679787,num_4,0.35,0.6,0.5,0.9,19.10275,34.38495,return,3.2786543,,,,,,703,20,male,left_right_width,2024-05-14_09h36.14.190,exp1,2023.1.0,60.14433428
,,,,,,,,,,,,,,,,3,8.9,10,11.1,0,0,1.1,0.55,0.55,2.75,10,initial,36.05,321,361,400,0,0,9,9,9,0,0,,,,,0,0,0,0,0,11,11,0,,,,num_3,1.3101515,num_3,0.35,1.1,0.25,1.1,9.55138,42.02605,return,5.8585651,,,,,,703,20,male,left_right_width,2024-05-14_09h36.14.190,exp1,2023.1.0,60.14433428
,,,,,,,,,,,,,,,,4,8.35,9.45,10.55,11.65,0,1.1,0.55,0.55,3.85,10,initial,36.05,301,341,380,420,0,9,9,9,9,0,,,,,0,0,0,0,0,12,12,17,,,,num_4,1.723041499,num_4,0.35,0.9,0.55,1.2,21.01303,45.8466,return,3.5358853,,,,,,703,20,male,left_right_width,2024-05-14_09h36.14.190,exp1,2023.1.0,60.14433428
,,,,,,,,,,,,,,,,3,7.8,10,12.2,0,0,2.2,1.95,0.25,4.65,10,match,36.05,281,361,440,0,0,9,9,9,0,0,,,,,0,0,0,0,0,13,13,37,,,,num_4,1.3161419,num_4,0.4,1,0.1,1.1,3.82055,42.02605,return,5.1144109,,,,,,703,20,male,left_right_width,2024-05-14_09h36.14.190,exp1,2023.1.0,60.14433428
,,,,,,,,,,,,,,,,4,9.1,9.7,10.3,10.9,0,0.6,0.35,0.25,2.05,10,match,36.05,328,350,371,393,0,9,9,9,9,0,,,,,0,0,0,0,0,14,14,14,,,,num_4,2.5658847,num_4,0.3,0.9,0.15,0.7,5.73083,26.74385,return,6.2377221,,,,,,703,20,male,left_right_width,2024-05-14_09h36.14.190,exp1,2023.1.0,60.14433428
,,,,,,,,,,,,,,,,3,9.1,10,10.9,0,0,0.9,0.35,0.55,2.35,10,initial,36.05,328,361,393,0,0,9,9,9,0,0,,,,,0,0,0,0,0,15,15,11,,,,num_3,3.9816176,num_3,0.2,0.4,0.35,0.55,13.37193,21.01303,return,10.3134691,,,,,,703,20,male,left_right_width,2024-05-14_09h36.14.190,exp1,2023.1.0,60.14433428
,,,,,,,,,,,,,,,,3,8.6,10,11.4,0,0,1.4,1.15,0.25,3.05,10,match,36.05,310,361,411,0,0,9,9,9,0,0,,,,,0,0,0,0,0,16,16,43,,,,num_3,5.4280054,num_3,0.2,0.3,0.15,0.8,5.73083,30.5644,return,19.1560568,,,,,,703,20,male,left_right_width,2024-05-14_09h36.14.190,exp1,2023.1.0,60.14433428
,,,,,,,,,,,,,,,,3,9.1,10,10.9,0,0,0.9,0.5,0.4,2.2,10,initial,36.05,328,361,393,0,0,9,9,9,0,0,,,,,0,0,0,0,0,17,17,15,,,,num_3,1.261522,num_3,0.55,0.7,0.35,0.9,13.37193,34.38495,return,10.5690202,,,,,,703,20,male,left_right_width,2024-05-14_09h36.14.190,exp1,2023.1.0,60.14433428
,,,,,,,,,,,,,,,,5,8.65,9.325,10,10.675,11.35,0.675,0.425,0.25,2.95,10,match,36.05,312,336,361,385,409,9,9,9,9,9,,,,,0,0,0,0,0,18,18,31,,,,num_5,1.4679336,num_5,0.2,0.6,0.2,0.7,7.6411,26.74385,return,2.4270068,,,,,,703,20,male,left_right_width,2024-05-14_09h36.14.190,exp1,2023.1.0,60.14433428
,,,,,,,,,,,,,,,,4,8.35,9.45,10.55,11.65,0,1.1,0.7,0.4,3.7,10,initial,36.05,301,341,380,420,0,9,9,9,9,0,,,,,0,0,0,0,0,19,19,21,,,,num_4,1.608159,num_4,0.55,1.2,0.3,1.2,11.46165,45.8466,return,5.6648468,,,,,,703,20,male,left_right_width,2024-05-14_09h36.14.190,exp1,2023.1.0,60.14433428
,,,,,,,,,,,,,,,,3,8.9,10,11.1,0,0,1.1,0.85,0.25,2.45,10,initial,36.05,321,361,400,0,0,9,9,9,0,0,,,,,0,0,0,0,0,20,20,2,,,,num_3,2.5325102,num_3,0.3,0.9,0.2,0.85,7.6411,32.47468,return,6.7830949,,,,,,703,20,male,left_right_width,2024-05-14_09h36.14.190,exp1,2023.1.0,60.14433428
,,,,,,,,,,,,,,,,3,8.6,10,11.4,0,0,1.4,0.85,0.55,3.35,10,match,36.05,310,361,411,0,0,9,9,9,0,0,,,,,0,0,0,0,0,21,21,41,,,,num_3,1.5441052,num_3,0.4,1.3,0.55,1.45,21.01303,55.39798,return,7.7047242,,,,,,703,20,male,left_right_width,2024-05-14_09h36.14.190,exp1,2023.1.0,60.14433428
,,,,,,,,,,,,,,,,5,8.2,9.1,10,10.9,11.8,0.9,0.5,0.4,4,10,initial,36.05,296,328,361,393,425,9,9,9,9,9,,,,,0,0,0,0,0,22,22,50,,,,num_5,1.4993469,num_5,0.2,1.1,0.5,0.9,19.10275,34.38495,return,7.4184669,,,,,,703,20,male,left_right_width,2024-05-14_09h36.14.190,exp1,2023.1.0,60.14433428
,,,,,,,,,,,,,,,,4,8.9,9.633333333,10.36666667,11.1,0,0.733333333,0.183333333,0.55,2.75,10,match,36.05,321,347,374,400,0,9,9,9,9,0,,,,,0,0,0,0,0,23,23,1,,,,num_4,1.4844175,num_4,0.45,1.2,0.45,0.7,17.19248,26.74385,return,8.735523,,,,,,703,20,male,left_right_width,2024-05-14_09h36.14.190,exp1,2023.1.0,60.14433428
,,,,,,,,,,,,,,,,4,8.95,9.65,10.35,11.05,0,0.7,0.3,0.4,2.5,10,initial,36.05,323,348,373,398,0,9,9,9,9,0,,,,,0,0,0,0,0,24,24,26,,,,num_4,1.5619939,num_4,0.3,0.6,0.3,0.7,11.46165,26.74385,return,5.1609158,,,,,,703,20,male,left_right_width,2024-05-14_09h36.14.190,exp1,2023.1.0,60.14433428
,,,,,,,,,,,,,,,,5,8.6,9.3,10,10.7,11.4,0.7,0.45,0.25,3.05,10,initial,36.05,310,335,361,386,411,9,9,9,9,9,,,,,0,0,0,0,0,25,25,42,,,,num_4,1.30524,num_4,0.2,0.5,0.15,0.5,5.73083,19.10275,return,5.9500114,,,,,,703,20,male,left_right_width,2024-05-14_09h36.14.190,exp1,2023.1.0,60.14433428
,,,,,,,,,,,,,,,,5,7.8,8.9,10,11.1,12.2,1.1,0.7,0.4,4.8,10,initial,36.05,281,321,361,400,440,9,9,9,9,9,,,,,0,0,0,0,0,26,26,38,,,,num_5,1.836568,num_5,0.45,1.1,0.25,0.8,9.55138,30.5644,return,6.2343477,,,,,,703,20,male,left_right_width,2024-05-14_09h36.14.190,exp1,2023.1.0,60.14433428
,,,,,,,,,,,,,,,,5,8.35,9.175,10,10.825,11.65,0.825,0.575,0.25,3.55,10,match,36.05,301,331,361,390,420,9,9,9,9,9,,,,,0,0,0,0,0,27,27,20,,,,num_4,2.1116966,num_4,0.3,0.3,0.15,0.6,5.73083,22.9233,return,19.0440724,,,,,,703,20,male,left_right_width,2024-05-14_09h36.14.190,exp1,2023.1.0,60.14433428
,,,,,,,,,,,,,,,,3,9.1,10,10.9,0,0,0.9,0.65,0.25,2.05,10,initial,36.05,328,361,393,0,0,9,9,9,0,0,,,,,0,0,0,0,0,28,28,13,,,,num_3,1.5081592,num_3,0.2,0.9,0.3,0.9,11.46165,34.38495,return,4.1765578,,,,,,703,20,male,left_right_width,2024-05-14_09h36.14.190,exp1,2023.1.0,60.14433428
,,,,,,,,,,,,,,,,4,8.95,9.65,10.35,11.05,0,0.7,0.15,0.55,2.65,10,initial,36.05,323,348,373,398,0,9,9,9,9,0,,,,,0,0,0,0,0,29,29,23,,,,num_4,1.5445716,num_4,0.3,0.8,0.45,0.7,17.19248,26.74385,return,7.184368,,,,,,703,20,male,left_right_width,2024-05-14_09h36.14.190,exp1,2023.1.0,60.14433428
,,,,,,,,,,,,,,,,4,8.825,9.608333333,10.39166667,11.175,0,0.783333333,0.533333333,0.25,2.6,10,match,36.05,318,346,375,403,0,9,9,9,9,0,,,,,0,0,0,0,0,30,30,5,,,,num_4,1.468425,num_4,0.2,1,0.25,0.6,9.55138,22.9233,return,8.1925447,,,,,,703,20,male,left_right_width,2024-05-14_09h36.14.190,exp1,2023.1.0,60.14433428
,,,,,,,,,,,,,,,,4,9.3,9.766666667,10.23333333,10.7,0,0.466666667,0.066666667,0.4,1.8,10,match,36.05,335,352,369,386,0,9,9,9,9,0,,,,,0,0,0,0,0,31,31,10,,,,num_3,2.9858539,num_3,0.25,0.5,0.55,0.7,21.01303,26.74385,return,4.9924366,,,,,,703,20,male,left_right_width,2024-05-14_09h36.14.190,exp1,2023.1.0,60.14433428
,,,,,,,,,,,,,,,,5,8.65,9.325,10,10.675,11.35,0.675,0.275,0.4,3.1,10,match,36.05,312,336,361,385,409,9,9,9,9,9,,,,,0,0,0,0,0,32,32,33,,,,num_4,1.1954242,num_4,0.3,0.5,0.5,0.7,19.10275,26.74385,return,4.599747,,,,,,703,20,male,left_right_width,2024-05-14_09h36.14.190,exp1,2023.1.0,60.14433428
,,,,,,,,,,,,,,,,3,9.3,10,10.7,0,0,0.7,0.3,0.4,1.8,10,initial,36.05,335,361,386,0,0,9,9,9,0,0,,,,,0,0,0,0,0,33,33,9,,,,num_3,1.971771,num_3,0.4,0.9,0.45,0.8,17.19248,30.5644,return,5.8381607,,,,,,703,20,male,left_right_width,2024-05-14_09h36.14.190,exp1,2023.1.0,60.14433428
,,,,,,,,,,,,,,,,5,7.8,8.9,10,11.1,12.2,1.1,0.55,0.55,4.95,10,initial,36.05,281,321,361,400,440,9,9,9,9,9,,,,,0,0,0,0,0,34,34,34,,,,num_4,1.4476638,num_4,0.25,1,0.65,1.1,24.83358,42.02605,return,11.3647198,,,,,,703,20,male,left_right_width,2024-05-14_09h36.14.190,exp1,2023.1.0,60.14433428
,,,,,,,,,,,,,,,,5,8.95,9.475,10,10.525,11.05,0.525,0.125,0.4,2.5,10,match,36.05,323,342,361,379,398,9,9,9,9,9,,,,,0,0,0,0,0,35,35,27,,,,num_4,3.3998354,num_4,0.45,1.1,0.85,1.1,32.47468,42.02605,return,5.5993458,,,,,,703,20,male,left_right_width,2024-05-14_09h36.14.190,exp1,2023.1.0,60.14433428
,,,,,,,,,,,,,,,,5,8.2,9.1,10,10.9,11.8,0.9,0.65,0.25,3.85,10,initial,36.05,296,328,361,393,425,9,9,9,9,9,,,,,0,0,0,0,0,36,36,48,,,,num_4,1.1772439,num_4,0.3,0.8,0.1,0.9,3.82055,34.38495,return,5.009908,,,,,,703,20,male,left_right_width,2024-05-14_09h36.14.190,exp1,2023.1.0,60.14433428
,,,,,,,,,,,,,,,,3,8.2,10,11.8,0,0,1.8,1.4,0.4,4,10,match,36.05,296,361,425,0,0,9,9,9,0,0,,,,,0,0,0,0,0,37,37,51,,,,num_3,1.1328704,num_3,0.55,1,0.2,2.25,7.6411,85.96238,return,13.2955328,,,,,,703,20,male,left_right_width,2024-05-14_09h36.14.190,exp1,2023.1.0,60.14433428
,,,,,,,,,,,,,,,,4,9.1,9.7,10.3,10.9,0,0.6,0.05,0.55,2.35,10,match,36.05,328,350,371,393,0,9,9,9,9,0,,,,,0,0,0,0,0,38,38,12,,,,num_3,1.4492874,num_3,0.35,1.1,0.6,0.95,22.9233,36.29523,return,12.3600915,,,,,,703,20,male,left_right_width,2024-05-14_09h36.14.190,exp1,2023.1.0,60.14433428
,,,,,,,,,,,,,,,,4,8.9,9.633333333,10.36666667,11.1,0,0.733333333,0.483333333,0.25,2.45,10,match,36.05,321,347,374,400,0,9,9,9,9,0,,,,,0,0,0,0,0,39,39,3,,,,num_4,1.532311,num_4,0.55,1.3,0.25,0.5,9.55138,19.10275,return,5.0332899,,,,,,703,20,male,left_right_width,2024-05-14_09h36.14.190,exp1,2023.1.0,60.14433428
,,,,,,,,,,,,,,,,4,8.95,9.65,10.35,11.05,0,0.7,0.45,0.25,2.35,10,initial,36.05,323,348,373,398,0,9,9,9,9,0,,,,,0,0,0,0,0,40,40,24,,,,num_4,1.4943498,num_4,0.25,0.9,0.15,0.3,5.73083,11.46165,return,4.293592,,,,,,703,20,male,left_right_width,2024-05-14_09h36.14.190,exp1,2023.1.0,60.14433428
,,,,,,,,,,,,,,,,5,8.275,9.1375,10,10.8625,11.725,0.8625,0.6125,0.25,3.7,10,match,36.05,298,329,361,392,423,9,9,9,9,9,,,,,0,0,0,0,0,41,41,22,,,,num_4,1.2271459,num_4,0.3,1.2,0.1,1,3.82055,38.2055,return,8.2617924,,,,,,703,20,male,left_right_width,2024-05-14_09h36.14.190,exp1,2023.1.0,60.14433428
,,,,,,,,,,,,,,,,4,9.1,9.7,10.3,10.9,0,0.6,0.2,0.4,2.2,10,match,36.05,328,350,371,393,0,9,9,9,9,0,,,,,0,0,0,0,0,42,42,16,,,,num_4,1.3613033,num_4,0.45,1.3,0.3,0.6,11.46165,22.9233,return,6.9309417,,,,,,703,20,male,left_right_width,2024-05-14_09h36.14.190,exp1,2023.1.0,60.14433428
,,,,,,,,,,,,,,,,3,7.8,10,12.2,0,0,2.2,1.8,0.4,4.8,10,match,36.05,281,361,440,0,0,9,9,9,0,0,,,,,0,0,0,0,0,43,43,39,,,,num_3,1.9326251,num_3,0.2,0.7,0.3,1.45,11.46165,55.39798,return,8.8643864,,,,,,703,20,male,left_right_width,2024-05-14_09h36.14.190,exp1,2023.1.0,60.14433428
,,,,,,,,,,,,,,,,3,9.3,10,10.7,0,0,0.7,0.45,0.25,1.65,10,initial,36.05,335,361,386,0,0,9,9,9,0,0,,,,,0,0,0,0,0,44,44,7,,,,num_3,1.3414949,num_3,0.45,0.6,0.35,1,13.37193,38.2055,return,9.0568157,,,,,,703,20,male,left_right_width,2024-05-14_09h36.14.190,exp1,2023.1.0,60.14433428
,,,,,,,,,,,,,,,,5,8.6,9.3,10,10.7,11.4,0.7,0.3,0.4,3.2,10,initial,36.05,310,335,361,386,411,9,9,9,9,9,,,,,0,0,0,0,0,45,45,44,,,,num_4,1.268222,num_4,0.55,1.2,0.6,0.8,22.9233,30.5644,return,10.5056368,,,,,,703,20,male,left_right_width,2024-05-14_09h36.14.190,exp1,2023.1.0,60.14433428
,,,,,,,,,,,,,,,,3,8.2,10,11.8,0,0,1.8,1.25,0.55,4.15,10,match,36.05,296,361,425,0,0,9,9,9,0,0,,,,,0,0,0,0,0,46,46,47,,,,num_4,1.4934411,num_4,0.55,0.8,0.25,1.2,9.55138,45.8466,return,7.2720307,,,,,,703,20,male,left_right_width,2024-05-14_09h36.14.190,exp1,2023.1.0,60.14433428
,,,,,,,,,,,,,,,,4,9.3,9.766666667,10.23333333,10.7,0,0.466666667,0.216666667,0.25,1.65,10,match,36.05,335,352,369,386,0,9,9,9,9,0,,,,,0,0,0,0,0,47,47,8,,,,num_4,1.1494953,num_4,0.35,0.6,0.25,0.5,9.55138,19.10275,return,8.7122935,,,,,,703,20,male,left_right_width,2024-05-14_09h36.14.190,exp1,2023.1.0,60.14433428
,,,,,,,,,,,,,,,,5,8.65,9.325,10,10.675,11.35,0.675,0.125,0.55,3.25,10,match,36.05,312,336,361,385,409,9,9,9,9,9,,,,,0,0,0,0,0,48,48,29,,,,num_4,1.6104612,num_4,0.25,0.5,0.3,1.1,11.46165,42.02605,return,5.7042207,,,,,,703,20,male,left_right_width,2024-05-14_09h36.14.190,exp1,2023.1.0,60.14433428
,,,,,,,,,,,,,,,,3,8.2,10,11.8,0,0,1.8,1.55,0.25,3.85,10,match,36.05,296,361,425,0,0,9,9,9,0,0,,,,,0,0,0,0,0,49,49,49,,,,num_4,10.8075204,num_4,0.2,1,0.35,1.1,13.37193,42.02605,return,14.8227368,,,,,,703,20,male,left_right_width,2024-05-14_09h36.14.190,exp1,2023.1.0,60.14433428
,,,,,,,,,,,,,,,,5,8.95,9.475,10,10.525,11.05,0.525,0.275,0.25,2.35,10,match,36.05,323,342,361,379,398,9,9,9,9,9,,,,,0,0,0,0,0,50,50,25,,,,num_4,1.2767721,num_4,0.55,1.1,0.2,0.5,7.6411,19.10275,return,4.5818126,,,,,,703,20,male,left_right_width,2024-05-14_09h36.14.190,exp1,2023.1.0,60.14433428
,,,,,,,,,,,,,,,,3,8.525,10,11.475,0,0,1.475,1.225,0.25,3.2,10,match,36.05,307,361,414,0,0,9,9,9,0,0,,,,,0,0,0,0,0,51,51,45,,,,num_3,1.0852926,num_3,0.2,0.5,0.2,1.6,7.6411,61.12881,return,8.7789064,,,,,,703,20,male,left_right_width,2024-05-14_09h36.14.190,exp1,2023.1.0,60.14433428
,,,,,,,,,,,,,,,,,,,,,,,,,,,,,,,,,,,,,,,,,,,0,0,0,0,,,,,,,,,,,,,,,,,,,,,1428.249004,1428.249004,1428.249004,703,20,male,left_right_width,2024-05-14_09h36.14.190,exp1,2023.1.0,60.14433428
,,,,,,,,,,,,,,,,3,9.3,10,10.7,0,0,0.7,0.3,0.4,1.8,10,initial,36.05,335,361,386,0,0,9,9,9,0,0,,,,,1,0,1,0,0,0,0,9,,,,num_3,1.2273181,num_3,0.45,1.3,0.55,0.8,21.01303,30.5644,return,4.0035506,,,,,,703,20,male,left_right_width,2024-05-14_09h36.14.190,exp1,2023.1.0,60.14433428
,,,,,,,,,,,,,,,,5,7.8,8.9,10,11.1,12.2,1.1,0.7,0.4,4.8,10,initial,36.05,281,321,361,400,440,9,9,9,9,9,,,,,1,0,1,0,0,1,1,38,,,,num_4,1.0581344,num_4,0.25,0.4,0.6,1.2,22.9233,45.8466,return,3.614884099,,,,,,703,20,male,left_right_width,2024-05-14_09h36.14.190,exp1,2023.1.0,60.14433428
,,,,,,,,,,,,,,,,5,8.2,9.1,10,10.9,11.8,0.9,0.35,0.55,4.15,10,initial,36.05,296,328,361,393,425,9,9,9,9,9,,,,,1,0,1,0,0,2,2,46,,,,num_4,1.4580086,num_4,0.5,0.6,0.55,1,21.01303,38.2055,return,7.2986917,,,,,,703,20,male,left_right_width,2024-05-14_09h36.14.190,exp1,2023.1.0,60.14433428
,,,,,,,,,,,,,,,,3,8.6,10,11.4,0,0,1.4,0.85,0.55,3.35,10,match,36.05,310,361,411,0,0,9,9,9,0,0,,,,,1,0,1,0,0,3,3,41,,,,num_3,1.1781903,num_3,0.55,1,0.85,1.55,32.47468,59.21853,return,7.2053577,,,,,,703,20,male,left_right_width,2024-05-14_09h36.14.190,exp1,2023.1.0,60.14433428
,,,,,,,,,,,,,,,,4,8.95,9.65,10.35,11.05,0,0.7,0.15,0.55,2.65,10,initial,36.05,323,348,373,398,0,9,9,9,9,0,,,,,1,0,1,0,0,4,4,23,,,,num_3,1.16312,num_3,0.2,1.2,0.75,0.9,28.65413,34.38495,return,6.0894848,,,,,,703,20,male,left_right_width,2024-05-14_09h36.14.190,exp1,2023.1.0,60.14433428
,,,,,,,,,,,,,,,,4,9.1,9.7,10.3,10.9,0,0.6,0.2,0.4,2.2,10,match,36.05,328,350,371,393,0,9,9,9,9,0,,,,,1,0,1,0,0,5,5,16,,,,num_3,4.0900316,num_3,0.35,1.2,0.3,0.45,11.46165,17.19248,return,6.4968665,,,,,,703,20,male,left_right_width,2024-05-14_09h36.14.190,exp1,2023.1.0,60.14433428
,,,,,,,,,,,,,,,,5,8.6,9.3,10,10.7,11.4,0.7,0.15,0.55,3.35,10,initial,36.05,310,335,361,386,411,9,9,9,9,9,,,,,1,0,1,0,0,6,6,40,,,,num_4,1.1729336,num_4,0.45,0.7,0.55,0.7,21.01303,26.74385,return,5.4864053,,,,,,703,20,male,left_right_width,2024-05-14_09h36.14.190,exp1,2023.1.0,60.14433428
,,,,,,,,,,,,,,,,5,8.2,9.1,10,10.9,11.8,0.9,0.65,0.25,3.85,10,initial,36.05,296,328,361,393,425,9,9,9,9,9,,,,,1,0,1,0,0,7,7,48,,,,num_4,1.1495418,num_4,0.4,0.9,0.15,1,5.73083,38.2055,return,3.704004,,,,,,703,20,male,left_right_width,2024-05-14_09h36.14.190,exp1,2023.1.0,60.14433428
,,,,,,,,,,,,,,,,3,8.9,10,11.1,0,0,1.1,0.55,0.55,2.75,10,initial,36.05,321,361,400,0,0,9,9,9,0,0,,,,,1,0,1,0,0,8,8,0,,,,num_3,1.3347091,num_3,0.3,0.7,0.45,1.05,17.19248,40.11578,return,5.968332,,,,,,703,20,male,left_right_width,2024-05-14_09h36.14.190,exp1,2023.1.0,60.14433428
,,,,,,,,,,,,,,,,4,8.9,9.633333333,10.36666667,11.1,0,0.733333333,0.483333333,0.25,2.45,10,match,36.05,321,347,374,400,0,9,9,9,9,0,,,,,1,0,1,0,0,9,9,3,,,,num_4,1.1736566,num_4,0.3,0.9,0.1,0.7,3.82055,26.74385,return,6.7677543,,,,,,703,20,male,left_right_width,2024-05-14_09h36.14.190,exp1,2023.1.0,60.14433428
,,,,,,,,,,,,,,,,3,7.8,10,12.2,0,0,2.2,1.8,0.4,4.8,10,match,36.05,281,361,440,0,0,9,9,9,0,0,,,,,1,0,1,0,0,10,10,39,,,,num_3,1.1281098,num_3,0.35,1.1,0.25,2.1,9.55138,80.23156,return,10.9938398,,,,,,703,20,male,left_right_width,2024-05-14_09h36.14.190,exp1,2023.1.0,60.14433428
,,,,,,,,,,,,,,,,4,9.1,9.7,10.3,10.9,0,0.6,0.35,0.25,2.05,10,match,36.05,328,350,371,393,0,9,9,9,9,0,,,,,1,0,1,0,0,11,11,14,,,,num_4,1.166179,num_4,0.55,1.2,0.2,0.6,7.6411,22.9233,return,7.064507199,,,,,,703,20,male,left_right_width,2024-05-14_09h36.14.190,exp1,2023.1.0,60.14433428
,,,,,,,,,,,,,,,,4,9.1,9.7,10.3,10.9,0,0.6,0.05,0.55,2.35,10,match,36.05,328,350,371,393,0,9,9,9,9,0,,,,,1,0,1,0,0,12,12,12,,,,num_3,1.205194,num_3,0.45,1,0.7,0.8,26.74385,30.5644,return,6.8945711,,,,,,703,20,male,left_right_width,2024-05-14_09h36.14.190,exp1,2023.1.0,60.14433428
,,,,,,,,,,,,,,,,4,8.35,9.45,10.55,11.65,0,1.1,0.7,0.4,3.7,10,initial,36.05,301,341,380,420,0,9,9,9,9,0,,,,,1,0,1,0,0,13,13,21,,,,num_4,1.0239246,num_4,0.2,1.1,0.2,0.8,7.6411,30.5644,return,8.094673,,,,,,703,20,male,left_right_width,2024-05-14_09h36.14.190,exp1,2023.1.0,60.14433428
,,,,,,,,,,,,,,,,5,8.65,9.325,10,10.675,11.35,0.675,0.425,0.25,2.95,10,match,36.05,312,336,361,385,409,9,9,9,9,9,,,,,1,0,1,0,0,14,14,31,,,,num_5,1.260731,num_5,0.45,1,0.25,0.7,9.55138,26.74385,return,8.9315406,,,,,,703,20,male,left_right_width,2024-05-14_09h36.14.190,exp1,2023.1.0,60.14433428
,,,,,,,,,,,,,,,,4,8.95,9.65,10.35,11.05,0,0.7,0.3,0.4,2.5,10,initial,36.05,323,348,373,398,0,9,9,9,9,0,,,,,1,0,1,0,0,15,15,26,,,,num_4,2.1726507,num_4,0.4,0.9,0.25,0.8,9.55138,30.5644,return,7.6362285,,,,,,703,20,male,left_right_width,2024-05-14_09h36.14.190,exp1,2023.1.0,60.14433428
,,,,,,,,,,,,,,,,5,8.275,9.1375,10,10.8625,11.725,0.8625,0.6125,0.25,3.7,10,match,36.05,298,329,361,392,423,9,9,9,9,9,,,,,1,0,1,0,0,16,16,22,,,,num_4,1.541009699,num_4,0.35,1.2,0.2,1.6,7.6411,61.12881,return,3.1094124,,,,,,703,20,male,left_right_width,2024-05-14_09h36.14.190,exp1,2023.1.0,60.14433428
,,,,,,,,,,,,,,,,3,9.1,10,10.9,0,0,0.9,0.65,0.25,2.05,10,initial,36.05,328,361,393,0,0,9,9,9,0,0,,,,,1,0,1,0,0,17,17,13,,,,num_3,0.9995405,num_3,0.5,0.8,0.2,1.55,7.6411,59.21853,return,6.6856891,,,,,,703,20,male,left_right_width,2024-05-14_09h36.14.190,exp1,2023.1.0,60.14433428
,,,,,,,,,,,,,,,,3,8.9,10,11.1,0,0,1.1,0.85,0.25,2.45,10,initial,36.05,321,361,400,0,0,9,9,9,0,0,,,,,1,0,1,0,0,18,18,2,,,,num_3,1.356087,num_3,0.4,1,0.1,1.7,3.82055,64.94936,return,6.2380274,,,,,,703,20,male,left_right_width,2024-05-14_09h36.14.190,exp1,2023.1.0,60.14433428
,,,,,,,,,,,,,,,,3,9.3,10,10.7,0,0,0.7,0.15,0.55,1.95,10,initial,36.05,335,361,386,0,0,9,9,9,0,0,,,,,1,0,1,0,0,19,19,6,,,,num_3,0.9247962,num_3,0.25,1,0.55,0.7,21.01303,26.74385,return,9.5898547,,,,,,703,20,male,left_right_width,2024-05-14_09h36.14.190,exp1,2023.1.0,60.14433428
,,,,,,,,,,,,,,,,4,9.3,9.766666667,10.23333333,10.7,0,0.466666667,0.066666667,0.4,1.8,10,match,36.05,335,352,369,386,0,9,9,9,9,0,,,,,1,0,1,0,0,20,20,10,,,,num_2,3.2640086,num_2,0.4,1,0.85,1,32.47468,38.2055,return,10.1715725,,,,,,703,20,male,left_right_width,2024-05-14_09h36.14.190,exp1,2023.1.0,60.14433428
,,,,,,,,,,,,,,,,5,8.35,9.175,10,10.825,11.65,0.825,0.575,0.25,3.55,10,match,36.05,301,331,361,390,420,9,9,9,9,9,,,,,1,0,1,0,0,21,21,20,,,,num_4,1.2829109,num_4,0.25,0.5,0.15,0.9,5.73083,34.38495,return,6.6185008,,,,,,703,20,male,left_right_width,2024-05-14_09h36.14.190,exp1,2023.1.0,60.14433428
,,,,,,,,,,,,,,,,5,8.6,9.3,10,10.7,11.4,0.7,0.45,0.25,3.05,10,initial,36.05,310,335,361,386,411,9,9,9,9,9,,,,,1,0,1,0,0,22,22,42,,,,num_5,1.6828559,num_5,0.3,0.6,0.2,0.6,7.6411,22.9233,return,9.518526,,,,,,703,20,male,left_right_width,2024-05-14_09h36.14.190,exp1,2023.1.0,60.14433428
,,,,,,,,,,,,,,,,3,9.3,10,10.7,0,0,0.7,0.45,0.25,1.65,10,initial,36.05,335,361,386,0,0,9,9,9,0,0,,,,,1,0,1,0,0,23,23,7,,,,num_3,2.991698,num_3,0.3,1.2,0.2,0.65,7.6411,24.83358,return,4.7983413,,,,,,703,20,male,left_right_width,2024-05-14_09h36.14.190,exp1,2023.1.0,60.14433428
,,,,,,,,,,,,,,,,3,8.525,10,11.475,0,0,1.475,1.225,0.25,3.2,10,match,36.05,307,361,414,0,0,9,9,9,0,0,,,,,1,0,1,0,0,24,24,45,,,,num_3,1.1811651,num_3,0.2,0.7,0.1,1.7,3.82055,64.94936,return,7.2071904,,,,,,703,20,male,left_right_width,2024-05-14_09h36.14.190,exp1,2023.1.0,60.14433428
,,,,,,,,,,,,,,,,5,7.8,8.9,10,11.1,12.2,1.1,0.85,0.25,4.65,10,initial,36.05,281,321,361,400,440,9,9,9,9,9,,,,,1,0,1,0,0,25,25,36,,,,num_4,1.0395418,num_4,0.45,1,0.15,1.6,5.73083,61.12881,return,8.0967946,,,,,,703,20,male,left_right_width,2024-05-14_09h36.14.190,exp1,2023.1.0,60.14433428
,,,,,,,,,,,,,,,,3,8.2,10,11.8,0,0,1.8,1.55,0.25,3.85,10,match,36.05,296,361,425,0,0,9,9,9,0,0,,,,,1,0,1,0,0,26,26,49,,,,num_3,2.0363719,num_3,0.45,0.8,0.15,1.1,5.73083,42.02605,return,6.1725365,,,,,,703,20,male,left_right_width,2024-05-14_09h36.14.190,exp1,2023.1.0,60.14433428
,,,,,,,,,,,,,,,,4,8.65,9.55,10.45,11.35,0,0.9,0.65,0.25,2.95,10,initial,36.05,312,344,377,409,0,9,9,9,9,0,,,,,1,0,1,0,0,27,27,30,,,,num_4,1.5974645,num_4,0.5,0.9,0.15,1.2,5.73083,45.8466,return,3.8472527,,,,,,703,20,male,left_right_width,2024-05-14_09h36.14.190,exp1,2023.1.0,60.14433428
,,,,,,,,,,,,,,,,4,8.65,9.55,10.45,11.35,0,0.9,0.5,0.4,3.1,10,initial,36.05,312,344,377,409,0,9,9,9,9,0,,,,,1,0,1,0,0,28,28,32,,,,num_4,0.9862617,num_4,0.3,1.2,0.5,1,19.10275,38.2055,return,4.8150593,,,,,,703,20,male,left_right_width,2024-05-14_09h36.14.190,exp1,2023.1.0,60.14433428
,,,,,,,,,,,,,,,,4,8.35,9.45,10.55,11.65,0,1.1,0.55,0.55,3.85,10,initial,36.05,301,341,380,420,0,9,9,9,9,0,,,,,1,0,1,0,0,29,29,17,,,,num_4,1.5620994,num_4,0.2,0.8,0.55,1.1,21.01303,42.02605,return,4.7255336,,,,,,703,20,male,left_right_width,2024-05-14_09h36.14.190,exp1,2023.1.0,60.14433428
,,,,,,,,,,,,,,,,4,8.825,9.608333333,10.39166667,11.175,0,0.783333333,0.533333333,0.25,2.6,10,match,36.05,318,346,375,403,0,9,9,9,9,0,,,,,1,0,1,0,0,30,30,5,,,,num_4,1.3665109,num_4,0.25,1.1,0.15,0.4,5.73083,15.2822,return,3.6157161,,,,,,703,20,male,left_right_width,2024-05-14_09h36.14.190,exp1,2023.1.0,60.14433428
,,,,,,,,,,,,,,,,5,8.6,9.3,10,10.7,11.4,0.7,0.3,0.4,3.2,10,initial,36.05,310,335,361,386,411,9,9,9,9,9,,,,,1,0,1,0,0,31,31,44,,,,num_4,1.0909303,num_4,0.4,0.6,0.55,0.8,21.01303,30.5644,return,4.5259353,,,,,,703,20,male,left_right_width,2024-05-14_09h36.14.190,exp1,2023.1.0,60.14433428
,,,,,,,,,,,,,,,,3,8.2,10,11.8,0,0,1.8,1.4,0.4,4,10,match,36.05,296,361,425,0,0,9,9,9,0,0,,,,,1,0,1,0,0,32,32,51,,,,num_4,4.228135,num_4,0.4,0.8,0.2,1.3,7.6411,49.66716,return,6.0377931,,,,,,703,20,male,left_right_width,2024-05-14_09h36.14.190,exp1,2023.1.0,60.14433428
,,,,,,,,,,,,,,,,3,9.1,10,10.9,0,0,0.9,0.5,0.4,2.2,10,initial,36.05,328,361,393,0,0,9,9,9,0,0,,,,,1,0,1,0,0,33,33,15,,,,num_3,0.9971296,num_3,0.35,0.9,0.35,1.15,13.37193,43.93633,return,10.0226569,,,,,,703,20,male,left_right_width,2024-05-14_09h36.14.190,exp1,2023.1.0,60.14433428
,,,,,,,,,,,,,,,,4,8.9,9.633333333,10.36666667,11.1,0,0.733333333,0.183333333,0.55,2.75,10,match,36.05,321,347,374,400,0,9,9,9,9,0,,,,,1,0,1,0,0,34,34,1,,,,num_3,3.9374662,num_3,0.2,0.3,0.55,0.75,21.01303,28.65413,return,5.9482447,,,,,,703,20,male,left_right_width,2024-05-14_09h36.14.190,exp1,2023.1.0,60.14433428
,,,,,,,,,,,,,,,,3,8.9,10,11.1,0,0,1.1,0.7,0.4,2.6,10,initial,36.05,321,361,400,0,0,9,9,9,0,0,,,,,1,0,1,0,0,35,35,4,,,,num_3,1.544585,num_3,0.35,0.9,0.55,0.9,21.01303,34.38495,return,5.7079381,,,,,,703,20,male,left_right_width,2024-05-14_09h36.14.190,exp1,2023.1.0,60.14433428
,,,,,,,,,,,,,,,,5,8.95,9.475,10,10.525,11.05,0.525,0.275,0.25,2.35,10,match,36.05,323,342,361,379,398,9,9,9,9,9,,,,,1,0,1,0,0,36,36,25,,,,num_4,1.0512181,num_4,0.2,0.9,0.2,0.6,7.6411,22.9233,return,11.3262083,,,,,,703,20,male,left_right_width,2024-05-14_09h36.14.190,exp1,2023.1.0,60.14433428
,,,,,,,,,,,,,,,,4,9.3,9.766666667,10.23333333,10.7,0,0.466666667,0.216666667,0.25,1.65,10,match,36.05,335,352,369,386,0,9,9,9,9,0,,,,,1,0,1,0,0,37,37,8,,,,num_1,1.132864499,num_1,0.55,9999,0.25,9999,9.55138,382016.8345,return,5.642479,,,,,,703,20,male,left_right_width,2024-05-14_09h36.14.190,exp1,2023.1.0,60.14433428
,,,,,,,,,,,,,,,,3,8.2,10,11.8,0,0,1.8,1.25,0.55,4.15,10,match,36.05,296,361,425,0,0,9,9,9,0,0,,,,,1,0,1,0,0,38,38,47,,,,num_3,1.2796914,num_3,0.35,1.1,0.2,1.8,7.6411,68.76991,return,11.0817134,,,,,,703,20,male,left_right_width,2024-05-14_09h36.14.190,exp1,2023.1.0,60.14433428
,,,,,,,,,,,,,,,,5,8.35,9.175,10,10.825,11.65,0.825,0.275,0.55,3.85,10,match,36.05,301,331,361,390,420,9,9,9,9,9,,,,,1,0,1,0,0,39,39,18,,,,num_4,0.9688544,num_4,0.45,0.7,0.8,1.1,30.5644,42.02605,return,4.5060856,,,,,,703,20,male,left_right_width,2024-05-14_09h36.14.190,exp1,2023.1.0,60.14433428
,,,,,,,,,,,,,,,,5,8.2,9.1,10,10.9,11.8,0.9,0.5,0.4,4,10,initial,36.05,296,328,361,393,425,9,9,9,9,9,,,,,1,0,1,0,0,40,40,50,,,,num_4,1.3487,num_4,0.3,1.3,0.35,0.7,13.37193,26.74385,return,6.3131791,,,,,,703,20,male,left_right_width,2024-05-14_09h36.14.190,exp1,2023.1.0,60.14433428
,,,,,,,,,,,,,,,,4,8.95,9.65,10.35,11.05,0,0.7,0.45,0.25,2.35,10,initial,36.05,323,348,373,398,0,9,9,9,9,0,,,,,1,0,1,0,0,41,41,24,,,,num_4,1.101793,num_4,0.25,0.9,0.4,0.5,15.2822,19.10275,return,4.7166646,,,,,,703,20,male,left_right_width,2024-05-14_09h36.14.190,exp1,2023.1.0,60.14433428
,,,,,,,,,,,,,,,,5,8.95,9.475,10,10.525,11.05,0.525,0.125,0.4,2.5,10,match,36.05,323,342,361,379,398,9,9,9,9,9,,,,,1,0,1,0,0,42,42,27,,,,num_4,2.0840221,num_4,0.45,0.7,0.35,0.5,13.37193,19.10275,return,6.8784114,,,,,,703,20,male,left_right_width,2024-05-14_09h36.14.190,exp1,2023.1.0,60.14433428
,,,,,,,,,,,,,,,,5,7.8,8.9,10,11.1,12.2,1.1,0.55,0.55,4.95,10,initial,36.05,281,321,361,400,440,9,9,9,9,9,,,,,1,0,1,0,0,43,43,34,,,,num_5,1.1934602,num_5,0.2,1.1,0.5,0.9,19.10275,34.38495,return,5.3379081,,,,,,703,20,male,left_right_width,2024-05-14_09h36.14.190,exp1,2023.1.0,60.14433428
,,,,,,,,,,,,,,,,5,8.65,9.325,10,10.675,11.35,0.675,0.275,0.4,3.1,10,match,36.05,312,336,361,385,409,9,9,9,9,9,,,,,1,0,1,0,0,44,44,33,,,,num_5,1.3181028,num_5,0.5,1,0.3,0.55,11.46165,21.01303,return,4.4628217,,,,,,703,20,male,left_right_width,2024-05-14_09h36.14.190,exp1,2023.1.0,60.14433428
,,,,,,,,,,,,,,,,4,8.65,9.55,10.45,11.35,0,0.9,0.35,0.55,3.25,10,initial,36.05,312,344,377,409,0,9,9,9,9,0,,,,,1,0,1,0,0,45,45,28,,,,num_4,1.1376778,num_4,0.5,0.9,0.7,1.1,26.74385,42.02605,return,3.4365546,,,,,,703,20,male,left_right_width,2024-05-14_09h36.14.190,exp1,2023.1.0,60.14433428
,,,,,,,,,,,,,,,,3,7.8,10,12.2,0,0,2.2,1.65,0.55,4.95,10,match,36.05,281,361,440,0,0,9,9,9,0,0,,,,,1,0,1,0,0,46,46,35,,,,num_3,1.4457706,num_3,0.2,0.7,0.4,2.05,15.2822,78.32128,return,9.2531567,,,,,,703,20,male,left_right_width,2024-05-14_09h36.14.190,exp1,2023.1.0,60.14433428
,,,,,,,,,,,,,,,,3,7.8,10,12.2,0,0,2.2,1.95,0.25,4.65,10,match,36.05,281,361,440,0,0,9,9,9,0,0,,,,,1,0,1,0,0,47,47,37,,,,num_3,1.274567,num_3,0.55,0.6,0.15,1.35,5.73083,51.57743,return,10.5822396,,,,,,703,20,male,left_right_width,2024-05-14_09h36.14.190,exp1,2023.1.0,60.14433428
,,,,,,,,,,,,,,,,4,8.35,9.45,10.55,11.65,0,1.1,0.85,0.25,3.55,10,initial,36.05,301,341,380,420,0,9,9,9,9,0,,,,,1,0,1,0,0,48,48,19,,,,num_3,4.7547484,num_3,0.2,0.9,0.15,1.7,5.73083,64.94936,return,11.1223974,,,,,,703,20,male,left_right_width,2024-05-14_09h36.14.190,exp1,2023.1.0,60.14433428
,,,,,,,,,,,,,,,,3,8.6,10,11.4,0,0,1.4,1.15,0.25,3.05,10,match,36.05,310,361,411,0,0,9,9,9,0,0,,,,,1,0,1,0,0,49,49,43,,,,num_3,1.2469173,num_3,0.45,0.7,0.2,1,7.6411,38.2055,return,22.746519,,,,,,703,20,male,left_right_width,2024-05-14_09h36.14.190,exp1,2023.1.0,60.14433428
,,,,,,,,,,,,,,,,3,9.1,10,10.9,0,0,0.9,0.35,0.55,2.35,10,initial,36.05,328,361,393,0,0,9,9,9,0,0,,,,,1,0,1,0,0,50,50,11,,,,num_3,1.3982652,num_3,0.4,1.1,0.55,0.8,21.01303,30.5644,return,5.0041305,,,,,,703,20,male,left_right_width,2024-05-14_09h36.14.190,exp1,2023.1.0,60.14433428
,,,,,,,,,,,,,,,,5,8.65,9.325,10,10.675,11.35,0.675,0.125,0.55,3.25,10,match,36.05,312,336,361,385,409,9,9,9,9,9,,,,,1,0,1,0,0,51,51,29,,,,num_4,1.3084566,num_4,0.45,0.8,0.5,0.6,19.10275,22.9233,return,5.2820186,,,,,,703,20,male,left_right_width,2024-05-14_09h36.14.190,exp1,2023.1.0,60.14433428
,,,,,,,,,,,,,,,,,,,,,,,,,,,,,,,,,,,,,,,,,,,1,0,1,0,,,,,,,,,,,,,,,,,,,,,2030.23137,2030.23137,2030.23137,703,20,male,left_right_width,2024-05-14_09h36.14.190,exp1,2023.1.0,60.14433428
,,,,,,,,,,,,,,,,4,8.35,9.45,10.55,11.65,0,1.1,0.55,0.55,3.85,10,initial,36.05,301,341,380,420,0,9,9,9,9,0,,,,,2,0,2,0,0,0,0,17,,,,num_3,1.5404552,num_3,0.2,0.9,0.4,1.15,15.2822,43.93633,return,4.2451084,,,,,,703,20,male,left_right_width,2024-05-14_09h36.14.190,exp1,2023.1.0,60.14433428
,,,,,,,,,,,,,,,,5,8.65,9.325,10,10.675,11.35,0.675,0.425,0.25,2.95,10,match,36.05,312,336,361,385,409,9,9,9,9,9,,,,,2,0,2,0,0,1,1,31,,,,num_4,1.0558113,num_4,0.25,0.6,0.15,0.8,5.73083,30.5644,return,2.8026843,,,,,,703,20,male,left_right_width,2024-05-14_09h36.14.190,exp1,2023.1.0,60.14433428
,,,,,,,,,,,,,,,,4,8.95,9.65,10.35,11.05,0,0.7,0.3,0.4,2.5,10,initial,36.05,323,348,373,398,0,9,9,9,9,0,,,,,2,0,2,0,0,2,2,26,,,,num_4,1.111109,num_4,0.45,1,0.3,0.6,11.46165,22.9233,return,3.1257189,,,,,,703,20,male,left_right_width,2024-05-14_09h36.14.190,exp1,2023.1.0,60.14433428
,,,,,,,,,,,,,,,,3,8.2,10,11.8,0,0,1.8,1.4,0.4,4,10,match,36.05,296,361,425,0,0,9,9,9,0,0,,,,,2,0,2,0,0,3,3,51,,,,num_4,1.2416136,num_4,0.4,1,0.2,1.1,7.6411,42.02605,return,3.4316992,,,,,,703,20,male,left_right_width,2024-05-14_09h36.14.190,exp1,2023.1.0,60.14433428
,,,,,,,,,,,,,,,,4,9.1,9.7,10.3,10.9,0,0.6,0.05,0.55,2.35,10,match,36.05,328,350,371,393,0,9,9,9,9,0,,,,,2,0,2,0,0,4,4,12,,,,num_3,1.4630971,num_3,0.55,0.9,0.55,0.6,21.01303,22.9233,return,2.8404937,,,,,,703,20,male,left_right_width,2024-05-14_09h36.14.190,exp1,2023.1.0,60.14433428
,,,,,,,,,,,,,,,,3,9.1,10,10.9,0,0,0.9,0.65,0.25,2.05,10,initial,36.05,328,361,393,0,0,9,9,9,0,0,,,,,2,0,2,0,0,5,5,13,,,,num_2,1.9681308,num_2,0.55,1.4,0.15,1.2,5.73083,45.8466,return,4.7049298,,,,,,703,20,male,left_right_width,2024-05-14_09h36.14.190,exp1,2023.1.0,60.14433428
,,,,,,,,,,,,,,,,4,8.65,9.55,10.45,11.35,0,0.9,0.35,0.55,3.25,10,initial,36.05,312,344,377,409,0,9,9,9,9,0,,,,,2,0,2,0,0,6,6,28,,,,num_4,3.9368407,num_4,0.3,1.2,0.55,0.7,21.01303,26.74385,return,5.4696073,,,,,,703,20,male,left_right_width,2024-05-14_09h36.14.190,exp1,2023.1.0,60.14433428
,,,,,,,,,,,,,,,,5,8.6,9.3,10,10.7,11.4,0.7,0.3,0.4,3.2,10,initial,36.05,310,335,361,386,411,9,9,9,9,9,,,,,2,0,2,0,0,7,7,44,,,,num_5,1.3814355,num_5,0.4,0.8,0.3,0.5,11.46165,19.10275,return,2.4702137,,,,,,703,20,male,left_right_width,2024-05-14_09h36.14.190,exp1,2023.1.0,60.14433428
,,,,,,,,,,,,,,,,3,8.6,10,11.4,0,0,1.4,1.15,0.25,3.05,10,match,36.05,310,361,411,0,0,9,9,9,0,0,,,,,2,0,2,0,0,8,8,43,,,,num_3,1.3253485,num_3,0.45,0.8,0.2,1.5,7.6411,57.30826,return,4.022565,,,,,,703,20,male,left_right_width,2024-05-14_09h36.14.190,exp1,2023.1.0,60.14433428
,,,,,,,,,,,,,,,,3,9.3,10,10.7,0,0,0.7,0.45,0.25,1.65,10,initial,36.05,335,361,386,0,0,9,9,9,0,0,,,,,2,0,2,0,0,9,9,7,,,,num_3,1.097431,num_3,0.55,0.6,0.1,0.9,3.82055,34.38495,return,4.4893748,,,,,,703,20,male,left_right_width,2024-05-14_09h36.14.190,exp1,2023.1.0,60.14433428
,,,,,,,,,,,,,,,,4,9.3,9.766666667,10.23333333,10.7,0,0.466666667,0.066666667,0.4,1.8,10,match,36.05,335,352,369,386,0,9,9,9,9,0,,,,,2,0,2,0,0,10,10,10,,,,num_3,1.0226961,num_3,0.3,0.5,0.45,0.65,17.19248,24.83358,return,7.7306851,,,,,,703,20,male,left_right_width,2024-05-14_09h36.14.190,exp1,2023.1.0,60.14433428
,,,,,,,,,,,,,,,,5,8.65,9.325,10,10.675,11.35,0.675,0.125,0.55,3.25,10,match,36.05,312,336,361,385,409,9,9,9,9,9,,,,,2,0,2,0,0,11,11,29,,,,num_4,1.1459645,num_4,0.4,0.5,0.65,0.8,24.83358,30.5644,return,3.8677643,,,,,,703,20,male,left_right_width,2024-05-14_09h36.14.190,exp1,2023.1.0,60.14433428
,,,,,,,,,,,,,,,,3,8.6,10,11.4,0,0,1.4,0.85,0.55,3.35,10,match,36.05,310,361,411,0,0,9,9,9,0,0,,,,,2,0,2,0,0,12,12,41,,,,num_3,0.9296904,num_3,0.4,0.7,0.55,1.05,21.01303,40.11578,return,3.3060261,,,,,,703,20,male,left_right_width,2024-05-14_09h36.14.190,exp1,2023.1.0,60.14433428
,,,,,,,,,,,,,,,,3,9.1,10,10.9,0,0,0.9,0.35,0.55,2.35,10,initial,36.05,328,361,393,0,0,9,9,9,0,0,,,,,2,0,2,0,0,13,13,11,,,,num_2,1.0325276,num_2,0.4,1.6,0.8,1.3,30.5644,49.66716,return,5.4495329,,,,,,703,20,male,left_right_width,2024-05-14_09h36.14.190,exp1,2023.1.0,60.14433428
,,,,,,,,,,,,,,,,5,8.65,9.325,10,10.675,11.35,0.675,0.275,0.4,3.1,10,match,36.05,312,336,361,385,409,9,9,9,9,9,,,,,2,0,2,0,0,14,14,33,,,,num_4,0.8915947,num_4,0.25,1.1,0.3,0.5,11.46165,19.10275,return,3.5739178,,,,,,703,20,male,left_right_width,2024-05-14_09h36.14.190,exp1,2023.1.0,60.14433428
,,,,,,,,,,,,,,,,5,7.8,8.9,10,11.1,12.2,1.1,0.85,0.25,4.65,10,initial,36.05,281,321,361,400,440,9,9,9,9,9,,,,,2,0,2,0,0,15,15,36,,,,num_4,0.989489,num_4,0.35,0.6,0.2,1.1,7.6411,42.02605,return,8.3904204,,,,,,703,20,male,left_right_width,2024-05-14_09h36.14.190,exp1,2023.1.0,60.14433428
,,,,,,,,,,,,,,,,4,8.35,9.45,10.55,11.65,0,1.1,0.7,0.4,3.7,10,initial,36.05,301,341,380,420,0,9,9,9,9,0,,,,,2,0,2,0,0,16,16,21,,,,num_4,0.9349598,num_4,0.25,1,0.5,1.2,19.10275,45.8466,return,5.3763962,,,,,,703,20,male,left_right_width,2024-05-14_09h36.14.190,exp1,2023.1.0,60.14433428
,,,,,,,,,,,,,,,,4,8.95,9.65,10.35,11.05,0,0.7,0.15,0.55,2.65,10,initial,36.05,323,348,373,398,0,9,9,9,9,0,,,,,2,0,2,0,0,17,17,23,,,,num_3,1.1145116,num_3,0.35,0.8,0.5,0.6,19.10275,22.9233,return,8.5249208,,,,,,703,20,male,left_right_width,2024-05-14_09h36.14.190,exp1,2023.1.0,60.14433428
,,,,,,,,,,,,,,,,3,8.525,10,11.475,0,0,1.475,1.225,0.25,3.2,10,match,36.05,307,361,414,0,0,9,9,9,0,0,,,,,2,0,2,0,0,18,18,45,,,,num_3,0.8471405,num_3,0.5,0.8,0.15,1.25,5.73083,47.75688,return,5.3563878,,,,,,703,20,male,left_right_width,2024-05-14_09h36.14.190,exp1,2023.1.0,60.14433428
,,,,,,,,,,,,,,,,3,9.1,10,10.9,0,0,0.9,0.5,0.4,2.2,10,initial,36.05,328,361,393,0,0,9,9,9,0,0,,,,,2,0,2,0,0,19,19,15,,,,num_3,0.8470101,num_3,0.5,0.7,0.2,1.15,7.6411,43.93633,return,5.0843093,,,,,,703,20,male,left_right_width,2024-05-14_09h36.14.190,exp1,2023.1.0,60.14433428
,,,,,,,,,,,,,,,,5,7.8,8.9,10,11.1,12.2,1.1,0.7,0.4,4.8,10,initial,36.05,281,321,361,400,440,9,9,9,9,9,,,,,2,0,2,0,0,20,20,38,,,,num_5,2.2825949,num_5,0.3,0.4,0.4,1.05,15.2822,40.11578,return,6.1390185,,,,,,703,20,male,left_right_width,2024-05-14_09h36.14.190,exp1,2023.1.0,60.14433428
,,,,,,,,,,,,,,,,3,8.2,10,11.8,0,0,1.8,1.55,0.25,3.85,10,match,36.05,296,361,425,0,0,9,9,9,0,0,,,,,2,0,2,0,0,21,21,49,,,,num_3,0.8797891,num_3,0.2,1.3,0.2,2.1,7.6411,80.23156,return,4.7255332,,,,,,703,20,male,left_right_width,2024-05-14_09h36.14.190,exp1,2023.1.0,60.14433428
,,,,,,,,,,,,,,,,3,7.8,10,12.2,0,0,2.2,1.65,0.55,4.95,10,match,36.05,281,361,440,0,0,9,9,9,0,0,,,,,2,0,2,0,0,22,22,35,,,,num_3,0.8636127,num_3,0.35,0.5,0.85,2.75,32.47468,105.06514,return,11.9950769,,,,,,703,20,male,left_right_width,2024-05-14_09h36.14.190,exp1,2023.1.0,60.14433428
,,,,,,,,,,,,,,,,4,8.95,9.65,10.35,11.05,0,0.7,0.45,0.25,2.35,10,initial,36.05,323,348,373,398,0,9,9,9,9,0,,,,,2,0,2,0,0,23,23,24,,,,num_4,1.1978655,num_4,0.2,0.3,0.15,0.4,5.73083,15.2822,return,5.1962167,,,,,,703,20,male,left_right_width,2024-05-14_09h36.14.190,exp1,2023.1.0,60.14433428
,,,,,,,,,,,,,,,,5,8.95,9.475,10,10.525,11.05,0.525,0.125,0.4,2.5,10,match,36.05,323,342,361,379,398,9,9,9,9,9,,,,,2,0,2,0,0,24,24,27,,,,num_4,0.8907471,num_4,0.3,1.2,0.6,0.8,22.9233,30.5644,return,4.4001602,,,,,,703,20,male,left_right_width,2024-05-14_09h36.14.190,exp1,2023.1.0,60.14433428
,,,,,,,,,,,,,,,,5,7.8,8.9,10,11.1,12.2,1.1,0.55,0.55,4.95,10,initial,36.05,281,321,361,400,440,9,9,9,9,9,,,,,2,0,2,0,0,25,25,34,,,,num_4,1.014205,num_4,0.2,1.3,0.5,1.1,19.10275,42.02605,return,8.0089162,,,,,,703,20,male,left_right_width,2024-05-14_09h36.14.190,exp1,2023.1.0,60.14433428
,,,,,,,,,,,,,,,,4,8.825,9.608333333,10.39166667,11.175,0,0.783333333,0.533333333,0.25,2.6,10,match,36.05,318,346,375,403,0,9,9,9,9,0,,,,,2,0,2,0,0,26,26,5,,,,num_4,0.8675221,num_4,0.35,0.4,0.2,0.6,7.6411,22.9233,return,5.9316344,,,,,,703,20,male,left_right_width,2024-05-14_09h36.14.190,exp1,2023.1.0,60.14433428
,,,,,,,,,,,,,,,,4,8.9,9.633333333,10.36666667,11.1,0,0.733333333,0.183333333,0.55,2.75,10,match,36.05,321,347,374,400,0,9,9,9,9,0,,,,,2,0,2,0,0,27,27,1,,,,num_4,4.5919418,num_4,0.45,1.3,0.5,0.8,19.10275,30.5644,return,6.1184528,,,,,,703,20,male,left_right_width,2024-05-14_09h36.14.190,exp1,2023.1.0,60.14433428
,,,,,,,,,,,,,,,,3,8.9,10,11.1,0,0,1.1,0.7,0.4,2.6,10,initial,36.05,321,361,400,0,0,9,9,9,0,0,,,,,2,0,2,0,0,28,28,4,,,,num_3,1.0403381,num_3,0.35,0.8,0.35,1.5,13.37193,57.30826,return,3.8875558,,,,,,703,20,male,left_right_width,2024-05-14_09h36.14.190,exp1,2023.1.0,60.14433428
,,,,,,,,,,,,,,,,4,9.3,9.766666667,10.23333333,10.7,0,0.466666667,0.216666667,0.25,1.65,10,match,36.05,335,352,369,386,0,9,9,9,9,0,,,,,2,0,2,0,0,29,29,8,,,,num_3,2.0122503,num_3,0.45,0.5,0.2,0.55,7.6411,21.01303,return,5.3154129,,,,,,703,20,male,left_right_width,2024-05-14_09h36.14.190,exp1,2023.1.0,60.14433428
,,,,,,,,,,,,,,,,3,9.3,10,10.7,0,0,0.7,0.3,0.4,1.8,10,initial,36.05,335,361,386,0,0,9,9,9,0,0,,,,,2,0,2,0,0,30,30,9,,,,num_3,1.049477,num_3,0.45,0.6,0.3,0.8,11.46165,30.5644,return,3.5270863,,,,,,703,20,male,left_right_width,2024-05-14_09h36.14.190,exp1,2023.1.0,60.14433428
,,,,,,,,,,,,,,,,3,8.9,10,11.1,0,0,1.1,0.55,0.55,2.75,10,initial,36.05,321,361,400,0,0,9,9,9,0,0,,,,,2,0,2,0,0,31,31,0,,,,num_3,1.091014,num_3,0.55,0.6,0.3,0.85,11.46165,32.47468,return,5.1733609,,,,,,703,20,male,left_right_width,2024-05-14_09h36.14.190,exp1,2023.1.0,60.14433428
,,,,,,,,,,,,,,,,3,7.8,10,12.2,0,0,2.2,1.95,0.25,4.65,10,match,36.05,281,361,440,0,0,9,9,9,0,0,,,,,2,0,2,0,0,32,32,37,,,,num_3,1.4645373,num_3,0.2,1.2,0.2,3.9,7.6411,149.00147,return,11.7237693,,,,,,703,20,male,left_right_width,2024-05-14_09h36.14.190,exp1,2023.1.0,60.14433428
,,,,,,,,,,,,,,,,3,7.8,10,12.2,0,0,2.2,1.8,0.4,4.8,10,match,36.05,281,361,440,0,0,9,9,9,0,0,,,,,2,0,2,0,0,33,33,39,,,,num_3,1.2082477,num_3,0.3,0.4,0.5,4.05,19.10275,154.73229,return,17.730829,,,,,,703,20,male,left_right_width,2024-05-14_09h36.14.190,exp1,2023.1.0,60.14433428
,,,,,,,,,,,,,,,,4,8.65,9.55,10.45,11.35,0,0.9,0.65,0.25,2.95,10,initial,36.05,312,344,377,409,0,9,9,9,9,0,,,,,2,0,2,0,0,34,34,30,,,,num_4,4.4343251,num_4,0.35,1.2,0.25,0.8,9.55138,30.5644,return,6.2022152,,,,,,703,20,male,left_right_width,2024-05-14_09h36.14.190,exp1,2023.1.0,60.14433428
,,,,,,,,,,,,,,,,3,8.9,10,11.1,0,0,1.1,0.85,0.25,2.45,10,initial,36.05,321,361,400,0,0,9,9,9,0,0,,,,,2,0,2,0,0,35,35,2,,,,num_3,1.483117,num_3,0.5,0.8,0.25,1.25,9.55138,47.75688,return,6.0794833,,,,,,703,20,male,left_right_width,2024-05-14_09h36.14.190,exp1,2023.1.0,60.14433428
,,,,,,,,,,,,,,,,5,8.6,9.3,10,10.7,11.4,0.7,0.45,0.25,3.05,10,initial,36.05,310,335,361,386,411,9,9,9,9,9,,,,,2,0,2,0,0,36,36,42,,,,num_5,1.4070662,num_5,0.5,1.3,0.25,0.55,9.55138,21.01303,return,5.2486813,,,,,,703,20,male,left_right_width,2024-05-14_09h36.14.190,exp1,2023.1.0,60.14433428
,,,,,,,,,,,,,,,,5,8.2,9.1,10,10.9,11.8,0.9,0.65,0.25,3.85,10,initial,36.05,296,328,361,393,425,9,9,9,9,9,,,,,2,0,2,0,0,37,37,48,,,,num_5,1.1314349,num_5,0.4,0.8,0.1,0.55,3.82055,21.01303,return,8.1333261,,,,,,703,20,male,left_right_width,2024-05-14_09h36.14.190,exp1,2023.1.0,60.14433428
,,,,,,,,,,,,,,,,5,8.6,9.3,10,10.7,11.4,0.7,0.15,0.55,3.35,10,initial,36.05,310,335,361,386,411,9,9,9,9,9,,,,,2,0,2,0,0,38,38,40,,,,num_4,1.3354632,num_4,0.45,1,0.9,1.1,34.38495,42.02605,return,5.5450033,,,,,,703,20,male,left_right_width,2024-05-14_09h36.14.190,exp1,2023.1.0,60.14433428
,,,,,,,,,,,,,,,,3,8.2,10,11.8,0,0,1.8,1.25,0.55,4.15,10,match,36.05,296,361,425,0,0,9,9,9,0,0,,,,,2,0,2,0,0,39,39,47,,,,num_3,1.8527054,num_3,0.2,0.9,0.65,1.85,24.83358,70.68018,return,7.7436247,,,,,,703,20,male,left_right_width,2024-05-14_09h36.14.190,exp1,2023.1.0,60.14433428
,,,,,,,,,,,,,,,,5,8.35,9.175,10,10.825,11.65,0.825,0.275,0.55,3.85,10,match,36.05,301,331,361,390,420,9,9,9,9,9,,,,,2,0,2,0,0,40,40,18,,,,num_4,0.8655665,num_4,0.3,0.9,0.7,1,26.74385,38.2055,return,6.4209879,,,,,,703,20,male,left_right_width,2024-05-14_09h36.14.190,exp1,2023.1.0,60.14433428
,,,,,,,,,,,,,,,,5,8.2,9.1,10,10.9,11.8,0.9,0.35,0.55,4.15,10,initial,36.05,296,328,361,393,425,9,9,9,9,9,,,,,2,0,2,0,0,41,41,46,,,,num_4,1.4053323,num_4,0.25,1,0.5,1.3,19.10275,49.66716,return,20.5445481,,,,,,703,20,male,left_right_width,2024-05-14_09h36.14.190,exp1,2023.1.0,60.14433428
,,,,,,,,,,,,,,,,3,9.3,10,10.7,0,0,0.7,0.15,0.55,1.95,10,initial,36.05,335,361,386,0,0,9,9,9,0,0,,,,,2,0,2,0,0,42,42,6,,,,num_3,1.2379986,num_3,0.35,0.9,0.55,0.65,21.01303,24.83358,return,6.1449391,,,,,,703,20,male,left_right_width,2024-05-14_09h36.14.190,exp1,2023.1.0,60.14433428
,,,,,,,,,,,,,,,,5,8.35,9.175,10,10.825,11.65,0.825,0.575,0.25,3.55,10,match,36.05,301,331,361,390,420,9,9,9,9,9,,,,,2,0,2,0,0,43,43,20,,,,num_4,0.9750464,num_4,0.45,0.6,0.1,1.6,3.82055,61.12881,return,7.1584395,,,,,,703,20,male,left_right_width,2024-05-14_09h36.14.190,exp1,2023.1.0,60.14433428
,,,,,,,,,,,,,,,,4,9.1,9.7,10.3,10.9,0,0.6,0.35,0.25,2.05,10,match,36.05,328,350,371,393,0,9,9,9,9,0,,,,,2,0,2,0,0,44,44,14,,,,num_4,3.0603101,num_4,0.35,1.1,0.15,0.5,5.73083,19.10275,return,4.2759091,,,,,,703,20,male,left_right_width,2024-05-14_09h36.14.190,exp1,2023.1.0,60.14433428
,,,,,,,,,,,,,,,,4,8.65,9.55,10.45,11.35,0,0.9,0.5,0.4,3.1,10,initial,36.05,312,344,377,409,0,9,9,9,9,0,,,,,2,0,2,0,0,45,45,32,,,,num_4,0.8642756,num_4,0.45,0.6,0.4,1.1,15.2822,42.02605,return,7.299739,,,,,,703,20,male,left_right_width,2024-05-14_09h36.14.190,exp1,2023.1.0,60.14433428
,,,,,,,,,,,,,,,,5,8.95,9.475,10,10.525,11.05,0.525,0.275,0.25,2.35,10,match,36.05,323,342,361,379,398,9,9,9,9,9,,,,,2,0,2,0,0,46,46,25,,,,num_4,1.6041834,num_4,0.25,0.9,0.35,0.5,13.37193,19.10275,return,4.1891592,,,,,,703,20,male,left_right_width,2024-05-14_09h36.14.190,exp1,2023.1.0,60.14433428
,,,,,,,,,,,,,,,,4,9.1,9.7,10.3,10.9,0,0.6,0.2,0.4,2.2,10,match,36.05,328,350,371,393,0,9,9,9,9,0,,,,,2,0,2,0,0,47,47,16,,,,num_4,1.4617969,num_4,0.3,0.8,0.45,0.6,17.19248,22.9233,return,8.2183232,,,,,,703,20,male,left_right_width,2024-05-14_09h36.14.190,exp1,2023.1.0,60.14433428
,,,,,,,,,,,,,,,,4,8.9,9.633333333,10.36666667,11.1,0,0.733333333,0.483333333,0.25,2.45,10,match,36.05,321,347,374,400,0,9,9,9,9,0,,,,,2,0,2,0,0,48,48,3,,,,num_4,1.041695,num_4,0.3,0.3,0.15,1,5.73083,38.2055,return,7.8479066,,,,,,703,20,male,left_right_width,2024-05-14_09h36.14.190,exp1,2023.1.0,60.14433428
,,,,,,,,,,,,,,,,5,8.275,9.1375,10,10.8625,11.725,0.8625,0.6125,0.25,3.7,10,match,36.05,298,329,361,392,423,9,9,9,9,9,,,,,2,0,2,0,0,49,49,22,,,,num_4,0.7314648,num_4,0.4,0.7,0.15,1.2,5.73083,45.8466,return,4.6916964,,,,,,703,20,male,left_right_width,2024-05-14_09h36.14.190,exp1,2023.1.0,60.14433428
,,,,,,,,,,,,,,,,5,8.2,9.1,10,10.9,11.8,0.9,0.5,0.4,4,10,initial,36.05,296,328,361,393,425,9,9,9,9,9,,,,,2,0,2,0,0,50,50,50,,,,num_5,1.0922358,num_5,0.55,1.1,0.15,1.2,5.73083,45.8466,return,5.2845069,,,,,,703,20,male,left_right_width,2024-05-14_09h36.14.190,exp1,2023.1.0,60.14433428
,,,,,,,,,,,,,,,,4,8.35,9.45,10.55,11.65,0,1.1,0.85,0.25,3.55,10,initial,36.05,301,341,380,420,0,9,9,9,9,0,,,,,2,0,2,0,0,51,51,19,,,,num_5,1.3660876,num_5,0.3,0.5,0.15,1.05,5.73083,40.11578,return,4.8774915,,,,,,703,20,male,left_right_width,2024-05-14_09h36.14.190,exp1,2023.1.0,60.14433428
,,,,,,,,,,,,,,,,,,,,,,,,,,,,,,,,,,,,,,,,,,,2,0,2,0,,,,,,,,,,,,,,,,,,,,,2661.246918,2661.246918,2661.246918,703,20,male,left_right_width,2024-05-14_09h36.14.190,exp1,2023.1.0,60.14433428
,,,,,,,,,,,,,,,,3,7.8,10,12.2,0,0,2.2,1.8,0.4,4.8,10,match,36.05,281,361,440,0,0,9,9,9,0,0,,,,,3,0,3,0,0,0,0,39,,,,num_4,2.6167476,num_4,0.25,1.2,0.45,1,17.19248,38.2055,return,5.4981438,,,,,,703,20,male,left_right_width,2024-05-14_09h36.14.190,exp1,2023.1.0,60.14433428
,,,,,,,,,,,,,,,,4,9.1,9.7,10.3,10.9,0,0.6,0.2,0.4,2.2,10,match,36.05,328,350,371,393,0,9,9,9,9,0,,,,,3,0,3,0,0,1,1,16,,,,num_3,1.3707345,num_3,0.2,0.7,0.5,0.65,19.10275,24.83358,return,3.5707237,,,,,,703,20,male,left_right_width,2024-05-14_09h36.14.190,exp1,2023.1.0,60.14433428
,,,,,,,,,,,,,,,,5,8.65,9.325,10,10.675,11.35,0.675,0.125,0.55,3.25,10,match,36.05,312,336,361,385,409,9,9,9,9,9,,,,,3,0,3,0,0,2,2,29,,,,num_4,0.9767099,num_4,0.45,0.7,0.6,0.7,22.9233,26.74385,return,5.7494109,,,,,,703,20,male,left_right_width,2024-05-14_09h36.14.190,exp1,2023.1.0,60.14433428
,,,,,,,,,,,,,,,,4,8.95,9.65,10.35,11.05,0,0.7,0.15,0.55,2.65,10,initial,36.05,323,348,373,398,0,9,9,9,9,0,,,,,3,0,3,0,0,3,3,23,,,,num_4,1.7159771,num_4,0.3,0.8,0.4,0.5,15.2822,19.10275,return,23.4224819,,,,,,703,20,male,left_right_width,2024-05-14_09h36.14.190,exp1,2023.1.0,60.14433428
,,,,,,,,,,,,,,,,3,9.1,10,10.9,0,0,0.9,0.35,0.55,2.35,10,initial,36.05,328,361,393,0,0,9,9,9,0,0,,,,,3,0,3,0,0,4,4,11,,,,num_3,7.0942504,num_3,0.25,0.8,0.25,0.6,9.55138,22.9233,return,2.7103638,,,,,,703,20,male,left_right_width,2024-05-14_09h36.14.190,exp1,2023.1.0,60.14433428
,,,,,,,,,,,,,,,,4,8.9,9.633333333,10.36666667,11.1,0,0.733333333,0.183333333,0.55,2.75,10,match,36.05,321,347,374,400,0,9,9,9,9,0,,,,,3,0,3,0,0,5,5,1,,,,num_3,1.17364,num_3,0.3,0.6,0.6,1,22.9233,38.2055,return,4.9403218,,,,,,703,20,male,left_right_width,2024-05-14_09h36.14.190,exp1,2023.1.0,60.14433428
,,,,,,,,,,,,,,,,3,9.1,10,10.9,0,0,0.9,0.65,0.25,2.05,10,initial,36.05,328,361,393,0,0,9,9,9,0,0,,,,,3,0,3,0,0,6,6,13,,,,num_3,1.207109,num_3,0.3,0.6,0.2,0.9,7.6411,34.38495,return,3.5095475,,,,,,703,20,male,left_right_width,2024-05-14_09h36.14.190,exp1,2023.1.0,60.14433428
,,,,,,,,,,,,,,,,4,9.1,9.7,10.3,10.9,0,0.6,0.05,0.55,2.35,10,match,36.05,328,350,371,393,0,9,9,9,9,0,,,,,3,0,3,0,0,7,7,12,,,,num_2,1.8976259,num_2,0.25,0.6,1.1,1.2,42.02605,45.8466,return,7.7409346,,,,,,703,20,male,left_right_width,2024-05-14_09h36.14.190,exp1,2023.1.0,60.14433428
,,,,,,,,,,,,,,,,5,8.65,9.325,10,10.675,11.35,0.675,0.275,0.4,3.1,10,match,36.05,312,336,361,385,409,9,9,9,9,9,,,,,3,0,3,0,0,8,8,33,,,,num_4,1.1344393,num_4,0.2,0.6,0.35,0.5,13.37193,19.10275,return,5.416604,,,,,,703,20,male,left_right_width,2024-05-14_09h36.14.190,exp1,2023.1.0,60.14433428
,,,,,,,,,,,,,,,,5,8.35,9.175,10,10.825,11.65,0.825,0.275,0.55,3.85,10,match,36.05,301,331,361,390,420,9,9,9,9,9,,,,,3,0,3,0,0,9,9,18,,,,num_5,1.0848233,num_5,0.55,0.8,0.6,0.8,22.9233,30.5644,return,4.1853686,,,,,,703,20,male,left_right_width,2024-05-14_09h36.14.190,exp1,2023.1.0,60.14433428
,,,,,,,,,,,,,,,,3,8.2,10,11.8,0,0,1.8,1.55,0.25,3.85,10,match,36.05,296,361,425,0,0,9,9,9,0,0,,,,,3,0,3,0,0,10,10,49,,,,num_3,1.2641085,num_3,0.5,0.9,0.15,1.1,5.73083,42.02605,return,4.3276693,,,,,,703,20,male,left_right_width,2024-05-14_09h36.14.190,exp1,2023.1.0,60.14433428
,,,,,,,,,,,,,,,,5,8.2,9.1,10,10.9,11.8,0.9,0.65,0.25,3.85,10,initial,36.05,296,328,361,393,425,9,9,9,9,9,,,,,3,0,3,0,0,11,11,48,,,,num_4,1.2871011,num_4,0.2,1.1,0.2,1.1,7.6411,42.02605,return,1.0853535,,,,,,703,20,male,left_right_width,2024-05-14_09h36.14.190,exp1,2023.1.0,60.14433428
,,,,,,,,,,,,,,,,4,8.825,9.608333333,10.39166667,11.175,0,0.783333333,0.533333333,0.25,2.6,10,match,36.05,318,346,375,403,0,9,9,9,9,0,,,,,3,0,3,0,0,12,12,5,,,,num_4,1.7039116,num_4,0.25,0.5,0.15,0.8,5.73083,30.5644,return,3.3305001,,,,,,703,20,male,left_right_width,2024-05-14_09h36.14.190,exp1,2023.1.0,60.14433428
,,,,,,,,,,,,,,,,4,8.95,9.65,10.35,11.05,0,0.7,0.3,0.4,2.5,10,initial,36.05,323,348,373,398,0,9,9,9,9,0,,,,,3,0,3,0,0,13,13,26,,,,num_4,0.9427124,num_4,0.3,0.3,0.4,0.8,15.2822,30.5644,return,3.6368015,,,,,,703,20,male,left_right_width,2024-05-14_09h36.14.190,exp1,2023.1.0,60.14433428
,,,,,,,,,,,,,,,,5,7.8,8.9,10,11.1,12.2,1.1,0.55,0.55,4.95,10,initial,36.05,281,321,361,400,440,9,9,9,9,9,,,,,3,0,3,0,0,14,14,34,,,,num_6,1.459063,num_6,0.3,0.6,0.45,0.8,17.19248,30.5644,return,3.1705753,,,,,,703,20,male,left_right_width,2024-05-14_09h36.14.190,exp1,2023.1.0,60.14433428
,,,,,,,,,,,,,,,,5,8.6,9.3,10,10.7,11.4,0.7,0.15,0.55,3.35,10,initial,36.05,310,335,361,386,411,9,9,9,9,9,,,,,3,0,3,0,0,15,15,40,,,,num_5,1.0340418,num_5,0.35,0.4,0.4,0.75,15.2822,28.65413,return,6.8142411,,,,,,703,20,male,left_right_width,2024-05-14_09h36.14.190,exp1,2023.1.0,60.14433428
,,,,,,,,,,,,,,,,3,8.6,10,11.4,0,0,1.4,1.15,0.25,3.05,10,match,36.05,310,361,411,0,0,9,9,9,0,0,,,,,3,0,3,0,0,16,16,43,,,,num_4,2.4703873,num_4,0.5,1,0.1,1.5,3.82055,57.30826,return,3.7137528,,,,,,703,20,male,left_right_width,2024-05-14_09h36.14.190,exp1,2023.1.0,60.14433428
,,,,,,,,,,,,,,,,3,8.2,10,11.8,0,0,1.8,1.25,0.55,4.15,10,match,36.05,296,361,425,0,0,9,9,9,0,0,,,,,3,0,3,0,0,17,17,47,,,,num_3,0.9485601,num_3,0.35,0.7,0.8,1.45,30.5644,55.39798,return,6.4455367,,,,,,703,20,male,left_right_width,2024-05-14_09h36.14.190,exp1,2023.1.0,60.14433428
,,,,,,,,,,,,,,,,4,8.65,9.55,10.45,11.35,0,0.9,0.5,0.4,3.1,10,initial,36.05,312,344,377,409,0,9,9,9,9,0,,,,,3,0,3,0,0,18,18,32,,,,num_4,1.0393882,num_4,0.2,0.7,0.5,1.2,19.10275,45.8466,return,5.6010466,,,,,,703,20,male,left_right_width,2024-05-14_09h36.14.190,exp1,2023.1.0,60.14433428
,,,,,,,,,,,,,,,,3,7.8,10,12.2,0,0,2.2,1.95,0.25,4.65,10,match,36.05,281,361,440,0,0,9,9,9,0,0,,,,,3,0,3,0,0,19,19,37,,,,num_3,0.870143,num_3,0.35,1.1,0.15,2.15,5.73083,82.14183,return,5.9001188,,,,,,703,20,male,left_right_width,2024-05-14_09h36.14.190,exp1,2023.1.0,60.14433428
,,,,,,,,,,,,,,,,3,8.6,10,11.4,0,0,1.4,0.85,0.55,3.35,10,match,36.05,310,361,411,0,0,9,9,9,0,0,,,,,3,0,3,0,0,20,20,41,,,,num_4,0.9695765,num_4,0.45,1.1,0.3,1.4,11.46165,53.48771,return,4.9252058,,,,,,703,20,male,left_right_width,2024-05-14_09h36.14.190,exp1,2023.1.0,60.14433428
,,,,,,,,,,,,,,,,5,8.6,9.3,10,10.7,11.4,0.7,0.3,0.4,3.2,10,initial,36.05,310,335,361,386,411,9,9,9,9,9,,,,,3,0,3,0,0,21,21,44,,,,num_4,1.3904919,num_4,0.3,1,0.45,0.6,17.19248,22.9233,return,7.9529488,,,,,,703,20,male,left_right_width,2024-05-14_09h36.14.190,exp1,2023.1.0,60.14433428
,,,,,,,,,,,,,,,,4,8.35,9.45,10.55,11.65,0,1.1,0.85,0.25,3.55,10,initial,36.05,301,341,380,420,0,9,9,9,9,0,,,,,3,0,3,0,0,22,22,19,,,,num_4,1.6195047,num_4,0.45,0.6,0.1,1.1,3.82055,42.02605,return,3.6011847,,,,,,703,20,male,left_right_width,2024-05-14_09h36.14.190,exp1,2023.1.0,60.14433428
,,,,,,,,,,,,,,,,5,8.2,9.1,10,10.9,11.8,0.9,0.5,0.4,4,10,initial,36.05,296,328,361,393,425,9,9,9,9,9,,,,,3,0,3,0,0,23,23,50,,,,num_4,1.2201354,num_4,0.4,0.9,0.5,1.3,19.10275,49.66716,return,2.9158599,,,,,,703,20,male,left_right_width,2024-05-14_09h36.14.190,exp1,2023.1.0,60.14433428
,,,,,,,,,,,,,,,,3,9.3,10,10.7,0,0,0.7,0.45,0.25,1.65,10,initial,36.05,335,361,386,0,0,9,9,9,0,0,,,,,3,0,3,0,0,24,24,7,,,,num_3,1.0511826,num_3,0.35,1.1,0.2,0.8,7.6411,30.5644,return,4.0768298,,,,,,703,20,male,left_right_width,2024-05-14_09h36.14.190,exp1,2023.1.0,60.14433428
,,,,,,,,,,,,,,,,4,9.3,9.766666667,10.23333333,10.7,0,0.466666667,0.216666667,0.25,1.65,10,match,36.05,335,352,369,386,0,9,9,9,9,0,,,,,3,0,3,0,0,25,25,8,,,,num_3,1.1660575,num_3,0.4,1.1,0.2,0.65,7.6411,24.83358,return,4.5051066,,,,,,703,20,male,left_right_width,2024-05-14_09h36.14.190,exp1,2023.1.0,60.14433428
,,,,,,,,,,,,,,,,4,8.65,9.55,10.45,11.35,0,0.9,0.65,0.25,2.95,10,initial,36.05,312,344,377,409,0,9,9,9,9,0,,,,,3,0,3,0,0,26,26,30,,,,num_4,1.6142824,num_4,0.45,0.7,0.25,0.5,9.55138,19.10275,return,7.0969494,,,,,,703,20,male,left_right_width,2024-05-14_09h36.14.190,exp1,2023.1.0,60.14433428
,,,,,,,,,,,,,,,,5,8.2,9.1,10,10.9,11.8,0.9,0.35,0.55,4.15,10,initial,36.05,296,328,361,393,425,9,9,9,9,9,,,,,3,0,3,0,0,27,27,46,,,,num_4,1.6089498,num_4,0.35,1,0.7,1.1,26.74385,42.02605,return,6.0694024,,,,,,703,20,male,left_right_width,2024-05-14_09h36.14.190,exp1,2023.1.0,60.14433428
,,,,,,,,,,,,,,,,3,8.9,10,11.1,0,0,1.1,0.85,0.25,2.45,10,initial,36.05,321,361,400,0,0,9,9,9,0,0,,,,,3,0,3,0,0,28,28,2,,,,num_2,1.6468868,num_2,0.2,1,0.2,3.6,7.6411,137.53981,return,5.803826,,,,,,703,20,male,left_right_width,2024-05-14_09h36.14.190,exp1,2023.1.0,60.14433428
,,,,,,,,,,,,,,,,3,8.525,10,11.475,0,0,1.475,1.225,0.25,3.2,10,match,36.05,307,361,414,0,0,9,9,9,0,0,,,,,3,0,3,0,0,29,29,45,,,,num_2,1.0851325,num_2,0.55,1,0.15,2.8,5.73083,106.97541,return,6.0601678,,,,,,703,20,male,left_right_width,2024-05-14_09h36.14.190,exp1,2023.1.0,60.14433428
,,,,,,,,,,,,,,,,4,9.3,9.766666667,10.23333333,10.7,0,0.466666667,0.066666667,0.4,1.8,10,match,36.05,335,352,369,386,0,9,9,9,9,0,,,,,3,0,3,0,0,30,30,10,,,,num_2,1.7863253,num_2,0.4,0.8,0.6,0.8,22.9233,30.5644,return,10.4610914,,,,,,703,20,male,left_right_width,2024-05-14_09h36.14.190,exp1,2023.1.0,60.14433428
,,,,,,,,,,,,,,,,5,8.65,9.325,10,10.675,11.35,0.675,0.425,0.25,2.95,10,match,36.05,312,336,361,385,409,9,9,9,9,9,,,,,3,0,3,0,0,31,31,31,,,,num_5,0.9632202,num_5,0.25,1.3,0.2,0.65,7.6411,24.83358,return,7.4465854,,,,,,703,20,male,left_right_width,2024-05-14_09h36.14.190,exp1,2023.1.0,60.14433428
,,,,,,,,,,,,,,,,5,8.95,9.475,10,10.525,11.05,0.525,0.125,0.4,2.5,10,match,36.05,323,342,361,379,398,9,9,9,9,9,,,,,3,0,3,0,0,32,32,27,,,,num_4,1.0130976,num_4,0.3,0.9,0.45,0.6,17.19248,22.9233,return,2.2313729,,,,,,703,20,male,left_right_width,2024-05-14_09h36.14.190,exp1,2023.1.0,60.14433428
,,,,,,,,,,,,,,,,4,8.65,9.55,10.45,11.35,0,0.9,0.35,0.55,3.25,10,initial,36.05,312,344,377,409,0,9,9,9,9,0,,,,,3,0,3,0,0,33,33,28,,,,num_4,1.1562549,num_4,0.3,1.3,0.5,0.8,19.10275,30.5644,return,3.6208687,,,,,,703,20,male,left_right_width,2024-05-14_09h36.14.190,exp1,2023.1.0,60.14433428
,,,,,,,,,,,,,,,,4,8.35,9.45,10.55,11.65,0,1.1,0.55,0.55,3.85,10,initial,36.05,301,341,380,420,0,9,9,9,9,0,,,,,3,0,3,0,0,34,34,17,,,,num_4,1.0457354,num_4,0.25,0.9,0.7,0.9,26.74385,34.38495,return,3.1083885,,,,,,703,20,male,left_right_width,2024-05-14_09h36.14.190,exp1,2023.1.0,60.14433428
,,,,,,,,,,,,,,,,3,9.1,10,10.9,0,0,0.9,0.5,0.4,2.2,10,initial,36.05,328,361,393,0,0,9,9,9,0,0,,,,,3,0,3,0,0,35,35,15,,,,num_3,1.0621909,num_3,0.35,1.3,0.6,1,22.9233,38.2055,return,3.220287,,,,,,703,20,male,left_right_width,2024-05-14_09h36.14.190,exp1,2023.1.0,60.14433428
,,,,,,,,,,,,,,,,3,9.3,10,10.7,0,0,0.7,0.15,0.55,1.95,10,initial,36.05,335,361,386,0,0,9,9,9,0,0,,,,,3,0,3,0,0,36,36,6,,,,num_2,0.9826539,num_2,0.55,1.2,0.85,1,32.47468,38.2055,return,6.8904651,,,,,,703,20,male,left_right_width,2024-05-14_09h36.14.190,exp1,2023.1.0,60.14433428
,,,,,,,,,,,,,,,,4,8.9,9.633333333,10.36666667,11.1,0,0.733333333,0.483333333,0.25,2.45,10,match,36.05,321,347,374,400,0,9,9,9,9,0,,,,,3,0,3,0,0,37,37,3,,,,num_3,1.2764792,num_3,0.4,1,0.1,0.85,3.82055,32.47468,return,2.9997799,,,,,,703,20,male,left_right_width,2024-05-14_09h36.14.190,exp1,2023.1.0,60.14433428
,,,,,,,,,,,,,,,,3,9.3,10,10.7,0,0,0.7,0.3,0.4,1.8,10,initial,36.05,335,361,386,0,0,9,9,9,0,0,,,,,3,0,3,0,0,38,38,9,,,,num_3,1.3621573,num_3,0.2,0.9,0.5,0.6,19.10275,22.9233,return,5.1758019,,,,,,703,20,male,left_right_width,2024-05-14_09h36.14.190,exp1,2023.1.0,60.14433428
,,,,,,,,,,,,,,,,5,8.6,9.3,10,10.7,11.4,0.7,0.45,0.25,3.05,10,initial,36.05,310,335,361,386,411,9,9,9,9,9,,,,,3,0,3,0,0,39,39,42,,,,num_4,0.9102428,num_4,0.3,0.3,0.1,0.7,3.82055,26.74385,return,3.5559424,,,,,,703,20,male,left_right_width,2024-05-14_09h36.14.190,exp1,2023.1.0,60.14433428
,,,,,,,,,,,,,,,,4,9.1,9.7,10.3,10.9,0,0.6,0.35,0.25,2.05,10,match,36.05,328,350,371,393,0,9,9,9,9,0,,,,,3,0,3,0,0,40,40,14,,,,num_4,0.9555743,num_4,0.5,0.6,0.1,0.9,3.82055,34.38495,return,4.9899799,,,,,,703,20,male,left_right_width,2024-05-14_09h36.14.190,exp1,2023.1.0,60.14433428
,,,,,,,,,,,,,,,,4,8.35,9.45,10.55,11.65,0,1.1,0.7,0.4,3.7,10,initial,36.05,301,341,380,420,0,9,9,9,9,0,,,,,3,0,3,0,0,41,41,21,,,,num_4,0.9411885,num_4,0.4,0.9,0.4,1.6,15.2822,61.12881,return,2.4061965,,,,,,703,20,male,left_right_width,2024-05-14_09h36.14.190,exp1,2023.1.0,60.14433428
,,,,,,,,,,,,,,,,3,7.8,10,12.2,0,0,2.2,1.65,0.55,4.95,10,match,36.05,281,361,440,0,0,9,9,9,0,0,,,,,3,0,3,0,0,42,42,35,,,,num_3,1.679411,num_3,0.2,0.7,0.45,2.55,17.19248,97.42404,return,8.4424452,,,,,,703,20,male,left_right_width,2024-05-14_09h36.14.190,exp1,2023.1.0,60.14433428
,,,,,,,,,,,,,,,,5,8.95,9.475,10,10.525,11.05,0.525,0.275,0.25,2.35,10,match,36.05,323,342,361,379,398,9,9,9,9,9,,,,,3,0,3,0,0,43,43,25,,,,num_4,1.2508072,num_4,0.35,1,0.35,0.7,13.37193,26.74385,return,7.6112426,,,,,,703,20,male,left_right_width,2024-05-14_09h36.14.190,exp1,2023.1.0,60.14433428
,,,,,,,,,,,,,,,,5,7.8,8.9,10,11.1,12.2,1.1,0.7,0.4,4.8,10,initial,36.05,281,321,361,400,440,9,9,9,9,9,,,,,3,0,3,0,0,44,44,38,,,,num_5,1.0258081,num_5,0.25,1.3,0.35,0.9,13.37193,34.38495,return,3.0608145,,,,,,703,20,male,left_right_width,2024-05-14_09h36.14.190,exp1,2023.1.0,60.14433428
,,,,,,,,,,,,,,,,5,7.8,8.9,10,11.1,12.2,1.1,0.85,0.25,4.65,10,initial,36.05,281,321,361,400,440,9,9,9,9,9,,,,,3,0,3,0,0,45,45,36,,,,num_5,0.9428893,num_5,0.2,0.4,0.15,1.1,5.73083,42.02605,return,7.0960534,,,,,,703,20,male,left_right_width,2024-05-14_09h36.14.190,exp1,2023.1.0,60.14433428
,,,,,,,,,,,,,,,,5,8.35,9.175,10,10.825,11.65,0.825,0.575,0.25,3.55,10,match,36.05,301,331,361,390,420,9,9,9,9,9,,,,,3,0,3,0,0,46,46,20,,,,num_5,1.0206371,num_5,0.3,0.6,0.15,0.95,5.73083,36.29523,return,4.0749138,,,,,,703,20,male,left_right_width,2024-05-14_09h36.14.190,exp1,2023.1.0,60.14433428
,,,,,,,,,,,,,,,,3,8.9,10,11.1,0,0,1.1,0.7,0.4,2.6,10,initial,36.05,321,361,400,0,0,9,9,9,0,0,,,,,3,0,3,0,0,47,47,4,,,,num_3,0.8895851,num_3,0.3,1.2,0.45,1.05,17.19248,40.11578,return,3.8712429,,,,,,703,20,male,left_right_width,2024-05-14_09h36.14.190,exp1,2023.1.0,60.14433428
,,,,,,,,,,,,,,,,3,8.9,10,11.1,0,0,1.1,0.55,0.55,2.75,10,initial,36.05,321,361,400,0,0,9,9,9,0,0,,,,,3,0,3,0,0,48,48,0,,,,num_3,0.7542692,num_3,0.5,0.9,0.5,1.3,19.10275,49.66716,return,2.6554991,,,,,,703,20,male,left_right_width,2024-05-14_09h36.14.190,exp1,2023.1.0,60.14433428
,,,,,,,,,,,,,,,,5,8.275,9.1375,10,10.8625,11.725,0.8625,0.6125,0.25,3.7,10,match,36.05,298,329,361,392,423,9,9,9,9,9,,,,,3,0,3,0,0,49,49,22,,,,num_4,0.9564215,num_4,0.3,1.3,0.15,0.7,5.73083,26.74385,return,2.8610874,,,,,,703,20,male,left_right_width,2024-05-14_09h36.14.190,exp1,2023.1.0,60.14433428
,,,,,,,,,,,,,,,,3,8.2,10,11.8,0,0,1.8,1.4,0.4,4,10,match,36.05,296,361,425,0,0,9,9,9,0,0,,,,,3,0,3,0,0,50,50,51,,,,num_3,1.0608995,num_3,0.55,1.1,0.3,1.85,11.46165,70.68018,return,4.7941679,,,,,,703,20,male,left_right_width,2024-05-14_09h36.14.190,exp1,2023.1.0,60.14433428
,,,,,,,,,,,,,,,,4,8.95,9.65,10.35,11.05,0,0.7,0.45,0.25,2.35,10,initial,36.05,323,348,373,398,0,9,9,9,9,0,,,,,3,0,3,0,0,51,51,24,,,,num_3,1.0828516,num_3,0.35,0.5,0.15,1.6,5.73083,61.12881,return,5.407215,,,,,,703,20,male,left_right_width,2024-05-14_09h36.14.190,exp1,2023.1.0,60.14433428
,,,,,,,,,,,,,,,,,,,,,,,,,,,,,,,,,,,,,,,,,,,3,0,3,0,,,,,,,,,,,,,,,,,,,,,3088.146158,3088.146158,3088.146158,703,20,male,left_right_width,2024-05-14_09h36.14.190,exp1,2023.1.0,60.14433428
,,,,,,,,,,,,,,,,4,8.65,9.55,10.45,11.35,0,0.9,0.65,0.25,2.95,10,initial,36.05,312,344,377,409,0,9,9,9,9,0,,,,,4,0,4,0,0,0,0,30,,,,num_4,2.4290881,num_4,0.4,0.7,0.2,1,7.6411,38.2055,return,3.2671021,,,,,,703,20,male,left_right_width,2024-05-14_09h36.14.190,exp1,2023.1.0,60.14433428
,,,,,,,,,,,,,,,,3,7.8,10,12.2,0,0,2.2,1.95,0.25,4.65,10,match,36.05,281,361,440,0,0,9,9,9,0,0,,,,,4,0,4,0,0,1,1,37,,,,num_3,0.8964954,num_3,0.55,0.7,0.2,1.9,7.6411,72.59046,return,7.7550455,,,,,,703,20,male,left_right_width,2024-05-14_09h36.14.190,exp1,2023.1.0,60.14433428
,,,,,,,,,,,,,,,,5,8.65,9.325,10,10.675,11.35,0.675,0.275,0.4,3.1,10,match,36.05,312,336,361,385,409,9,9,9,9,9,,,,,4,0,4,0,0,2,2,33,,,,num_4,0.8084499,num_4,0.35,1.1,0.6,0.9,22.9233,34.38495,return,7.6067641,,,,,,703,20,male,left_right_width,2024-05-14_09h36.14.190,exp1,2023.1.0,60.14433428
,,,,,,,,,,,,,,,,3,8.2,10,11.8,0,0,1.8,1.4,0.4,4,10,match,36.05,296,361,425,0,0,9,9,9,0,0,,,,,4,0,4,0,0,3,3,51,,,,num_3,0.9260492,num_3,0.5,1.3,0.3,1.65,11.46165,63.03908,return,3.9595186,,,,,,703,20,male,left_right_width,2024-05-14_09h36.14.190,exp1,2023.1.0,60.14433428
,,,,,,,,,,,,,,,,4,9.3,9.766666667,10.23333333,10.7,0,0.466666667,0.216666667,0.25,1.65,10,match,36.05,335,352,369,386,0,9,9,9,9,0,,,,,4,0,4,0,0,4,4,8,,,,num_3,1.6701427,num_3,0.55,0.7,0.3,0.55,11.46165,21.01303,return,3.2828613,,,,,,703,20,male,left_right_width,2024-05-14_09h36.14.190,exp1,2023.1.0,60.14433428
,,,,,,,,,,,,,,,,4,8.65,9.55,10.45,11.35,0,0.9,0.35,0.55,3.25,10,initial,36.05,312,344,377,409,0,9,9,9,9,0,,,,,4,0,4,0,0,5,5,28,,,,num_3,0.995155,num_3,0.2,0.6,0.4,0.85,15.2822,32.47468,return,8.6494218,,,,,,703,20,male,left_right_width,2024-05-14_09h36.14.190,exp1,2023.1.0,60.14433428
,,,,,,,,,,,,,,,,3,8.6,10,11.4,0,0,1.4,1.15,0.25,3.05,10,match,36.05,310,361,411,0,0,9,9,9,0,0,,,,,4,0,4,0,0,6,6,43,,,,num_3,0.8236882,num_3,0.45,0.5,0.25,1.4,9.55138,53.48771,return,6.5975382,,,,,,703,20,male,left_right_width,2024-05-14_09h36.14.190,exp1,2023.1.0,60.14433428
,,,,,,,,,,,,,,,,5,8.6,9.3,10,10.7,11.4,0.7,0.15,0.55,3.35,10,initial,36.05,310,335,361,386,411,9,9,9,9,9,,,,,4,0,4,0,0,7,7,40,,,,num_4,0.9124283,num_4,0.55,0.6,0.7,0.8,26.74385,30.5644,return,3.6046064,,,,,,703,20,male,left_right_width,2024-05-14_09h36.14.190,exp1,2023.1.0,60.14433428
,,,,,,,,,,,,,,,,5,8.275,9.1375,10,10.8625,11.725,0.8625,0.6125,0.25,3.7,10,match,36.05,298,329,361,392,423,9,9,9,9,9,,,,,4,0,4,0,0,8,8,22,,,,num_4,0.9242379,num_4,0.35,0.4,0.1,1.2,3.82055,45.8466,return,3.1737748,,,,,,703,20,male,left_right_width,2024-05-14_09h36.14.190,exp1,2023.1.0,60.14433428
,,,,,,,,,,,,,,,,3,8.9,10,11.1,0,0,1.1,0.85,0.25,2.45,10,initial,36.05,321,361,400,0,0,9,9,9,0,0,,,,,4,0,4,0,0,9,9,2,,,,num_3,0.799218799,num_3,0.4,1.1,0.25,1.1,9.55138,42.02605,return,1.6554236,,,,,,703,20,male,left_right_width,2024-05-14_09h36.14.190,exp1,2023.1.0,60.14433428
,,,,,,,,,,,,,,,,3,8.2,10,11.8,0,0,1.8,1.25,0.55,4.15,10,match,36.05,296,361,425,0,0,9,9,9,0,0,,,,,4,0,4,0,0,10,10,47,,,,num_2,0.9766026,num_2,0.3,1.6,0.75,2.2,28.65413,84.05211,return,3.9765478,,,,,,703,20,male,left_right_width,2024-05-14_09h36.14.190,exp1,2023.1.0,60.14433428
,,,,,,,,,,,,,,,,5,8.65,9.325,10,10.675,11.35,0.675,0.425,0.25,2.95,10,match,36.05,312,336,361,385,409,9,9,9,9,9,,,,,4,0,4,0,0,11,11,31,,,,num_4,0.8605664,num_4,0.2,1.2,0.2,0.6,7.6411,22.9233,return,2.8691038,,,,,,703,20,male,left_right_width,2024-05-14_09h36.14.190,exp1,2023.1.0,60.14433428
,,,,,,,,,,,,,,,,5,7.8,8.9,10,11.1,12.2,1.1,0.55,0.55,4.95,10,initial,36.05,281,321,361,400,440,9,9,9,9,9,,,,,4,0,4,0,0,12,12,34,,,,num_5,1.1449675,num_5,0.3,0.9,0.75,1.15,28.65413,43.93633,return,5.5941895,,,,,,703,20,male,left_right_width,2024-05-14_09h36.14.190,exp1,2023.1.0,60.14433428
,,,,,,,,,,,,,,,,5,8.2,9.1,10,10.9,11.8,0.9,0.35,0.55,4.15,10,initial,36.05,296,328,361,393,425,9,9,9,9,9,,,,,4,0,4,0,0,13,13,46,,,,num_5,1.2236941,num_5,0.45,0.6,0.6,0.95,22.9233,36.29523,return,3.0098218,,,,,,703,20,male,left_right_width,2024-05-14_09h36.14.190,exp1,2023.1.0,60.14433428
,,,,,,,,,,,,,,,,4,9.1,9.7,10.3,10.9,0,0.6,0.35,0.25,2.05,10,match,36.05,328,350,371,393,0,9,9,9,9,0,,,,,4,0,4,0,0,14,14,14,,,,num_3,0.8460424,num_3,0.55,1.3,0.25,0.85,9.55138,32.47468,return,4.827424,,,,,,703,20,male,left_right_width,2024-05-14_09h36.14.190,exp1,2023.1.0,60.14433428
,,,,,,,,,,,,,,,,4,8.35,9.45,10.55,11.65,0,1.1,0.85,0.25,3.55,10,initial,36.05,301,341,380,420,0,9,9,9,9,0,,,,,4,0,4,0,0,15,15,19,,,,num_4,1.187363,num_4,0.45,1.2,0.1,0.6,3.82055,22.9233,return,4.1763956,,,,,,703,20,male,left_right_width,2024-05-14_09h36.14.190,exp1,2023.1.0,60.14433428
,,,,,,,,,,,,,,,,5,8.65,9.325,10,10.675,11.35,0.675,0.125,0.55,3.25,10,match,36.05,312,336,361,385,409,9,9,9,9,9,,,,,4,0,4,0,0,16,16,29,,,,num_4,1.1447145,num_4,0.55,0.9,0.85,1,32.47468,38.2055,return,4.1624422,,,,,,703,20,male,left_right_width,2024-05-14_09h36.14.190,exp1,2023.1.0,60.14433428
,,,,,,,,,,,,,,,,3,8.525,10,11.475,0,0,1.475,1.225,0.25,3.2,10,match,36.05,307,361,414,0,0,9,9,9,0,0,,,,,4,0,4,0,0,17,17,45,,,,num_3,0.9249255,num_3,0.55,0.8,0.1,0.95,3.82055,36.29523,return,3.5737222,,,,,,703,20,male,left_right_width,2024-05-14_09h36.14.190,exp1,2023.1.0,60.14433428
,,,,,,,,,,,,,,,,3,7.8,10,12.2,0,0,2.2,1.8,0.4,4.8,10,match,36.05,281,361,440,0,0,9,9,9,0,0,,,,,4,0,4,0,0,18,18,39,,,,num_3,1.1185155,num_3,0.5,0.6,0.2,2.9,7.6411,110.79596,return,8.6358659,,,,,,703,20,male,left_right_width,2024-05-14_09h36.14.190,exp1,2023.1.0,60.14433428
,,,,,,,,,,,,,,,,3,9.3,10,10.7,0,0,0.7,0.45,0.25,1.65,10,initial,36.05,335,361,386,0,0,9,9,9,0,0,,,,,4,0,4,0,0,19,19,7,,,,num_3,1.1203335,num_3,0.4,1,0.1,0.65,3.82055,24.83358,return,4.3967562,,,,,,703,20,male,left_right_width,2024-05-14_09h36.14.190,exp1,2023.1.0,60.14433428
,,,,,,,,,,,,,,,,4,9.3,9.766666667,10.23333333,10.7,0,0.466666667,0.066666667,0.4,1.8,10,match,36.05,335,352,369,386,0,9,9,9,9,0,,,,,4,0,4,0,0,20,20,10,,,,num_2,1.5415251,num_2,0.3,1.4,0.7,1,26.74385,38.2055,return,9.0147699,,,,,,703,20,male,left_right_width,2024-05-14_09h36.14.190,exp1,2023.1.0,60.14433428
,,,,,,,,,,,,,,,,3,9.3,10,10.7,0,0,0.7,0.15,0.55,1.95,10,initial,36.05,335,361,386,0,0,9,9,9,0,0,,,,,4,0,4,0,0,21,21,6,,,,num_2,0.91304,num_2,0.45,0.6,0.9,1.1,34.38495,42.02605,return,4.053632,,,,,,703,20,male,left_right_width,2024-05-14_09h36.14.190,exp1,2023.1.0,60.14433428
,,,,,,,,,,,,,,,,5,8.6,9.3,10,10.7,11.4,0.7,0.3,0.4,3.2,10,initial,36.05,310,335,361,386,411,9,9,9,9,9,,,,,4,0,4,0,0,22,22,44,,,,num_4,1.0091101,num_4,0.3,1.3,0.65,0.9,24.83358,34.38495,return,4.6304637,,,,,,703,20,male,left_right_width,2024-05-14_09h36.14.190,exp1,2023.1.0,60.14433428
,,,,,,,,,,,,,,,,4,8.65,9.55,10.45,11.35,0,0.9,0.5,0.4,3.1,10,initial,36.05,312,344,377,409,0,9,9,9,9,0,,,,,4,0,4,0,0,23,23,32,,,,num_4,0.951304,num_4,0.3,1.2,0.45,0.7,17.19248,26.74385,return,8.9429509,,,,,,703,20,male,left_right_width,2024-05-14_09h36.14.190,exp1,2023.1.0,60.14433428
,,,,,,,,,,,,,,,,5,8.2,9.1,10,10.9,11.8,0.9,0.5,0.4,4,10,initial,36.05,296,328,361,393,425,9,9,9,9,9,,,,,4,0,4,0,0,24,24,50,,,,num_5,1.1162857,num_5,0.4,1.1,0.4,0.75,15.2822,28.65413,return,2.7108947,,,,,,703,20,male,left_right_width,2024-05-14_09h36.14.190,exp1,2023.1.0,60.14433428
,,,,,,,,,,,,,,,,3,9.1,10,10.9,0,0,0.9,0.65,0.25,2.05,10,initial,36.05,328,361,393,0,0,9,9,9,0,0,,,,,4,0,4,0,0,25,25,13,,,,num_3,1.3808603,num_3,0.35,0.9,0.15,0.65,5.73083,24.83358,return,2.7912738,,,,,,703,20,male,left_right_width,2024-05-14_09h36.14.190,exp1,2023.1.0,60.14433428
,,,,,,,,,,,,,,,,5,8.35,9.175,10,10.825,11.65,0.825,0.575,0.25,3.55,10,match,36.05,301,331,361,390,420,9,9,9,9,9,,,,,4,0,4,0,0,26,26,20,,,,num_4,0.8698969,num_4,0.2,0.8,0.15,0.7,5.73083,26.74385,return,5.9937081,,,,,,703,20,male,left_right_width,2024-05-14_09h36.14.190,exp1,2023.1.0,60.14433428
,,,,,,,,,,,,,,,,3,9.1,10,10.9,0,0,0.9,0.35,0.55,2.35,10,initial,36.05,328,361,393,0,0,9,9,9,0,0,,,,,4,0,4,0,0,27,27,11,,,,num_2,1.0383515,num_2,0.3,1,0.65,1.4,24.83358,53.48771,return,4.0308062,,,,,,703,20,male,left_right_width,2024-05-14_09h36.14.190,exp1,2023.1.0,60.14433428
,,,,,,,,,,,,,,,,4,8.9,9.633333333,10.36666667,11.1,0,0.733333333,0.183333333,0.55,2.75,10,match,36.05,321,347,374,400,0,9,9,9,9,0,,,,,4,0,4,0,0,28,28,1,,,,num_3,1.0519496,num_3,0.2,0.5,0.7,1,26.74385,38.2055,return,5.8048906,,,,,,703,20,male,left_right_width,2024-05-14_09h36.14.190,exp1,2023.1.0,60.14433428
,,,,,,,,,,,,,,,,3,8.2,10,11.8,0,0,1.8,1.55,0.25,3.85,10,match,36.05,296,361,425,0,0,9,9,9,0,0,,,,,4,0,4,0,0,29,29,49,,,,num_3,1.0943478,num_3,0.4,1.2,0.1,1.55,3.82055,59.21853,return,5.9737745,,,,,,703,20,male,left_right_width,2024-05-14_09h36.14.190,exp1,2023.1.0,60.14433428
,,,,,,,,,,,,,,,,3,7.8,10,12.2,0,0,2.2,1.65,0.55,4.95,10,match,36.05,281,361,440,0,0,9,9,9,0,0,,,,,4,0,4,0,0,30,30,35,,,,num_3,0.9071125,num_3,0.3,0.5,0.7,2.25,26.74385,85.96238,return,11.4880483,,,,,,703,20,male,left_right_width,2024-05-14_09h36.14.190,exp1,2023.1.0,60.14433428
,,,,,,,,,,,,,,,,4,8.35,9.45,10.55,11.65,0,1.1,0.7,0.4,3.7,10,initial,36.05,301,341,380,420,0,9,9,9,9,0,,,,,4,0,4,0,0,31,31,21,,,,num_3,2.6824848,num_3,0.4,1.3,0.25,1.65,9.55138,63.03908,return,3.3219314,,,,,,703,20,male,left_right_width,2024-05-14_09h36.14.190,exp1,2023.1.0,60.14433428
,,,,,,,,,,,,,,,,3,9.3,10,10.7,0,0,0.7,0.3,0.4,1.8,10,initial,36.05,335,361,386,0,0,9,9,9,0,0,,,,,4,0,4,0,0,32,32,9,,,,num_3,1.351859,num_3,0.2,0.8,0.2,0.5,7.6411,19.10275,return,2.3474754,,,,,,703,20,male,left_right_width,2024-05-14_09h36.14.190,exp1,2023.1.0,60.14433428
,,,,,,,,,,,,,,,,5,8.95,9.475,10,10.525,11.05,0.525,0.125,0.4,2.5,10,match,36.05,323,342,361,379,398,9,9,9,9,9,,,,,4,0,4,0,0,33,33,27,,,,num_4,1.3790401,num_4,0.5,0.7,0.3,0.5,11.46165,19.10275,return,3.5576756,,,,,,703,20,male,left_right_width,2024-05-14_09h36.14.190,exp1,2023.1.0,60.14433428
,,,,,,,,,,,,,,,,4,8.825,9.608333333,10.39166667,11.175,0,0.783333333,0.533333333,0.25,2.6,10,match,36.05,318,346,375,403,0,9,9,9,9,0,,,,,4,0,4,0,0,34,34,5,,,,num_3,0.9571353,num_3,0.45,0.7,0.15,0.85,5.73083,32.47468,return,3.1675291,,,,,,703,20,male,left_right_width,2024-05-14_09h36.14.190,exp1,2023.1.0,60.14433428
,,,,,,,,,,,,,,,,4,8.35,9.45,10.55,11.65,0,1.1,0.55,0.55,3.85,10,initial,36.05,301,341,380,420,0,9,9,9,9,0,,,,,4,0,4,0,0,35,35,17,,,,num_4,0.8457655,num_4,0.55,1.1,0.4,1.6,15.2822,61.12881,return,5.2726153,,,,,,703,20,male,left_right_width,2024-05-14_09h36.14.190,exp1,2023.1.0,60.14433428
,,,,,,,,,,,,,,,,4,8.95,9.65,10.35,11.05,0,0.7,0.15,0.55,2.65,10,initial,36.05,323,348,373,398,0,9,9,9,9,0,,,,,4,0,4,0,0,36,36,23,,,,num_3,1.4491497,num_3,0.25,0.6,0.6,0.85,22.9233,32.47468,return,6.2020469,,,,,,703,20,male,left_right_width,2024-05-14_09h36.14.190,exp1,2023.1.0,60.14433428
,,,,,,,,,,,,,,,,3,8.9,10,11.1,0,0,1.1,0.7,0.4,2.6,10,initial,36.05,321,361,400,0,0,9,9,9,0,0,,,,,4,0,4,0,0,37,37,4,,,,num_3,6.0354821,num_3,0.3,0.9,0.4,1.05,15.2822,40.11578,return,4.6730182,,,,,,703,20,male,left_right_width,2024-05-14_09h36.14.190,exp1,2023.1.0,60.14433428
,,,,,,,,,,,,,,,,5,8.2,9.1,10,10.9,11.8,0.9,0.65,0.25,3.85,10,initial,36.05,296,328,361,393,425,9,9,9,9,9,,,,,4,0,4,0,0,38,38,48,,,,num_4,1.1350066,num_4,0.3,0.9,0.1,1.4,3.82055,53.48771,return,2.7677488,,,,,,703,20,male,left_right_width,2024-05-14_09h36.14.190,exp1,2023.1.0,60.14433428
,,,,,,,,,,,,,,,,5,8.6,9.3,10,10.7,11.4,0.7,0.45,0.25,3.05,10,initial,36.05,310,335,361,386,411,9,9,9,9,9,,,,,4,0,4,0,0,39,39,42,,,,num_4,0.9550552,num_4,0.5,1,0.2,0.6,7.6411,22.9233,return,3.4724107,,,,,,703,20,male,left_right_width,2024-05-14_09h36.14.190,exp1,2023.1.0,60.14433428
,,,,,,,,,,,,,,,,3,8.6,10,11.4,0,0,1.4,0.85,0.55,3.35,10,match,36.05,310,361,411,0,0,9,9,9,0,0,,,,,4,0,4,0,0,40,40,41,,,,num_3,0.8696575,num_3,0.3,0.9,0.7,1.4,26.74385,53.48771,return,5.4372329,,,,,,703,20,male,left_right_width,2024-05-14_09h36.14.190,exp1,2023.1.0,60.14433428
,,,,,,,,,,,,,,,,5,8.95,9.475,10,10.525,11.05,0.525,0.275,0.25,2.35,10,match,36.05,323,342,361,379,398,9,9,9,9,9,,,,,4,0,4,0,0,41,41,25,,,,num_4,0.8060974,num_4,0.3,1,0.2,0.4,7.6411,15.2822,return,3.2483933,,,,,,703,20,male,left_right_width,2024-05-14_09h36.14.190,exp1,2023.1.0,60.14433428
,,,,,,,,,,,,,,,,4,8.9,9.633333333,10.36666667,11.1,0,0.733333333,0.483333333,0.25,2.45,10,match,36.05,321,347,374,400,0,9,9,9,9,0,,,,,4,0,4,0,0,42,42,3,,,,num_4,8.0154456,num_4,0.2,0.5,0.35,0.5,13.37193,19.10275,return,2.5572734,,,,,,703,20,male,left_right_width,2024-05-14_09h36.14.190,exp1,2023.1.0,60.14433428
,,,,,,,,,,,,,,,,4,9.1,9.7,10.3,10.9,0,0.6,0.05,0.55,2.35,10,match,36.05,328,350,371,393,0,9,9,9,9,0,,,,,4,0,4,0,0,43,43,12,,,,num_3,0.9273477,num_3,0.25,1.2,0.7,0.8,26.74385,30.5644,return,4.0955831,,,,,,703,20,male,left_right_width,2024-05-14_09h36.14.190,exp1,2023.1.0,60.14433428
,,,,,,,,,,,,,,,,4,9.1,9.7,10.3,10.9,0,0.6,0.2,0.4,2.2,10,match,36.05,328,350,371,393,0,9,9,9,9,0,,,,,4,0,4,0,0,44,44,16,,,,num_3,1.1661956,num_3,0.45,1.1,0.55,0.8,21.01303,30.5644,return,2.716792,,,,,,703,20,male,left_right_width,2024-05-14_09h36.14.190,exp1,2023.1.0,60.14433428
,,,,,,,,,,,,,,,,3,9.1,10,10.9,0,0,0.9,0.5,0.4,2.2,10,initial,36.05,328,361,393,0,0,9,9,9,0,0,,,,,4,0,4,0,0,45,45,15,,,,num_2,0.8430345,num_2,0.35,1.2,0.55,0.9,21.01303,34.38495,return,2.2970115,,,,,,703,20,male,left_right_width,2024-05-14_09h36.14.190,exp1,2023.1.0,60.14433428
,,,,,,,,,,,,,,,,4,8.95,9.65,10.35,11.05,0,0.7,0.45,0.25,2.35,10,initial,36.05,323,348,373,398,0,9,9,9,9,0,,,,,4,0,4,0,0,46,46,24,,,,num_3,1.0843791,num_3,0.35,1.3,0.5,0.95,19.10275,36.29523,return,3.4997038,,,,,,703,20,male,left_right_width,2024-05-14_09h36.14.190,exp1,2023.1.0,60.14433428
,,,,,,,,,,,,,,,,5,8.35,9.175,10,10.825,11.65,0.825,0.275,0.55,3.85,10,match,36.05,301,331,361,390,420,9,9,9,9,9,,,,,4,0,4,0,0,47,47,18,,,,num_4,0.7414778,num_4,0.4,0.8,0.85,1.2,32.47468,45.8466,return,4.5966242,,,,,,703,20,male,left_right_width,2024-05-14_09h36.14.190,exp1,2023.1.0,60.14433428
,,,,,,,,,,,,,,,,5,7.8,8.9,10,11.1,12.2,1.1,0.85,0.25,4.65,10,initial,36.05,281,321,361,400,440,9,9,9,9,9,,,,,4,0,4,0,0,48,48,36,,,,num_4,0.7905432,num_4,0.35,1.2,0.15,2,5.73083,76.41101,return,4.5425848,,,,,,703,20,male,left_right_width,2024-05-14_09h36.14.190,exp1,2023.1.0,60.14433428
,,,,,,,,,,,,,,,,4,8.95,9.65,10.35,11.05,0,0.7,0.3,0.4,2.5,10,initial,36.05,323,348,373,398,0,9,9,9,9,0,,,,,4,0,4,0,0,49,49,26,,,,num_4,1.4424566,num_4,0.25,0.5,0.65,1.1,24.83358,42.02605,return,4.5348676,,,,,,703,20,male,left_right_width,2024-05-14_09h36.14.190,exp1,2023.1.0,60.14433428
,,,,,,,,,,,,,,,,5,7.8,8.9,10,11.1,12.2,1.1,0.7,0.4,4.8,10,initial,36.05,281,321,361,400,440,9,9,9,9,9,,,,,4,0,4,0,0,50,50,38,,,,num_4,0.8679269,num_4,0.45,1.1,0.3,0.9,11.46165,34.38495,return,6.566671,,,,,,703,20,male,left_right_width,2024-05-14_09h36.14.190,exp1,2023.1.0,60.14433428
,,,,,,,,,,,,,,,,3,8.9,10,11.1,0,0,1.1,0.55,0.55,2.75,10,initial,36.05,321,361,400,0,0,9,9,9,0,0,,,,,4,0,4,0,0,51,51,0,,,,num_3,0.9465484,num_3,0.35,0.4,0.5,1.4,19.10275,53.48771,return,5.604979,,,,,,703,20,male,left_right_width,2024-05-14_09h36.14.190,exp1,2023.1.0,60.14433428
,,,,,,,,,,,,,,,,,,,,,,,,,,,,,,,,,,,,,,,,,,,4,0,4,0,,,,,,,,,,,,,,,,,,,,,3544.445445,3544.445445,3544.445445,703,20,male,left_right_width,2024-05-14_09h36.14.190,exp1,2023.1.0,60.14433428
,,,,,,,,,,,,,,,,3,7.8,10,12.2,0,0,2.2,1.8,0.4,4.8,10,match,36.05,281,361,440,0,0,9,9,9,0,0,,,,,5,0,5,0,0,0,0,39,,,,num_4,2.6167476,num_4,0.25,1.2,0.45,1,17.19248,38.2055,return,5.4981438,,,,,,703,20,male,left_right_width,2024-05-14_09h36.14.190,exp1,2023.1.0,60.14433428
,,,,,,,,,,,,,,,,4,9.1,9.7,10.3,10.9,0,0.6,0.2,0.4,2.2,10,match,36.05,328,350,371,393,0,9,9,9,9,0,,,,,5,0,5,0,0,1,1,16,,,,num_3,1.3707345,num_3,0.2,0.7,0.5,0.65,19.10275,24.83358,return,3.5707237,,,,,,703,20,male,left_right_width,2024-05-14_09h36.14.190,exp1,2023.1.0,60.14433428
,,,,,,,,,,,,,,,,5,8.65,9.325,10,10.675,11.35,0.675,0.125,0.55,3.25,10,match,36.05,312,336,361,385,409,9,9,9,9,9,,,,,5,0,5,0,0,2,2,29,,,,num_4,0.9767099,num_4,0.45,0.7,0.6,0.7,22.9233,26.74385,return,5.7494109,,,,,,703,20,male,left_right_width,2024-05-14_09h36.14.190,exp1,2023.1.0,60.14433428
,,,,,,,,,,,,,,,,4,8.95,9.65,10.35,11.05,0,0.7,0.15,0.55,2.65,10,initial,36.05,323,348,373,398,0,9,9,9,9,0,,,,,5,0,5,0,0,3,3,23,,,,num_4,1.7159771,num_4,0.3,0.8,0.4,0.5,15.2822,19.10275,return,23.4224819,,,,,,703,20,male,left_right_width,2024-05-14_09h36.14.190,exp1,2023.1.0,60.14433428
,,,,,,,,,,,,,,,,3,9.1,10,10.9,0,0,0.9,0.35,0.55,2.35,10,initial,36.05,328,361,393,0,0,9,9,9,0,0,,,,,5,0,5,0,0,4,4,11,,,,num_3,7.0942504,num_3,0.25,0.8,0.25,0.6,9.55138,22.9233,return,2.7103638,,,,,,703,20,male,left_right_width,2024-05-14_09h36.14.190,exp1,2023.1.0,60.14433428
,,,,,,,,,,,,,,,,4,8.9,9.633333333,10.36666667,11.1,0,0.733333333,0.183333333,0.55,2.75,10,match,36.05,321,347,374,400,0,9,9,9,9,0,,,,,5,0,5,0,0,5,5,1,,,,num_3,1.17364,num_3,0.3,0.6,0.6,1,22.9233,38.2055,return,4.9403218,,,,,,703,20,male,left_right_width,2024-05-14_09h36.14.190,exp1,2023.1.0,60.14433428
,,,,,,,,,,,,,,,,3,9.1,10,10.9,0,0,0.9,0.65,0.25,2.05,10,initial,36.05,328,361,393,0,0,9,9,9,0,0,,,,,5,0,5,0,0,6,6,13,,,,num_3,1.207109,num_3,0.3,0.6,0.2,0.9,7.6411,34.38495,return,3.5095475,,,,,,703,20,male,left_right_width,2024-05-14_09h36.14.190,exp1,2023.1.0,60.14433428
,,,,,,,,,,,,,,,,4,9.1,9.7,10.3,10.9,0,0.6,0.05,0.55,2.35,10,match,36.05,328,350,371,393,0,9,9,9,9,0,,,,,5,0,5,0,0,7,7,12,,,,num_2,1.8976259,num_2,0.25,0.6,1.1,1.2,42.02605,45.8466,return,7.7409346,,,,,,703,20,male,left_right_width,2024-05-14_09h36.14.190,exp1,2023.1.0,60.14433428
,,,,,,,,,,,,,,,,5,8.65,9.325,10,10.675,11.35,0.675,0.275,0.4,3.1,10,match,36.05,312,336,361,385,409,9,9,9,9,9,,,,,5,0,5,0,0,8,8,33,,,,num_4,1.1344393,num_4,0.2,0.6,0.35,0.5,13.37193,19.10275,return,5.416604,,,,,,703,20,male,left_right_width,2024-05-14_09h36.14.190,exp1,2023.1.0,60.14433428
,,,,,,,,,,,,,,,,5,8.35,9.175,10,10.825,11.65,0.825,0.275,0.55,3.85,10,match,36.05,301,331,361,390,420,9,9,9,9,9,,,,,5,0,5,0,0,9,9,18,,,,num_5,1.0848233,num_5,0.55,0.8,0.6,0.8,22.9233,30.5644,return,4.1853686,,,,,,703,20,male,left_right_width,2024-05-14_09h36.14.190,exp1,2023.1.0,60.14433428
,,,,,,,,,,,,,,,,3,8.2,10,11.8,0,0,1.8,1.55,0.25,3.85,10,match,36.05,296,361,425,0,0,9,9,9,0,0,,,,,5,0,5,0,0,10,10,49,,,,num_3,1.2641085,num_3,0.5,0.9,0.15,1.1,5.73083,42.02605,return,4.3276693,,,,,,703,20,male,left_right_width,2024-05-14_09h36.14.190,exp1,2023.1.0,60.14433428
,,,,,,,,,,,,,,,,5,8.2,9.1,10,10.9,11.8,0.9,0.65,0.25,3.85,10,initial,36.05,296,328,361,393,425,9,9,9,9,9,,,,,5,0,5,0,0,11,11,48,,,,num_4,1.2871011,num_4,0.2,1.1,0.2,1.1,7.6411,42.02605,return,1.0853535,,,,,,703,20,male,left_right_width,2024-05-14_09h36.14.190,exp1,2023.1.0,60.14433428
,,,,,,,,,,,,,,,,4,8.825,9.608333333,10.39166667,11.175,0,0.783333333,0.533333333,0.25,2.6,10,match,36.05,318,346,375,403,0,9,9,9,9,0,,,,,5,0,5,0,0,12,12,5,,,,num_4,1.7039116,num_4,0.25,0.5,0.15,0.8,5.73083,30.5644,return,3.3305001,,,,,,703,20,male,left_right_width,2024-05-14_09h36.14.190,exp1,2023.1.0,60.14433428
,,,,,,,,,,,,,,,,4,8.95,9.65,10.35,11.05,0,0.7,0.3,0.4,2.5,10,initial,36.05,323,348,373,398,0,9,9,9,9,0,,,,,5,0,5,0,0,13,13,26,,,,num_4,0.9427124,num_4,0.3,0.3,0.4,0.8,15.2822,30.5644,return,3.6368015,,,,,,703,20,male,left_right_width,2024-05-14_09h36.14.190,exp1,2023.1.0,60.14433428
,,,,,,,,,,,,,,,,5,7.8,8.9,10,11.1,12.2,1.1,0.55,0.55,4.95,10,initial,36.05,281,321,361,400,440,9,9,9,9,9,,,,,5,0,5,0,0,14,14,34,,,,num_6,1.459063,num_6,0.3,0.6,0.45,0.8,17.19248,30.5644,return,3.1705753,,,,,,703,20,male,left_right_width,2024-05-14_09h36.14.190,exp1,2023.1.0,60.14433428
,,,,,,,,,,,,,,,,5,8.6,9.3,10,10.7,11.4,0.7,0.15,0.55,3.35,10,initial,36.05,310,335,361,386,411,9,9,9,9,9,,,,,5,0,5,0,0,15,15,40,,,,num_5,1.0340418,num_5,0.35,0.4,0.4,0.75,15.2822,28.65413,return,6.8142411,,,,,,703,20,male,left_right_width,2024-05-14_09h36.14.190,exp1,2023.1.0,60.14433428
,,,,,,,,,,,,,,,,3,8.6,10,11.4,0,0,1.4,1.15,0.25,3.05,10,match,36.05,310,361,411,0,0,9,9,9,0,0,,,,,5,0,5,0,0,16,16,43,,,,num_4,2.4703873,num_4,0.5,1,0.1,1.5,3.82055,57.30826,return,3.7137528,,,,,,703,20,male,left_right_width,2024-05-14_09h36.14.190,exp1,2023.1.0,60.14433428
,,,,,,,,,,,,,,,,3,8.2,10,11.8,0,0,1.8,1.25,0.55,4.15,10,match,36.05,296,361,425,0,0,9,9,9,0,0,,,,,5,0,5,0,0,17,17,47,,,,num_3,0.9485601,num_3,0.35,0.7,0.8,1.45,30.5644,55.39798,return,6.4455367,,,,,,703,20,male,left_right_width,2024-05-14_09h36.14.190,exp1,2023.1.0,60.14433428
,,,,,,,,,,,,,,,,4,8.65,9.55,10.45,11.35,0,0.9,0.5,0.4,3.1,10,initial,36.05,312,344,377,409,0,9,9,9,9,0,,,,,5,0,5,0,0,18,18,32,,,,num_4,1.0393882,num_4,0.2,0.7,0.5,1.2,19.10275,45.8466,return,5.6010466,,,,,,703,20,male,left_right_width,2024-05-14_09h36.14.190,exp1,2023.1.0,60.14433428
,,,,,,,,,,,,,,,,3,7.8,10,12.2,0,0,2.2,1.95,0.25,4.65,10,match,36.05,281,361,440,0,0,9,9,9,0,0,,,,,5,0,5,0,0,19,19,37,,,,num_3,0.870143,num_3,0.35,1.1,0.15,2.15,5.73083,82.14183,return,5.9001188,,,,,,703,20,male,left_right_width,2024-05-14_09h36.14.190,exp1,2023.1.0,60.14433428
,,,,,,,,,,,,,,,,3,8.6,10,11.4,0,0,1.4,0.85,0.55,3.35,10,match,36.05,310,361,411,0,0,9,9,9,0,0,,,,,5,0,5,0,0,20,20,41,,,,num_4,0.9695765,num_4,0.45,1.1,0.3,1.4,11.46165,53.48771,return,4.9252058,,,,,,703,20,male,left_right_width,2024-05-14_09h36.14.190,exp1,2023.1.0,60.14433428
,,,,,,,,,,,,,,,,5,8.6,9.3,10,10.7,11.4,0.7,0.3,0.4,3.2,10,initial,36.05,310,335,361,386,411,9,9,9,9,9,,,,,5,0,5,0,0,21,21,44,,,,num_4,1.3904919,num_4,0.3,1,0.45,0.6,17.19248,22.9233,return,7.9529488,,,,,,703,20,male,left_right_width,2024-05-14_09h36.14.190,exp1,2023.1.0,60.14433428
,,,,,,,,,,,,,,,,4,8.35,9.45,10.55,11.65,0,1.1,0.85,0.25,3.55,10,initial,36.05,301,341,380,420,0,9,9,9,9,0,,,,,5,0,5,0,0,22,22,19,,,,num_4,1.6195047,num_4,0.45,0.6,0.1,1.1,3.82055,42.02605,return,3.6011847,,,,,,703,20,male,left_right_width,2024-05-14_09h36.14.190,exp1,2023.1.0,60.14433428
,,,,,,,,,,,,,,,,5,8.2,9.1,10,10.9,11.8,0.9,0.5,0.4,4,10,initial,36.05,296,328,361,393,425,9,9,9,9,9,,,,,5,0,5,0,0,23,23,50,,,,num_4,1.2201354,num_4,0.4,0.9,0.5,1.3,19.10275,49.66716,return,2.9158599,,,,,,703,20,male,left_right_width,2024-05-14_09h36.14.190,exp1,2023.1.0,60.14433428
,,,,,,,,,,,,,,,,3,9.3,10,10.7,0,0,0.7,0.45,0.25,1.65,10,initial,36.05,335,361,386,0,0,9,9,9,0,0,,,,,5,0,5,0,0,24,24,7,,,,num_3,1.0511826,num_3,0.35,1.1,0.2,0.8,7.6411,30.5644,return,4.0768298,,,,,,703,20,male,left_right_width,2024-05-14_09h36.14.190,exp1,2023.1.0,60.14433428
,,,,,,,,,,,,,,,,4,9.3,9.766666667,10.23333333,10.7,0,0.466666667,0.216666667,0.25,1.65,10,match,36.05,335,352,369,386,0,9,9,9,9,0,,,,,5,0,5,0,0,25,25,8,,,,num_3,1.1660575,num_3,0.4,1.1,0.2,0.65,7.6411,24.83358,return,4.5051066,,,,,,703,20,male,left_right_width,2024-05-14_09h36.14.190,exp1,2023.1.0,60.14433428
,,,,,,,,,,,,,,,,4,8.65,9.55,10.45,11.35,0,0.9,0.65,0.25,2.95,10,initial,36.05,312,344,377,409,0,9,9,9,9,0,,,,,5,0,5,0,0,26,26,30,,,,num_4,1.6142824,num_4,0.45,0.7,0.25,0.5,9.55138,19.10275,return,7.0969494,,,,,,703,20,male,left_right_width,2024-05-14_09h36.14.190,exp1,2023.1.0,60.14433428
,,,,,,,,,,,,,,,,5,8.2,9.1,10,10.9,11.8,0.9,0.35,0.55,4.15,10,initial,36.05,296,328,361,393,425,9,9,9,9,9,,,,,5,0,5,0,0,27,27,46,,,,num_4,1.6089498,num_4,0.35,1,0.7,1.1,26.74385,42.02605,return,6.0694024,,,,,,703,20,male,left_right_width,2024-05-14_09h36.14.190,exp1,2023.1.0,60.14433428
,,,,,,,,,,,,,,,,3,8.9,10,11.1,0,0,1.1,0.85,0.25,2.45,10,initial,36.05,321,361,400,0,0,9,9,9,0,0,,,,,5,0,5,0,0,28,28,2,,,,num_2,1.6468868,num_2,0.2,1,0.2,3.6,7.6411,137.53981,return,5.803826,,,,,,703,20,male,left_right_width,2024-05-14_09h36.14.190,exp1,2023.1.0,60.14433428
,,,,,,,,,,,,,,,,3,8.525,10,11.475,0,0,1.475,1.225,0.25,3.2,10,match,36.05,307,361,414,0,0,9,9,9,0,0,,,,,5,0,5,0,0,29,29,45,,,,num_2,1.0851325,num_2,0.55,1,0.15,2.8,5.73083,106.97541,return,6.0601678,,,,,,703,20,male,left_right_width,2024-05-14_09h36.14.190,exp1,2023.1.0,60.14433428
,,,,,,,,,,,,,,,,4,9.3,9.766666667,10.23333333,10.7,0,0.466666667,0.066666667,0.4,1.8,10,match,36.05,335,352,369,386,0,9,9,9,9,0,,,,,5,0,5,0,0,30,30,10,,,,num_2,1.7863253,num_2,0.4,0.8,0.6,0.8,22.9233,30.5644,return,10.4610914,,,,,,703,20,male,left_right_width,2024-05-14_09h36.14.190,exp1,2023.1.0,60.14433428
,,,,,,,,,,,,,,,,5,8.65,9.325,10,10.675,11.35,0.675,0.425,0.25,2.95,10,match,36.05,312,336,361,385,409,9,9,9,9,9,,,,,5,0,5,0,0,31,31,31,,,,num_5,0.9632202,num_5,0.25,1.3,0.2,0.65,7.6411,24.83358,return,7.4465854,,,,,,703,20,male,left_right_width,2024-05-14_09h36.14.190,exp1,2023.1.0,60.14433428
,,,,,,,,,,,,,,,,5,8.95,9.475,10,10.525,11.05,0.525,0.125,0.4,2.5,10,match,36.05,323,342,361,379,398,9,9,9,9,9,,,,,5,0,5,0,0,32,32,27,,,,num_4,1.0130976,num_4,0.3,0.9,0.45,0.6,17.19248,22.9233,return,2.2313729,,,,,,703,20,male,left_right_width,2024-05-14_09h36.14.190,exp1,2023.1.0,60.14433428
,,,,,,,,,,,,,,,,4,8.65,9.55,10.45,11.35,0,0.9,0.35,0.55,3.25,10,initial,36.05,312,344,377,409,0,9,9,9,9,0,,,,,5,0,5,0,0,33,33,28,,,,num_4,1.1562549,num_4,0.3,1.3,0.5,0.8,19.10275,30.5644,return,3.6208687,,,,,,703,20,male,left_right_width,2024-05-14_09h36.14.190,exp1,2023.1.0,60.14433428
,,,,,,,,,,,,,,,,4,8.35,9.45,10.55,11.65,0,1.1,0.55,0.55,3.85,10,initial,36.05,301,341,380,420,0,9,9,9,9,0,,,,,5,0,5,0,0,34,34,17,,,,num_4,1.0457354,num_4,0.25,0.9,0.7,0.9,26.74385,34.38495,return,3.1083885,,,,,,703,20,male,left_right_width,2024-05-14_09h36.14.190,exp1,2023.1.0,60.14433428
,,,,,,,,,,,,,,,,3,9.1,10,10.9,0,0,0.9,0.5,0.4,2.2,10,initial,36.05,328,361,393,0,0,9,9,9,0,0,,,,,5,0,5,0,0,35,35,15,,,,num_3,1.0621909,num_3,0.35,1.3,0.6,1,22.9233,38.2055,return,3.220287,,,,,,703,20,male,left_right_width,2024-05-14_09h36.14.190,exp1,2023.1.0,60.14433428
,,,,,,,,,,,,,,,,3,9.3,10,10.7,0,0,0.7,0.15,0.55,1.95,10,initial,36.05,335,361,386,0,0,9,9,9,0,0,,,,,5,0,5,0,0,36,36,6,,,,num_2,0.9826539,num_2,0.55,1.2,0.85,1,32.47468,38.2055,return,6.8904651,,,,,,703,20,male,left_right_width,2024-05-14_09h36.14.190,exp1,2023.1.0,60.14433428
,,,,,,,,,,,,,,,,4,8.9,9.633333333,10.36666667,11.1,0,0.733333333,0.483333333,0.25,2.45,10,match,36.05,321,347,374,400,0,9,9,9,9,0,,,,,5,0,5,0,0,37,37,3,,,,num_3,1.2764792,num_3,0.4,1,0.1,0.85,3.82055,32.47468,return,2.9997799,,,,,,703,20,male,left_right_width,2024-05-14_09h36.14.190,exp1,2023.1.0,60.14433428
,,,,,,,,,,,,,,,,3,9.3,10,10.7,0,0,0.7,0.3,0.4,1.8,10,initial,36.05,335,361,386,0,0,9,9,9,0,0,,,,,5,0,5,0,0,38,38,9,,,,num_3,1.3621573,num_3,0.2,0.9,0.5,0.6,19.10275,22.9233,return,5.1758019,,,,,,703,20,male,left_right_width,2024-05-14_09h36.14.190,exp1,2023.1.0,60.14433428
,,,,,,,,,,,,,,,,5,8.6,9.3,10,10.7,11.4,0.7,0.45,0.25,3.05,10,initial,36.05,310,335,361,386,411,9,9,9,9,9,,,,,5,0,5,0,0,39,39,42,,,,num_4,0.9102428,num_4,0.3,0.3,0.1,0.7,3.82055,26.74385,return,3.5559424,,,,,,703,20,male,left_right_width,2024-05-14_09h36.14.190,exp1,2023.1.0,60.14433428
,,,,,,,,,,,,,,,,4,9.1,9.7,10.3,10.9,0,0.6,0.35,0.25,2.05,10,match,36.05,328,350,371,393,0,9,9,9,9,0,,,,,5,0,5,0,0,40,40,14,,,,num_4,0.9555743,num_4,0.5,0.6,0.1,0.9,3.82055,34.38495,return,4.9899799,,,,,,703,20,male,left_right_width,2024-05-14_09h36.14.190,exp1,2023.1.0,60.14433428
,,,,,,,,,,,,,,,,4,8.35,9.45,10.55,11.65,0,1.1,0.7,0.4,3.7,10,initial,36.05,301,341,380,420,0,9,9,9,9,0,,,,,5,0,5,0,0,41,41,21,,,,num_4,0.9411885,num_4,0.4,0.9,0.4,1.6,15.2822,61.12881,return,2.4061965,,,,,,703,20,male,left_right_width,2024-05-14_09h36.14.190,exp1,2023.1.0,60.14433428
,,,,,,,,,,,,,,,,3,7.8,10,12.2,0,0,2.2,1.65,0.55,4.95,10,match,36.05,281,361,440,0,0,9,9,9,0,0,,,,,5,0,5,0,0,42,42,35,,,,num_3,1.679411,num_3,0.2,0.7,0.45,2.55,17.19248,97.42404,return,8.4424452,,,,,,703,20,male,left_right_width,2024-05-14_09h36.14.190,exp1,2023.1.0,60.14433428
,,,,,,,,,,,,,,,,5,8.95,9.475,10,10.525,11.05,0.525,0.275,0.25,2.35,10,match,36.05,323,342,361,379,398,9,9,9,9,9,,,,,5,0,5,0,0,43,43,25,,,,num_4,1.2508072,num_4,0.35,1,0.35,0.7,13.37193,26.74385,return,7.6112426,,,,,,703,20,male,left_right_width,2024-05-14_09h36.14.190,exp1,2023.1.0,60.14433428
,,,,,,,,,,,,,,,,5,7.8,8.9,10,11.1,12.2,1.1,0.7,0.4,4.8,10,initial,36.05,281,321,361,400,440,9,9,9,9,9,,,,,5,0,5,0,0,44,44,38,,,,num_5,1.0258081,num_5,0.25,1.3,0.35,0.9,13.37193,34.38495,return,3.0608145,,,,,,703,20,male,left_right_width,2024-05-14_09h36.14.190,exp1,2023.1.0,60.14433428
,,,,,,,,,,,,,,,,5,7.8,8.9,10,11.1,12.2,1.1,0.85,0.25,4.65,10,initial,36.05,281,321,361,400,440,9,9,9,9,9,,,,,5,0,5,0,0,45,45,36,,,,num_5,0.9428893,num_5,0.2,0.4,0.15,1.1,5.73083,42.02605,return,7.0960534,,,,,,703,20,male,left_right_width,2024-05-14_09h36.14.190,exp1,2023.1.0,60.14433428
,,,,,,,,,,,,,,,,5,8.35,9.175,10,10.825,11.65,0.825,0.575,0.25,3.55,10,match,36.05,301,331,361,390,420,9,9,9,9,9,,,,,5,0,5,0,0,46,46,20,,,,num_5,1.0206371,num_5,0.3,0.6,0.15,0.95,5.73083,36.29523,return,4.0749138,,,,,,703,20,male,left_right_width,2024-05-14_09h36.14.190,exp1,2023.1.0,60.14433428
,,,,,,,,,,,,,,,,3,8.9,10,11.1,0,0,1.1,0.7,0.4,2.6,10,initial,36.05,321,361,400,0,0,9,9,9,0,0,,,,,5,0,5,0,0,47,47,4,,,,num_3,0.8895851,num_3,0.3,1.2,0.45,1.05,17.19248,40.11578,return,3.8712429,,,,,,703,20,male,left_right_width,2024-05-14_09h36.14.190,exp1,2023.1.0,60.14433428
,,,,,,,,,,,,,,,,3,8.9,10,11.1,0,0,1.1,0.55,0.55,2.75,10,initial,36.05,321,361,400,0,0,9,9,9,0,0,,,,,5,0,5,0,0,48,48,0,,,,num_3,0.7542692,num_3,0.5,0.9,0.5,1.3,19.10275,49.66716,return,2.6554991,,,,,,703,20,male,left_right_width,2024-05-14_09h36.14.190,exp1,2023.1.0,60.14433428
,,,,,,,,,,,,,,,,5,8.275,9.1375,10,10.8625,11.725,0.8625,0.6125,0.25,3.7,10,match,36.05,298,329,361,392,423,9,9,9,9,9,,,,,5,0,5,0,0,49,49,22,,,,num_4,0.9564215,num_4,0.3,1.3,0.15,0.7,5.73083,26.74385,return,2.8610874,,,,,,703,20,male,left_right_width,2024-05-14_09h36.14.190,exp1,2023.1.0,60.14433428
,,,,,,,,,,,,,,,,3,8.2,10,11.8,0,0,1.8,1.4,0.4,4,10,match,36.05,296,361,425,0,0,9,9,9,0,0,,,,,5,0,5,0,0,50,50,51,,,,num_3,1.0608995,num_3,0.55,1.1,0.3,1.85,11.46165,70.68018,return,4.7941679,,,,,,703,20,male,left_right_width,2024-05-14_09h36.14.190,exp1,2023.1.0,60.14433428
,,,,,,,,,,,,,,,,4,8.95,9.65,10.35,11.05,0,0.7,0.45,0.25,2.35,10,initial,36.05,323,348,373,398,0,9,9,9,9,0,,,,,5,0,5,0,0,51,51,24,,,,num_3,1.0828516,num_3,0.35,0.5,0.15,1.6,5.73083,61.12881,return,5.407215,,,,,,703,20,male,left_right_width,2024-05-14_09h36.14.190,exp1,2023.1.0,60.14433428
,,,,,,,,,,,,,,,,,,,,,,,,,,,,,,,,,,,,,,,,,,,5,0,5,0,,,,,,,,,,,,,,,,,,,,,3088.146158,3088.146158,3088.146158,703,20,male,left_right_width,2024-05-14_09h36.14.190,exp1,2023.1.0,60.14433428
