amount_p,posx1_p,posx2_p,posx3_p,posx4_p,posx5_p,center_to_center_p,edge_to_edge_p,w_p,stim_lengt_p,eccentricity_p,line1_p,line2_p,line3_p,line4_p,line5_p,amount,posx1,posx2,posx3,posx4,posx5,center_to_center,edge_to_edge,w,stim_length,eccentricity,trial_type,deg_to_pix_index,posx1_in_pix,posx2_in_pix,posx3_in_pix,posx4_in_pix,posx5_in_pix,line1,line2,line3,line4,line5,posx,setsize_cobdi,trials.thisRepN,trials.thisTrialN,trials.thisN,trials.thisIndex,blocks.thisRepN,blocks.thisTrialN,blocks.thisN,blocks.thisIndex,loop.thisRepN,loop.thisTrialN,loop.thisN,loop.thisIndex,first.thisRepN,first.thisTrialN,first.thisN,first.thisIndex,second.thisRepN,second.thisTrialN,second.thisN,second.thisIndex,key_resp_3.started,key_resp_3.keys,key_resp_3.rt,key_resp.keys,key_resp.rt,response,starting_width_deg,starting_space_deg,response_width_degree,response_spacing_degree,response_width_pixel,response_spacing_pixel,next_5.keys,next_5.rt,key_resp_4.keys,key_resp_4.rt,text_3.started,text_4.started,key_resp_2.started,text_2.started,key_resp_2.keys,key_resp_2.rt,adjusting.started,next.keys,next.rt,text_control2.started,key_resp.started,key_resp.corr,text_bye.started,text_bye.stopped,participant,age,gender,resp_group,date,expName,psychopyVersion,frameRate,
,,,,,,,,,,,,,,,,,,,,,,,,,,,,,,,,,,,,,,,,,,,,,,,,,,,,,,,,,,,,,25.45722289988771,c,176.70368580007926,,,,,,,,,,,,,,,,,,,,,,,,,,,,704,21,female,up_down_width,2024-05-16_10h39.20.247,exp1,2023.1.0,60.10634013500645,
3,9,10,11,0,0,1,0.9,0.1,2.1,10,9,9,9,0,0,,,,,,,,,,,,,,,,,,,,,,,,,,0,0,0,1,,,,,,,,,,,,,,,,,,,,num_3,4.770149599760771,num_3,0.5,0.6,0.20000000000000007,0.65,7.6411,24.83358,return,25.730491899885237,,,,,,,,,,,,,,,,,704,21,female,up_down_width,2024-05-16_10h39.20.247,exp1,2023.1.0,60.10634013500645,
3,9.5,10,10.5,0,0,0.5,0.4,0.1,1.1,10,9,9,9,0,0,,,,,,,,,,,,,,,,,,,,,,,,,,0,1,1,0,,,,,,,,,,,,,,,,,,,,num_3,5.2556113000027835,num_3,0.4,0.7,0.10000000000000007,0.7,3.82055,26.74385,return,13.116123599931598,,,,,,,,,,,,,,,,,704,21,female,up_down_width,2024-05-16_10h39.20.247,exp1,2023.1.0,60.10634013500645,
4,9.5,9.833333333333334,10.166666666666666,10.5,0,0.33333333333333337,0.23333333333333336,0.1,1.1,10,9,9,9,9,0,,,,,,,,,,,,,,,,,,,,,,,,,,0,2,2,3,,,,,,,,,,,,,,,,,,,,num_4,3.8283751998096704,num_4,0.35,1.3,0.10000000000000002,0.6,3.82055,22.9233,return,15.14650100003928,,,,,,,,,,,,,,,,,704,21,female,up_down_width,2024-05-16_10h39.20.247,exp1,2023.1.0,60.10634013500645,
3,8.2,10,11.8,0,0,1.7999999999999998,1.4,0.4,4,10,9,9,9,0,0,,,,,,,,,,,,,,,,,,,,,,,,,,0,3,3,2,,,,,,,,,,,,,,,,,,,,num_3,2.962686399463564,num_3,0.25,0.4,0.25,1.55,9.55138,59.21853,return,14.090651500038803,,,,,,,,,,,,,,,,,704,21,female,up_down_width,2024-05-16_10h39.20.247,exp1,2023.1.0,60.10634013500645,
5,9,9.5,10,10.5,11,0.5,0.09999999999999998,0.4,2.4,10,9,9,9,9,9,,,,,,,,,,,,,,,,,,,,,,,,,,0,4,4,8,,,,,,,,,,,,,,,,,,,,num_4,3.1252621999010444,num_4,0.35,0.7,0.39999999999999997,0.7,15.2822,26.74385,return,7.52213119994849,,,,,,,,,,,,,,,,,704,21,female,up_down_width,2024-05-16_10h39.20.247,exp1,2023.1.0,60.10634013500645,
5,8.6,9.3,10,10.7,11.4,0.7,0.29999999999999993,0.4,3.1999999999999997,10,9,9,9,9,9,,,,,,,,,,,,,,,,,,,,,,,,,,0,5,5,7,,,,,,,,,,,,,,,,,,,,num_5,5.406052299775183,num_5,0.2,1.2,0.35,0.8,13.37193,30.5644,return,12.799874800257385,,,,,,,,,,,,,,,,,704,21,female,up_down_width,2024-05-16_10h39.20.247,exp1,2023.1.0,60.10634013500645,
5,9.25,9.625,10,10.375,10.75,0.375,0.125,0.25,1.75,10,9,9,9,9,9,,,,,,,,,,,,,,,,,,,,,,,,,,0,6,6,6,,,,,,,,,,,,,,,,,,,,num_5,3.6807854995131493,num_5,0.25,1.1,0.25,0.6,9.55138,22.9233,return,6.508059399668127,,,,,,,,,,,,,,,,,704,21,female,up_down_width,2024-05-16_10h39.20.247,exp1,2023.1.0,60.10634013500645,
4,9.25,9.75,10.25,10.75,0,0.5,0.25,0.25,1.75,10,9,9,9,9,0,,,,,,,,,,,,,,,,,,,,,,,,,,0,7,7,4,,,,,,,,,,,,,,,,,,,,num_4,4.681541699916124,num_4,0.25,0.3,0.3,0.5,11.46165,19.10275,return,11.06823239987716,,,,,,,,,,,,,,,,,704,21,female,up_down_width,2024-05-16_10h39.20.247,exp1,2023.1.0,60.10634013500645,
4,8.65,9.55,10.45,11.35,0,0.9,0.5,0.4,3.1,10,9,9,9,9,0,,,,,,,,,,,,,,,,,,,,,,,,,,0,8,8,5,,,,,,,,,,,,,,,,,,,,num_4,5.913947700057179,num_4,0.2,0.8,0.39999999999999997,0.9,15.2822,34.38495,return,6.332820599433035,,,,,,,,,,,,,,,,,704,21,female,up_down_width,2024-05-16_10h39.20.247,exp1,2023.1.0,60.10634013500645,
,,,,,,,,,,,,,,,,,,,,,,,,,,,,,,,,,,,,,,,,,,,,,,,,,,,,,,,,,,,,,,,,,,,,,,,,,,,c,222.89273490011692,,,,,,,,,,,,,,,704,21,female,up_down_width,2024-05-16_10h39.20.247,exp1,2023.1.0,60.10634013500645,
,,,,,,,,,,,,,,,,3,8.2,10,11.8,0,0,1.8,1.55,0.25,3.85,10,match,36.05,296,361,425,0,0,9,9,9,0,0,,,,,,,0,0,0,0,0,0,0,49,,,,,,,,,,,,num_3,2.2023561000823975,num_3,0.35,1.2,0.15000000000000002,1.7,5.73083,64.94936,return,8.778094499837607,,,,,,,,,,,,,,,,,704,21,female,up_down_width,2024-05-16_10h39.20.247,exp1,2023.1.0,60.10634013500645,
,,,,,,,,,,,,,,,,5,8.65,9.325,10,10.675,11.35,0.675,0.125,0.55,3.25,10,match,36.05,312,336,361,385,409,9,9,9,9,9,,,,,,,0,0,0,0,0,1,1,29,,,,,,,,,,,,num_5,2.8353882995434105,num_5,0.25,1.1,0.49999999999999994,0.8,19.10275,30.5644,return,5.304152300115675,,,,,,,,,,,,,,,,,704,21,female,up_down_width,2024-05-16_10h39.20.247,exp1,2023.1.0,60.10634013500645,
,,,,,,,,,,,,,,,,3,8.9,10,11.1,0,0,1.1,0.55,0.55,2.75,10,initial,36.05,321,361,400,0,0,9,9,9,0,0,,,,,,,0,0,0,0,0,2,2,0,,,,,,,,,,,,num_3,3.07133759977296,num_3,0.55,0.8,0.5,1.25,19.10275,47.75688,return,6.227055700030178,,,,,,,,,,,,,,,,,704,21,female,up_down_width,2024-05-16_10h39.20.247,exp1,2023.1.0,60.10634013500645,
,,,,,,,,,,,,,,,,4,8.65,9.55,10.45,11.35,0,0.9,0.65,0.25,2.95,10,initial,36.05,312,344,377,409,0,9,9,9,9,0,,,,,,,0,0,0,0,0,3,3,30,,,,,,,,,,,,num_4,2.0131053999066353,num_4,0.45,1.2,0.20000000000000007,1.2,7.6411,45.8466,return,5.32063899980858,,,,,,,,,,,,,,,,,704,21,female,up_down_width,2024-05-16_10h39.20.247,exp1,2023.1.0,60.10634013500645,
,,,,,,,,,,,,,,,,4,8.35,9.45,10.55,11.65,0,1.1,0.7000000000000001,0.4,3.7,10,initial,36.05,301,341,380,420,0,9,9,9,9,0,,,,,,,0,0,0,0,0,4,4,21,,,,,,,,,,,,num_4,2.3308168002404273,num_4,0.2,1.2,0.39999999999999997,1.2,15.2822,45.8466,return,6.150354899931699,,,,,,,,,,,,,,,,,704,21,female,up_down_width,2024-05-16_10h39.20.247,exp1,2023.1.0,60.10634013500645,
,,,,,,,,,,,,,,,,3,8.525,10,11.475,0,0,1.475,1.225,0.25,3.2,10,match,36.05,307,361,414,0,0,9,9,9,0,0,,,,,,,0,0,0,0,0,5,5,45,,,,,,,,,,,,num_3,1.5423929998651147,num_3,0.4,0.7,0.25000000000000006,1.5,9.55138,57.30826,return,7.652717999648303,,,,,,,,,,,,,,,,,704,21,female,up_down_width,2024-05-16_10h39.20.247,exp1,2023.1.0,60.10634013500645,
,,,,,,,,,,,,,,,,5,7.8,8.9,10,11.1,12.2,1.1,0.7000000000000001,0.4,4.800000000000001,10,initial,36.05,281,321,361,400,440,9,9,9,9,9,,,,,,,0,0,0,0,0,6,6,38,,,,,,,,,,,,num_4,1.516385099850595,num_4,0.4,0.8,0.4,1.2,15.2822,45.8466,return,6.298466600012034,,,,,,,,,,,,,,,,,704,21,female,up_down_width,2024-05-16_10h39.20.247,exp1,2023.1.0,60.10634013500645,
,,,,,,,,,,,,,,,,4,8.825,9.608333333333333,10.391666666666667,11.175,0,0.7833333333333333,0.5333333333333333,0.25,2.6,10,match,36.05,318,346,375,403,0,9,9,9,9,0,,,,,,,0,0,0,0,0,7,7,5,,,,,,,,,,,,num_5,2.422816100064665,num_5,0.35,0.7,0.2,0.95,7.6411,36.29523,return,6.6930328998714685,,,,,,,,,,,,,,,,,704,21,female,up_down_width,2024-05-16_10h39.20.247,exp1,2023.1.0,60.10634013500645,
,,,,,,,,,,,,,,,,3,9.3,10,10.7,0,0,0.7,0.29999999999999993,0.4,1.8,10,initial,36.05,335,361,386,0,0,9,9,9,0,0,,,,,,,0,0,0,0,0,8,8,9,,,,,,,,,,,,num_4,3.7457734998315573,num_4,0.35,0.6,0.35,0.7,13.37193,26.74385,return,4.058686499483883,,,,,,,,,,,,,,,,,704,21,female,up_down_width,2024-05-16_10h39.20.247,exp1,2023.1.0,60.10634013500645,
,,,,,,,,,,,,,,,,5,8.6,9.3,10,10.7,11.4,0.7,0.1499999999999999,0.55,3.3499999999999996,10,initial,36.05,310,335,361,386,411,9,9,9,9,9,,,,,,,0,0,0,0,0,9,9,40,,,,,,,,,,,,num_5,2.799841099884361,num_5,0.4,1.2,0.35000000000000003,0.7,13.37193,26.74385,return,5.791237900033593,,,,,,,,,,,,,,,,,704,21,female,up_down_width,2024-05-16_10h39.20.247,exp1,2023.1.0,60.10634013500645,
,,,,,,,,,,,,,,,,3,8.6,10,11.4,0,0,1.4,1.15,0.25,3.05,10,match,36.05,310,361,411,0,0,9,9,9,0,0,,,,,,,0,0,0,0,0,10,10,43,,,,,,,,,,,,num_3,1.5184863000176847,num_3,0.25,0.5,0.2,2.2,7.6411,84.05211,return,12.396365200169384,,,,,,,,,,,,,,,,,704,21,female,up_down_width,2024-05-16_10h39.20.247,exp1,2023.1.0,60.10634013500645,
,,,,,,,,,,,,,,,,4,9.3,9.766666666666667,10.233333333333333,10.7,0,0.4666666666666667,0.21666666666666665,0.25,1.65,10,match,36.05,335,352,369,386,0,9,9,9,9,0,,,,,,,0,0,0,0,0,11,11,8,,,,,,,,,,,,num_4,2.8907631998881698,num_4,0.4,0.5,0.30000000000000004,0.5,11.46165,19.10275,return,5.456070700194687,,,,,,,,,,,,,,,,,704,21,female,up_down_width,2024-05-16_10h39.20.247,exp1,2023.1.0,60.10634013500645,
,,,,,,,,,,,,,,,,5,8.95,9.475,10,10.525,11.05,0.525,0.125,0.4,2.5,10,match,36.05,323,342,361,379,398,9,9,9,9,9,,,,,,,0,0,0,0,0,12,12,27,,,,,,,,,,,,num_4,2.4926455998793244,num_4,0.2,1.2,0.39999999999999997,0.7,15.2822,26.74385,return,6.832690899726003,,,,,,,,,,,,,,,,,704,21,female,up_down_width,2024-05-16_10h39.20.247,exp1,2023.1.0,60.10634013500645,
,,,,,,,,,,,,,,,,5,8.2,9.1,10,10.9,11.8,0.9,0.65,0.25,3.85,10,initial,36.05,296,328,361,393,425,9,9,9,9,9,,,,,,,0,0,0,0,0,13,13,48,,,,,,,,,,,,num_5,2.3493327000178397,num_5,0.25,1.3,0.25,0.85,9.55138,32.47468,return,7.596715399529785,,,,,,,,,,,,,,,,,704,21,female,up_down_width,2024-05-16_10h39.20.247,exp1,2023.1.0,60.10634013500645,
,,,,,,,,,,,,,,,,4,9.1,9.7,10.3,10.9,0,0.6000000000000001,0.20000000000000004,0.4,2.2,10,match,36.05,328,350,371,393,0,9,9,9,9,0,,,,,,,0,0,0,0,0,14,14,16,,,,,,,,,,,,num_5,8.407530799508095,num_5,0.25,1.3,0.3,0.8,11.46165,30.5644,return,5.408497399650514,,,,,,,,,,,,,,,,,704,21,female,up_down_width,2024-05-16_10h39.20.247,exp1,2023.1.0,60.10634013500645,
,,,,,,,,,,,,,,,,4,9.1,9.7,10.3,10.9,0,0.5999999999999999,0.3499999999999999,0.25,2.05,10,match,36.05,328,350,371,393,0,9,9,9,9,0,,,,,,,0,0,0,0,0,15,15,14,,,,,,,,,,,,num_5,3.5350918998010457,num_5,0.55,1.1,0.25000000000000006,0.65,9.55138,24.83358,return,7.06976140011102,,,,,,,,,,,,,,,,,704,21,female,up_down_width,2024-05-16_10h39.20.247,exp1,2023.1.0,60.10634013500645,
,,,,,,,,,,,,,,,,5,7.8,8.9,10,11.1,12.2,1.1,0.8500000000000001,0.25,4.65,10,initial,36.05,281,321,361,400,440,9,9,9,9,9,,,,,,,0,0,0,0,0,16,16,36,,,,,,,,,,,,num_6,2.246200100053102,num_6,0.4,1.2,0.20000000000000007,1.0,7.6411,38.2055,return,7.558122800197452,,,,,,,,,,,,,,,,,704,21,female,up_down_width,2024-05-16_10h39.20.247,exp1,2023.1.0,60.10634013500645,
,,,,,,,,,,,,,,,,3,9.1,10,10.9,0,0,0.9,0.35,0.55,2.35,10,initial,36.05,328,361,393,0,0,9,9,9,0,0,,,,,,,0,0,0,0,0,17,17,11,,,,,,,,,,,,num_4,2.6920161000452936,num_4,0.25,0.8,0.39999999999999997,0.8,15.2822,30.5644,return,2.6086025000549853,,,,,,,,,,,,,,,,,704,21,female,up_down_width,2024-05-16_10h39.20.247,exp1,2023.1.0,60.10634013500645,
,,,,,,,,,,,,,,,,4,9.1,9.7,10.3,10.9,0,0.6,0.04999999999999997,0.55,2.35,10,match,36.05,328,350,371,393,0,9,9,9,9,0,,,,,,,0,0,0,0,0,18,18,12,,,,,,,,,,,,num_3,1.8195812995545566,num_3,0.35,0.6,0.7500000000000001,0.9,28.65413,34.38495,return,19.53489980008453,,,,,,,,,,,,,,,,,704,21,female,up_down_width,2024-05-16_10h39.20.247,exp1,2023.1.0,60.10634013500645,
,,,,,,,,,,,,,,,,4,8.9,9.633333333333333,10.366666666666667,11.1,0,0.7333333333333334,0.4833333333333334,0.25,2.45,10,match,36.05,321,347,374,400,0,9,9,9,9,0,,,,,,,0,0,0,0,0,19,19,3,,,,,,,,,,,,num_4,1.7618494997732341,num_4,0.4,0.8,0.20000000000000007,0.8,7.6411,30.5644,return,4.3699604999274015,,,,,,,,,,,,,,,,,704,21,female,up_down_width,2024-05-16_10h39.20.247,exp1,2023.1.0,60.10634013500645,
,,,,,,,,,,,,,,,,4,8.35,9.45,10.55,11.65,0,1.1,0.8500000000000001,0.25,3.5500000000000003,10,initial,36.05,301,341,380,420,0,9,9,9,9,0,,,,,,,0,0,0,0,0,20,20,19,,,,,,,,,,,,num_5,1.8042187998071313,num_5,0.4,0.6,0.20000000000000007,0.6,7.6411,22.9233,return,3.773655199445784,,,,,,,,,,,,,,,,,704,21,female,up_down_width,2024-05-16_10h39.20.247,exp1,2023.1.0,60.10634013500645,
,,,,,,,,,,,,,,,,3,9.3,10,10.7,0,0,0.7,0.1499999999999999,0.55,1.95,10,initial,36.05,335,361,386,0,0,9,9,9,0,0,,,,,,,0,0,0,0,0,21,21,6,,,,,,,,,,,,num_4,6.01526889950037,num_4,0.2,1.2,0.35,0.7,13.37193,26.74385,return,5.113862599711865,,,,,,,,,,,,,,,,,704,21,female,up_down_width,2024-05-16_10h39.20.247,exp1,2023.1.0,60.10634013500645,
,,,,,,,,,,,,,,,,3,8.9,10,11.1,0,0,1.1,0.7000000000000001,0.4,2.6000000000000005,10,initial,36.05,321,361,400,0,0,9,9,9,0,0,,,,,,,0,0,0,0,0,22,22,4,,,,,,,,,,,,num_3,1.5655426997691393,num_3,0.2,0.7,0.44999999999999996,1.1,17.19248,42.02605,return,6.297554499935359,,,,,,,,,,,,,,,,,704,21,female,up_down_width,2024-05-16_10h39.20.247,exp1,2023.1.0,60.10634013500645,
,,,,,,,,,,,,,,,,4,8.65,9.55,10.45,11.35,0,0.9,0.35,0.55,3.25,10,initial,36.05,312,344,377,409,0,9,9,9,9,0,,,,,,,0,0,0,0,0,23,23,28,,,,,,,,,,,,num_3,1.7917044996283948,num_3,0.45,0.7,0.45,1.1,17.19248,42.02605,return,6.78271140018478,,,,,,,,,,,,,,,,,704,21,female,up_down_width,2024-05-16_10h39.20.247,exp1,2023.1.0,60.10634013500645,
,,,,,,,,,,,,,,,,5,8.35,9.175,10,10.825,11.65,0.8250000000000001,0.275,0.55,3.85,10,match,36.05,301,331,361,390,420,9,9,9,9,9,,,,,,,0,0,0,0,0,24,24,18,,,,,,,,,,,,num_5,6.664982300251722,num_5,0.55,1.1,0.4,0.75,15.2822,28.65413,return,9.772969799581915,,,,,,,,,,,,,,,,,704,21,female,up_down_width,2024-05-16_10h39.20.247,exp1,2023.1.0,60.10634013500645,
,,,,,,,,,,,,,,,,3,7.8,10,12.2,0,0,2.2,1.65,0.55,4.95,10,match,36.05,281,361,440,0,0,9,9,9,0,0,,,,,,,0,0,0,0,0,25,25,35,,,,,,,,,,,,num_3,2.413256499916315,num_3,0.55,0.9,0.5,1.4,19.10275,53.48771,return,4.376974999904633,,,,,,,,,,,,,,,,,704,21,female,up_down_width,2024-05-16_10h39.20.247,exp1,2023.1.0,60.10634013500645,
,,,,,,,,,,,,,,,,4,8.95,9.65,10.35,11.05,0,0.7,0.44999999999999996,0.25,2.3499999999999996,10,initial,36.05,323,348,373,398,0,9,9,9,9,0,,,,,,,0,0,0,0,0,26,26,24,,,,,,,,,,,,num_4,3.6063329000025988,num_4,0.45,1.2,0.25000000000000006,1.1,9.55138,42.02605,return,3.9699745001271367,,,,,,,,,,,,,,,,,704,21,female,up_down_width,2024-05-16_10h39.20.247,exp1,2023.1.0,60.10634013500645,
,,,,,,,,,,,,,,,,3,7.800000000000001,10,12.2,0,0,2.1999999999999997,1.7999999999999998,0.4,4.8,10,match,36.05,281,361,440,0,0,9,9,9,0,0,,,,,,,0,0,0,0,0,27,27,39,,,,,,,,,,,,num_3,5.657187999691814,num_3,0.35,0.4,0.35,1.5,13.37193,57.30826,return,7.47079769987613,,,,,,,,,,,,,,,,,704,21,female,up_down_width,2024-05-16_10h39.20.247,exp1,2023.1.0,60.10634013500645,
,,,,,,,,,,,,,,,,3,9.1,10,10.9,0,0,0.9,0.65,0.25,2.05,10,initial,36.05,328,361,393,0,0,9,9,9,0,0,,,,,,,0,0,0,0,0,28,28,13,,,,,,,,,,,,num_3,3.329551899805665,num_3,0.35,0.5,0.3,1.5,11.46165,57.30826,return,9.45146800018847,,,,,,,,,,,,,,,,,704,21,female,up_down_width,2024-05-16_10h39.20.247,exp1,2023.1.0,60.10634013500645,
,,,,,,,,,,,,,,,,5,8.65,9.325,10,10.675,11.35,0.675,0.42500000000000004,0.25,2.95,10,match,36.05,312,336,361,385,409,9,9,9,9,9,,,,,,,0,0,0,0,0,29,29,31,,,,,,,,,,,,num_5,2.1524237995035946,num_5,0.35,0.4,0.35,0.85,13.37193,32.47468,return,5.2239771001040936,,,,,,,,,,,,,,,,,704,21,female,up_down_width,2024-05-16_10h39.20.247,exp1,2023.1.0,60.10634013500645,
,,,,,,,,,,,,,,,,5,8.2,9.1,10,10.9,11.8,0.9,0.5,0.4,4,10,initial,36.05,296,328,361,393,425,9,9,9,9,9,,,,,,,0,0,0,0,0,30,30,50,,,,,,,,,,,,num_5,3.032610199879855,num_5,0.5,1.0,0.35000000000000003,0.8,13.37193,30.5644,return,4.415799299720675,,,,,,,,,,,,,,,,,704,21,female,up_down_width,2024-05-16_10h39.20.247,exp1,2023.1.0,60.10634013500645,
,,,,,,,,,,,,,,,,4,9.3,9.766666666666667,10.233333333333333,10.7,0,0.4666666666666667,0.06666666666666665,0.4,1.8,10,match,36.05,335,352,369,386,0,9,9,9,9,0,,,,,,,0,0,0,0,0,31,31,10,,,,,,,,,,,,num_5,2.4967702995054424,num_5,0.5,0.7,0.5,0.6,19.10275,22.9233,return,3.9554135999642313,,,,,,,,,,,,,,,,,704,21,female,up_down_width,2024-05-16_10h39.20.247,exp1,2023.1.0,60.10634013500645,
,,,,,,,,,,,,,,,,5,8.95,9.475,10,10.525,11.05,0.525,0.275,0.25,2.35,10,match,36.05,323,342,361,379,398,9,9,9,9,9,,,,,,,0,0,0,0,0,32,32,25,,,,,,,,,,,,num_5,1.7486044000834227,num_5,0.55,1.3,0.25000000000000006,0.7,9.55138,26.74385,return,5.03002529963851,,,,,,,,,,,,,,,,,704,21,female,up_down_width,2024-05-16_10h39.20.247,exp1,2023.1.0,60.10634013500645,
,,,,,,,,,,,,,,,,3,9.3,10,10.7,0,0,0.7,0.44999999999999996,0.25,1.65,10,initial,36.05,335,361,386,0,0,9,9,9,0,0,,,,,,,0,0,0,0,0,33,33,7,,,,,,,,,,,,num_3,1.1495024994947016,num_3,0.4,0.9,0.20000000000000007,0.9,7.6411,34.38495,return,2.2010413999669254,,,,,,,,,,,,,,,,,704,21,female,up_down_width,2024-05-16_10h39.20.247,exp1,2023.1.0,60.10634013500645,
,,,,,,,,,,,,,,,,3,8.2,10,11.8,0,0,1.8,1.25,0.55,4.15,10,match,36.05,296,361,425,0,0,9,9,9,0,0,,,,,,,0,0,0,0,0,34,34,47,,,,,,,,,,,,num_3,1.4809371996670961,num_3,0.2,0.4,0.3,1.3,11.46165,49.66716,return,7.188330799806863,,,,,,,,,,,,,,,,,704,21,female,up_down_width,2024-05-16_10h39.20.247,exp1,2023.1.0,60.10634013500645,
,,,,,,,,,,,,,,,,5,8.275,9.1375,10,10.8625,11.725,0.8625,0.6125,0.25,3.7,10,match,36.05,298,329,361,392,423,9,9,9,9,9,,,,,,,0,0,0,0,0,35,35,22,,,,,,,,,,,,num_4,3.3919343994930387,num_4,0.3,1.1,0.2,1.1,7.6411,42.02605,return,3.0594068998470902,,,,,,,,,,,,,,,,,704,21,female,up_down_width,2024-05-16_10h39.20.247,exp1,2023.1.0,60.10634013500645,
,,,,,,,,,,,,,,,,4,8.95,9.65,10.35,11.05,0,0.7,0.1499999999999999,0.55,2.65,10,initial,36.05,323,348,373,398,0,9,9,9,9,0,,,,,,,0,0,0,0,0,36,36,23,,,,,,,,,,,,num_4,2.709879199974239,num_4,0.4,0.7,0.55,0.8,21.01303,30.5644,return,4.068140599876642,,,,,,,,,,,,,,,,,704,21,female,up_down_width,2024-05-16_10h39.20.247,exp1,2023.1.0,60.10634013500645,
,,,,,,,,,,,,,,,,3,9.1,10,10.9,0,0,0.9,0.5,0.4,2.2,10,initial,36.05,328,361,393,0,0,9,9,9,0,0,,,,,,,0,0,0,0,0,37,37,15,,,,,,,,,,,,num_3,1.6604700000025332,num_3,0.25,1.2,0.44999999999999996,1.05,17.19248,40.11578,return,5.748210699763149,,,,,,,,,,,,,,,,,704,21,female,up_down_width,2024-05-16_10h39.20.247,exp1,2023.1.0,60.10634013500645,
,,,,,,,,,,,,,,,,5,8.6,9.3,10,10.7,11.4,0.7,0.29999999999999993,0.4,3.1999999999999997,10,initial,36.05,310,335,361,386,411,9,9,9,9,9,,,,,,,0,0,0,0,0,38,38,44,,,,,,,,,,,,num_4,1.184807499870658,num_4,0.25,0.8,0.44999999999999996,0.8,17.19248,30.5644,return,2.751677699852735,,,,,,,,,,,,,,,,,704,21,female,up_down_width,2024-05-16_10h39.20.247,exp1,2023.1.0,60.10634013500645,
,,,,,,,,,,,,,,,,3,7.8,10,12.2,0,0,2.2,1.9500000000000002,0.25,4.65,10,match,36.05,281,361,440,0,0,9,9,9,0,0,,,,,,,0,0,0,0,0,39,39,37,,,,,,,,,,,,num_3,1.4025360997766256,num_3,0.2,1,0.25,1.55,9.55138,59.21853,return,4.8925125994719565,,,,,,,,,,,,,,,,,704,21,female,up_down_width,2024-05-16_10h39.20.247,exp1,2023.1.0,60.10634013500645,
,,,,,,,,,,,,,,,,5,8.35,9.175,10,10.825,11.65,0.825,0.575,0.25,3.55,10,match,36.05,301,331,361,390,420,9,9,9,9,9,,,,,,,0,0,0,0,0,40,40,20,,,,,,,,,,,,num_4,1.233241599984467,num_4,0.5,1.3,0.25000000000000006,1.2,9.55138,45.8466,return,5.616254299879074,,,,,,,,,,,,,,,,,704,21,female,up_down_width,2024-05-16_10h39.20.247,exp1,2023.1.0,60.10634013500645,
,,,,,,,,,,,,,,,,5,8.65,9.325,10,10.675,11.35,0.675,0.275,0.4,3.1,10,match,36.05,312,336,361,385,409,9,9,9,9,9,,,,,,,0,0,0,0,0,41,41,33,,,,,,,,,,,,num_5,1.4106434998102486,num_5,0.55,0.6,0.45,0.8,17.19248,30.5644,return,4.25807509990409,,,,,,,,,,,,,,,,,704,21,female,up_down_width,2024-05-16_10h39.20.247,exp1,2023.1.0,60.10634013500645,
,,,,,,,,,,,,,,,,3,8.6,10,11.4,0,0,1.4,0.85,0.55,3.35,10,match,36.05,310,361,411,0,0,9,9,9,0,0,,,,,,,0,0,0,0,0,42,42,41,,,,,,,,,,,,num_3,1.1578691001050174,num_3,0.35,0.7,0.44999999999999996,1.1,17.19248,42.02605,return,5.745117499958724,,,,,,,,,,,,,,,,,704,21,female,up_down_width,2024-05-16_10h39.20.247,exp1,2023.1.0,60.10634013500645,
,,,,,,,,,,,,,,,,4,8.9,9.633333333333333,10.366666666666667,11.1,0,0.7333333333333333,0.18333333333333326,0.55,2.75,10,match,36.05,321,347,374,400,0,9,9,9,9,0,,,,,,,0,0,0,0,0,43,43,1,,,,,,,,,,,,num_4,1.5398847996257246,num_4,0.2,0.8,0.44999999999999996,0.8,17.19248,30.5644,return,2.435972699895501,,,,,,,,,,,,,,,,,704,21,female,up_down_width,2024-05-16_10h39.20.247,exp1,2023.1.0,60.10634013500645,
,,,,,,,,,,,,,,,,5,7.8,8.9,10,11.1,12.2,1.1,0.55,0.55,4.95,10,initial,36.05,281,321,361,400,440,9,9,9,9,9,,,,,,,0,0,0,0,0,44,44,34,,,,,,,,,,,,num_5,1.4312040996737778,num_5,0.2,1.1,0.49999999999999994,0.95,19.10275,36.29523,return,5.205731600057334,,,,,,,,,,,,,,,,,704,21,female,up_down_width,2024-05-16_10h39.20.247,exp1,2023.1.0,60.10634013500645,
,,,,,,,,,,,,,,,,4,8.95,9.65,10.35,11.05,0,0.7,0.29999999999999993,0.4,2.5,10,initial,36.05,323,348,373,398,0,9,9,9,9,0,,,,,,,0,0,0,0,0,45,45,26,,,,,,,,,,,,num_4,1.2612995998933911,num_4,0.35,0.5,0.35,0.8,13.37193,30.5644,return,6.692742899991572,,,,,,,,,,,,,,,,,704,21,female,up_down_width,2024-05-16_10h39.20.247,exp1,2023.1.0,60.10634013500645,
,,,,,,,,,,,,,,,,4,8.65,9.55,10.45,11.35,0,0.9,0.5,0.4,3.1,10,initial,36.05,312,344,377,409,0,9,9,9,9,0,,,,,,,0,0,0,0,0,46,46,32,,,,,,,,,,,,num_4,1.365886100102216,num_4,0.4,0.5,0.30000000000000004,1.0,11.46165,38.2055,return,4.349260400049388,,,,,,,,,,,,,,,,,704,21,female,up_down_width,2024-05-16_10h39.20.247,exp1,2023.1.0,60.10634013500645,
,,,,,,,,,,,,,,,,5,8.2,9.1,10,10.9,11.8,0.9,0.35,0.55,4.15,10,initial,36.05,296,328,361,393,425,9,9,9,9,9,,,,,,,0,0,0,0,0,47,47,46,,,,,,,,,,,,num_5,1.4205420995131135,num_5,0.25,0.6,0.39999999999999997,0.8,15.2822,30.5644,return,4.913560600019991,,,,,,,,,,,,,,,,,704,21,female,up_down_width,2024-05-16_10h39.20.247,exp1,2023.1.0,60.10634013500645,
,,,,,,,,,,,,,,,,3,8.2,10,11.8,0,0,1.7999999999999998,1.4,0.4,4,10,match,36.05,296,361,425,0,0,9,9,9,0,0,,,,,,,0,0,0,0,0,48,48,51,,,,,,,,,,,,num_3,1.2607006998732686,num_3,0.55,0.8,0.45,1.85,17.19248,70.68018,return,10.208509099669755,,,,,,,,,,,,,,,,,704,21,female,up_down_width,2024-05-16_10h39.20.247,exp1,2023.1.0,60.10634013500645,
,,,,,,,,,,,,,,,,5,8.6,9.3,10,10.7,11.4,0.7,0.44999999999999996,0.25,3.05,10,initial,36.05,310,335,361,386,411,9,9,9,9,9,,,,,,,0,0,0,0,0,49,49,42,,,,,,,,,,,,num_5,1.5765010002069175,num_5,0.2,1.3,0.25,0.95,9.55138,36.29523,return,8.265464899595827,,,,,,,,,,,,,,,,,704,21,female,up_down_width,2024-05-16_10h39.20.247,exp1,2023.1.0,60.10634013500645,
,,,,,,,,,,,,,,,,3,8.9,10,11.1,0,0,1.1,0.8500000000000001,0.25,2.45,10,initial,36.05,321,361,400,0,0,9,9,9,0,0,,,,,,,0,0,0,0,0,50,50,2,,,,,,,,,,,,num_4,4.348230299539864,num_4,0.35,0.8,0.25,0.8,9.55138,30.5644,return,2.0708399997092783,,,,,,,,,,,,,,,,,704,21,female,up_down_width,2024-05-16_10h39.20.247,exp1,2023.1.0,60.10634013500645,
,,,,,,,,,,,,,,,,4,8.35,9.45,10.55,11.65,0,1.1,0.55,0.55,3.8500000000000005,10,initial,36.05,301,341,380,420,0,9,9,9,9,0,,,,,,,0,0,0,0,0,51,51,17,,,,,,,,,,,,num_4,1.5706835999153554,num_4,0.35,0.9,0.35,0.9,13.37193,34.38495,return,1.2310041999444366,,,,,,,,,,,,,,,,,704,21,female,up_down_width,2024-05-16_10h39.20.247,exp1,2023.1.0,60.10634013500645,
,,,,,,,,,,,,,,,,,,,,,,,,,,,,,,,,,,,,,,,,,,,,,0,0,0,0,,,,,,,,,,,,,,,,,,,,,,,,,,,,,1117.24678640021,1117.24678640021,1117.24678640021,,,,,,,,,,,,704,21,female,up_down_width,2024-05-16_10h39.20.247,exp1,2023.1.0,60.10634013500645,
,,,,,,,,,,,,,,,,4,9.1,9.7,10.3,10.9,0,0.5999999999999999,0.3499999999999999,0.25,2.05,10,match,36.05,328,350,371,393,0,9,9,9,9,0,,,,,,,1,0,1,0,0,0,0,14,,,,,,,,,,,,num_4,2.0813652998767793,num_4,0.4,0.7,0.20000000000000007,0.7,7.6411,26.74385,return,2.8685627998784184,,,,,,,,,,,,,,,,,704,21,female,up_down_width,2024-05-16_10h39.20.247,exp1,2023.1.0,60.10634013500645,
,,,,,,,,,,,,,,,,5,8.95,9.475,10,10.525,11.05,0.525,0.275,0.25,2.35,10,match,36.05,323,342,361,379,398,9,9,9,9,9,,,,,,,1,0,1,0,0,1,1,25,,,,,,,,,,,,num_4,2.0452537001110613,num_4,0.4,1.0,0.15000000000000008,0.7,5.73083,26.74385,return,3.2401093998923898,,,,,,,,,,,,,,,,,704,21,female,up_down_width,2024-05-16_10h39.20.247,exp1,2023.1.0,60.10634013500645,
,,,,,,,,,,,,,,,,4,8.95,9.65,10.35,11.05,0,0.7,0.1499999999999999,0.55,2.65,10,initial,36.05,323,348,373,398,0,9,9,9,9,0,,,,,,,1,0,1,0,0,2,2,23,,,,,,,,,,,,num_4,1.2454575998708606,num_4,0.35,0.7,0.35,0.7,13.37193,26.74385,return,1.0294137997552752,,,,,,,,,,,,,,,,,704,21,female,up_down_width,2024-05-16_10h39.20.247,exp1,2023.1.0,60.10634013500645,
,,,,,,,,,,,,,,,,5,8.65,9.325,10,10.675,11.35,0.675,0.42500000000000004,0.25,2.95,10,match,36.05,312,336,361,385,409,9,9,9,9,9,,,,,,,1,0,1,0,0,3,3,31,,,,,,,,,,,,num_4,1.246752499602735,num_4,0.45,0.5,0.20000000000000007,0.8,7.6411,30.5644,return,4.3312887996435165,,,,,,,,,,,,,,,,,704,21,female,up_down_width,2024-05-16_10h39.20.247,exp1,2023.1.0,60.10634013500645,
,,,,,,,,,,,,,,,,3,7.8,10,12.2,0,0,2.2,1.9500000000000002,0.25,4.65,10,match,36.05,281,361,440,0,0,9,9,9,0,0,,,,,,,1,0,1,0,0,4,4,37,,,,,,,,,,,,num_4,1.2013266999274492,num_4,0.45,1.0,0.15000000000000008,1.8,5.73083,68.76991,return,5.035353299695998,,,,,,,,,,,,,,,,,704,21,female,up_down_width,2024-05-16_10h39.20.247,exp1,2023.1.0,60.10634013500645,
,,,,,,,,,,,,,,,,4,9.3,9.766666666666667,10.233333333333333,10.7,0,0.4666666666666667,0.06666666666666665,0.4,1.8,10,match,36.05,335,352,369,386,0,9,9,9,9,0,,,,,,,1,0,1,0,0,5,5,10,,,,,,,,,,,,num_4,1.9556046999059618,num_4,0.3,0.8,0.3,0.5,11.46165,19.10275,return,2.605121999513358,,,,,,,,,,,,,,,,,704,21,female,up_down_width,2024-05-16_10h39.20.247,exp1,2023.1.0,60.10634013500645,
,,,,,,,,,,,,,,,,5,8.2,9.1,10,10.9,11.8,0.9,0.5,0.4,4,10,initial,36.05,296,328,361,393,425,9,9,9,9,9,,,,,,,1,0,1,0,0,6,6,50,,,,,,,,,,,,num_4,1.2414710000157356,num_4,0.2,0.9,0.35,1.1,13.37193,42.02605,return,6.866048299707472,,,,,,,,,,,,,,,,,704,21,female,up_down_width,2024-05-16_10h39.20.247,exp1,2023.1.0,60.10634013500645,
,,,,,,,,,,,,,,,,5,8.6,9.3,10,10.7,11.4,0.7,0.44999999999999996,0.25,3.05,10,initial,36.05,310,335,361,386,411,9,9,9,9,9,,,,,,,1,0,1,0,0,7,7,42,,,,,,,,,,,,num_5,2.2684426000341773,num_5,0.2,0.8,0.2,0.8,7.6411,30.5644,return,1.6011651000007987,,,,,,,,,,,,,,,,,704,21,female,up_down_width,2024-05-16_10h39.20.247,exp1,2023.1.0,60.10634013500645,
,,,,,,,,,,,,,,,,4,9.1,9.7,10.3,10.9,0,0.6000000000000001,0.20000000000000004,0.4,2.2,10,match,36.05,328,350,371,393,0,9,9,9,9,0,,,,,,,1,0,1,0,0,8,8,16,,,,,,,,,,,,num_5,1.7032564003020525,num_5,0.25,0.7,0.3,0.6,11.46165,22.9233,return,2.930982700083405,,,,,,,,,,,,,,,,,704,21,female,up_down_width,2024-05-16_10h39.20.247,exp1,2023.1.0,60.10634013500645,
,,,,,,,,,,,,,,,,3,7.8,10,12.2,0,0,2.2,1.65,0.55,4.95,10,match,36.05,281,361,440,0,0,9,9,9,0,0,,,,,,,1,0,1,0,0,9,9,35,,,,,,,,,,,,num_3,1.1664366996847093,num_3,0.4,0.9,0.4,2.4,15.2822,91.69321,return,11.193692999891937,,,,,,,,,,,,,,,,,704,21,female,up_down_width,2024-05-16_10h39.20.247,exp1,2023.1.0,60.10634013500645,
,,,,,,,,,,,,,,,,4,8.35,9.45,10.55,11.65,0,1.1,0.7000000000000001,0.4,3.7,10,initial,36.05,301,341,380,420,0,9,9,9,9,0,,,,,,,1,0,1,0,0,10,10,21,,,,,,,,,,,,num_4,2.761300499550998,num_4,0.2,0.6,0.35,1.2,13.37193,45.8466,return,7.576456699986011,,,,,,,,,,,,,,,,,704,21,female,up_down_width,2024-05-16_10h39.20.247,exp1,2023.1.0,60.10634013500645,
,,,,,,,,,,,,,,,,3,8.9,10,11.1,0,0,1.1,0.55,0.55,2.75,10,initial,36.05,321,361,400,0,0,9,9,9,0,0,,,,,,,1,0,1,0,0,11,11,0,,,,,,,,,,,,num_4,1.7098222998902202,num_4,0.45,1.2,0.4,1.0,15.2822,38.2055,return,2.6121389996260405,,,,,,,,,,,,,,,,,704,21,female,up_down_width,2024-05-16_10h39.20.247,exp1,2023.1.0,60.10634013500645,
,,,,,,,,,,,,,,,,4,9.1,9.7,10.3,10.9,0,0.6,0.04999999999999997,0.55,2.35,10,match,36.05,328,350,371,393,0,9,9,9,9,0,,,,,,,1,0,1,0,0,12,12,12,,,,,,,,,,,,num_4,1.4365638997405767,num_4,0.25,0.8,0.39999999999999997,0.6,15.2822,22.9233,return,4.3849657997488976,,,,,,,,,,,,,,,,,704,21,female,up_down_width,2024-05-16_10h39.20.247,exp1,2023.1.0,60.10634013500645,
,,,,,,,,,,,,,,,,4,8.95,9.65,10.35,11.05,0,0.7,0.44999999999999996,0.25,2.3499999999999996,10,initial,36.05,323,348,373,398,0,9,9,9,9,0,,,,,,,1,0,1,0,0,13,13,24,,,,,,,,,,,,num_4,1.2161391000263393,num_4,0.2,1.1,0.25,0.8,9.55138,30.5644,return,3.501846299972385,,,,,,,,,,,,,,,,,704,21,female,up_down_width,2024-05-16_10h39.20.247,exp1,2023.1.0,60.10634013500645,
,,,,,,,,,,,,,,,,5,8.35,9.175,10,10.825,11.65,0.825,0.575,0.25,3.55,10,match,36.05,301,331,361,390,420,9,9,9,9,9,,,,,,,1,0,1,0,0,14,14,20,,,,,,,,,,,,num_5,1.548120599705726,num_5,0.2,1.1,0.2,1.1,7.6411,42.02605,return,2.2050613001920283,,,,,,,,,,,,,,,,,704,21,female,up_down_width,2024-05-16_10h39.20.247,exp1,2023.1.0,60.10634013500645,
,,,,,,,,,,,,,,,,4,8.65,9.55,10.45,11.35,0,0.9,0.5,0.4,3.1,10,initial,36.05,312,344,377,409,0,9,9,9,9,0,,,,,,,1,0,1,0,0,15,15,32,,,,,,,,,,,,num_5,2.614167499821633,num_5,0.35,0.6,0.25,0.6,9.55138,22.9233,return,3.561487799976021,,,,,,,,,,,,,,,,,704,21,female,up_down_width,2024-05-16_10h39.20.247,exp1,2023.1.0,60.10634013500645,
,,,,,,,,,,,,,,,,4,8.65,9.55,10.45,11.35,0,0.9,0.35,0.55,3.25,10,initial,36.05,312,344,377,409,0,9,9,9,9,0,,,,,,,1,0,1,0,0,16,16,28,,,,,,,,,,,,num_5,2.207236399874091,num_5,0.55,0.6,0.25000000000000006,0.6,9.55138,22.9233,return,3.4889523996971548,,,,,,,,,,,,,,,,,704,21,female,up_down_width,2024-05-16_10h39.20.247,exp1,2023.1.0,60.10634013500645,
,,,,,,,,,,,,,,,,5,8.6,9.3,10,10.7,11.4,0.7,0.1499999999999999,0.55,3.3499999999999996,10,initial,36.05,310,335,361,386,411,9,9,9,9,9,,,,,,,1,0,1,0,0,17,17,40,,,,,,,,,,,,num_5,1.3414010000415146,num_5,0.35,1.0,0.39999999999999997,0.8,15.2822,30.5644,return,8.482655100058764,,,,,,,,,,,,,,,,,704,21,female,up_down_width,2024-05-16_10h39.20.247,exp1,2023.1.0,60.10634013500645,
,,,,,,,,,,,,,,,,5,8.275,9.1375,10,10.8625,11.725,0.8625,0.6125,0.25,3.7,10,match,36.05,298,329,361,392,423,9,9,9,9,9,,,,,,,1,0,1,0,0,18,18,22,,,,,,,,,,,,num_5,1.4405408999882638,num_5,0.55,0.7,0.20000000000000007,0.85,7.6411,32.47468,return,6.337563599925488,,,,,,,,,,,,,,,,,704,21,female,up_down_width,2024-05-16_10h39.20.247,exp1,2023.1.0,60.10634013500645,
,,,,,,,,,,,,,,,,4,8.35,9.45,10.55,11.65,0,1.1,0.8500000000000001,0.25,3.5500000000000003,10,initial,36.05,301,341,380,420,0,9,9,9,9,0,,,,,,,1,0,1,0,0,19,19,19,,,,,,,,,,,,num_5,2.6296314001083374,num_5,0.25,1.1,0.2,0.9,7.6411,34.38495,return,3.718127700034529,,,,,,,,,,,,,,,,,704,21,female,up_down_width,2024-05-16_10h39.20.247,exp1,2023.1.0,60.10634013500645,
,,,,,,,,,,,,,,,,3,9.1,10,10.9,0,0,0.9,0.65,0.25,2.05,10,initial,36.05,328,361,393,0,0,9,9,9,0,0,,,,,,,1,0,1,0,0,20,20,13,,,,,,,,,,,,num_4,3.779333899728954,num_4,0.45,0.6,0.20000000000000007,1.0,7.6411,38.2055,return,3.371317899785936,,,,,,,,,,,,,,,,,704,21,female,up_down_width,2024-05-16_10h39.20.247,exp1,2023.1.0,60.10634013500645,
,,,,,,,,,,,,,,,,4,9.3,9.766666666666667,10.233333333333333,10.7,0,0.4666666666666667,0.21666666666666665,0.25,1.65,10,match,36.05,335,352,369,386,0,9,9,9,9,0,,,,,,,1,0,1,0,0,21,21,8,,,,,,,,,,,,num_5,2.791584299877286,num_5,0.5,1.3,0.20000000000000007,0.6,7.6411,22.9233,return,5.745367399882525,,,,,,,,,,,,,,,,,704,21,female,up_down_width,2024-05-16_10h39.20.247,exp1,2023.1.0,60.10634013500645,
,,,,,,,,,,,,,,,,3,8.2,10,11.8,0,0,1.7999999999999998,1.4,0.4,4,10,match,36.05,296,361,425,0,0,9,9,9,0,0,,,,,,,1,0,1,0,0,22,22,51,,,,,,,,,,,,num_3,1.753358599729836,num_3,0.25,0.9,0.25,1.8,9.55138,68.76991,return,8.347629900090396,,,,,,,,,,,,,,,,,704,21,female,up_down_width,2024-05-16_10h39.20.247,exp1,2023.1.0,60.10634013500645,
,,,,,,,,,,,,,,,,5,8.65,9.325,10,10.675,11.35,0.675,0.125,0.55,3.25,10,match,36.05,312,336,361,385,409,9,9,9,9,9,,,,,,,1,0,1,0,0,23,23,29,,,,,,,,,,,,num_5,1.7384050996042788,num_5,0.5,1.2,0.4,0.8,15.2822,30.5644,return,3.8927365001291037,,,,,,,,,,,,,,,,,704,21,female,up_down_width,2024-05-16_10h39.20.247,exp1,2023.1.0,60.10634013500645,
,,,,,,,,,,,,,,,,5,8.65,9.325,10,10.675,11.35,0.675,0.275,0.4,3.1,10,match,36.05,312,336,361,385,409,9,9,9,9,9,,,,,,,1,0,1,0,0,24,24,33,,,,,,,,,,,,num_5,2.40534480009228,num_5,0.25,0.9,0.35,0.7,13.37193,26.74385,return,5.279179299715906,,,,,,,,,,,,,,,,,704,21,female,up_down_width,2024-05-16_10h39.20.247,exp1,2023.1.0,60.10634013500645,
,,,,,,,,,,,,,,,,5,7.8,8.9,10,11.1,12.2,1.1,0.55,0.55,4.95,10,initial,36.05,281,321,361,400,440,9,9,9,9,9,,,,,,,1,0,1,0,0,25,25,34,,,,,,,,,,,,num_6,1.8934800997376442,num_6,0.35,1.2,0.35,0.8,13.37193,30.5644,return,4.868121899664402,,,,,,,,,,,,,,,,,704,21,female,up_down_width,2024-05-16_10h39.20.247,exp1,2023.1.0,60.10634013500645,
,,,,,,,,,,,,,,,,5,8.2,9.1,10,10.9,11.8,0.9,0.35,0.55,4.15,10,initial,36.05,296,328,361,393,425,9,9,9,9,9,,,,,,,1,0,1,0,0,26,26,46,,,,,,,,,,,,num_6,2.4946015998721123,num_6,0.3,0.7,0.35,0.8,13.37193,30.5644,return,2.7125550997443497,,,,,,,,,,,,,,,,,704,21,female,up_down_width,2024-05-16_10h39.20.247,exp1,2023.1.0,60.10634013500645,
,,,,,,,,,,,,,,,,4,8.9,9.633333333333333,10.366666666666667,11.1,0,0.7333333333333333,0.18333333333333326,0.55,2.75,10,match,36.05,321,347,374,400,0,9,9,9,9,0,,,,,,,1,0,1,0,0,27,27,1,,,,,,,,,,,,num_4,2.544442499987781,num_4,0.25,0.5,0.44999999999999996,0.8,17.19248,30.5644,return,3.161444699857384,,,,,,,,,,,,,,,,,704,21,female,up_down_width,2024-05-16_10h39.20.247,exp1,2023.1.0,60.10634013500645,
,,,,,,,,,,,,,,,,5,8.95,9.475,10,10.525,11.05,0.525,0.125,0.4,2.5,10,match,36.05,323,342,361,379,398,9,9,9,9,9,,,,,,,1,0,1,0,0,28,28,27,,,,,,,,,,,,num_5,3.016146400012076,num_5,0.5,0.6,0.45,0.6,17.19248,22.9233,return,1.9509522998705506,,,,,,,,,,,,,,,,,704,21,female,up_down_width,2024-05-16_10h39.20.247,exp1,2023.1.0,60.10634013500645,
,,,,,,,,,,,,,,,,3,8.9,10,11.1,0,0,1.1,0.8500000000000001,0.25,2.45,10,initial,36.05,321,361,400,0,0,9,9,9,0,0,,,,,,,1,0,1,0,0,29,29,2,,,,,,,,,,,,num_3,1.1219934998080134,num_3,0.45,0.5,0.20000000000000007,1.75,7.6411,66.85963,return,7.0249005001969635,,,,,,,,,,,,,,,,,704,21,female,up_down_width,2024-05-16_10h39.20.247,exp1,2023.1.0,60.10634013500645,
,,,,,,,,,,,,,,,,3,8.2,10,11.8,0,0,1.8,1.25,0.55,4.15,10,match,36.05,296,361,425,0,0,9,9,9,0,0,,,,,,,1,0,1,0,0,30,30,47,,,,,,,,,,,,num_3,1.0327587998472154,num_3,0.25,0.8,0.39999999999999997,1.6,15.2822,61.12881,return,5.3832731996662915,,,,,,,,,,,,,,,,,704,21,female,up_down_width,2024-05-16_10h39.20.247,exp1,2023.1.0,60.10634013500645,
,,,,,,,,,,,,,,,,3,8.2,10,11.8,0,0,1.8,1.55,0.25,3.85,10,match,36.05,296,361,425,0,0,9,9,9,0,0,,,,,,,1,0,1,0,0,31,31,49,,,,,,,,,,,,num_3,1.331893099937588,num_3,0.2,0.8,0.2,1.8,7.6411,68.76991,return,5.237407099921256,,,,,,,,,,,,,,,,,704,21,female,up_down_width,2024-05-16_10h39.20.247,exp1,2023.1.0,60.10634013500645,
,,,,,,,,,,,,,,,,4,8.9,9.633333333333333,10.366666666666667,11.1,0,0.7333333333333334,0.4833333333333334,0.25,2.45,10,match,36.05,321,347,374,400,0,9,9,9,9,0,,,,,,,1,0,1,0,0,32,32,3,,,,,,,,,,,,num_3,1.0748237995430827,num_3,0.3,0.6,0.2,1.7,7.6411,64.94936,return,5.619252499658614,,,,,,,,,,,,,,,,,704,21,female,up_down_width,2024-05-16_10h39.20.247,exp1,2023.1.0,60.10634013500645,
,,,,,,,,,,,,,,,,3,8.6,10,11.4,0,0,1.4,1.15,0.25,3.05,10,match,36.05,310,361,411,0,0,9,9,9,0,0,,,,,,,1,0,1,0,0,33,33,43,,,,,,,,,,,,num_3,1.8066519000567496,num_3,0.3,0.7,0.2,1.8,7.6411,68.76991,return,7.041284299921244,,,,,,,,,,,,,,,,,704,21,female,up_down_width,2024-05-16_10h39.20.247,exp1,2023.1.0,60.10634013500645,
,,,,,,,,,,,,,,,,3,8.525,10,11.475,0,0,1.475,1.225,0.25,3.2,10,match,36.05,307,361,414,0,0,9,9,9,0,0,,,,,,,1,0,1,0,0,34,34,45,,,,,,,,,,,,num_3,1.0973478998057544,num_3,0.55,1,0.25000000000000006,1.9,9.55138,72.59046,return,6.380213999655098,,,,,,,,,,,,,,,,,704,21,female,up_down_width,2024-05-16_10h39.20.247,exp1,2023.1.0,60.10634013500645,
,,,,,,,,,,,,,,,,5,8.2,9.1,10,10.9,11.8,0.9,0.65,0.25,3.85,10,initial,36.05,296,328,361,393,425,9,9,9,9,9,,,,,,,1,0,1,0,0,35,35,48,,,,,,,,,,,,num_6,1.5101105999201536,num_6,0.2,1.1,0.2,1.1,7.6411,42.02605,return,0.9517341996543109,,,,,,,,,,,,,,,,,704,21,female,up_down_width,2024-05-16_10h39.20.247,exp1,2023.1.0,60.10634013500645,
,,,,,,,,,,,,,,,,4,8.95,9.65,10.35,11.05,0,0.7,0.29999999999999993,0.4,2.5,10,initial,36.05,323,348,373,398,0,9,9,9,9,0,,,,,,,1,0,1,0,0,36,36,26,,,,,,,,,,,,num_5,2.5804965998977423,num_5,0.4,0.8,0.35000000000000003,0.8,13.37193,30.5644,return,1.4678259999491274,,,,,,,,,,,,,,,,,704,21,female,up_down_width,2024-05-16_10h39.20.247,exp1,2023.1.0,60.10634013500645,
,,,,,,,,,,,,,,,,3,9.1,10,10.9,0,0,0.9,0.5,0.4,2.2,10,initial,36.05,328,361,393,0,0,9,9,9,0,0,,,,,,,1,0,1,0,0,37,37,15,,,,,,,,,,,,num_4,2.338345299474895,num_4,0.55,0.6,0.35000000000000003,0.7,13.37193,26.74385,return,3.104440199676901,,,,,,,,,,,,,,,,,704,21,female,up_down_width,2024-05-16_10h39.20.247,exp1,2023.1.0,60.10634013500645,
,,,,,,,,,,,,,,,,4,8.825,9.608333333333333,10.391666666666667,11.175,0,0.7833333333333333,0.5333333333333333,0.25,2.6,10,match,36.05,318,346,375,403,0,9,9,9,9,0,,,,,,,1,0,1,0,0,38,38,5,,,,,,,,,,,,num_4,1.252092500217259,num_4,0.25,0.7,0.25,0.7,9.55138,26.74385,return,0.9858093997463584,,,,,,,,,,,,,,,,,704,21,female,up_down_width,2024-05-16_10h39.20.247,exp1,2023.1.0,60.10634013500645,
,,,,,,,,,,,,,,,,5,7.8,8.9,10,11.1,12.2,1.1,0.7000000000000001,0.4,4.800000000000001,10,initial,36.05,281,321,361,400,440,9,9,9,9,9,,,,,,,1,0,1,0,0,39,39,38,,,,,,,,,,,,num_5,1.4662032001651824,num_5,0.2,0.6,0.35,0.75,13.37193,28.65413,return,3.951487799640745,,,,,,,,,,,,,,,,,704,21,female,up_down_width,2024-05-16_10h39.20.247,exp1,2023.1.0,60.10634013500645,
,,,,,,,,,,,,,,,,4,8.65,9.55,10.45,11.35,0,0.9,0.65,0.25,2.95,10,initial,36.05,312,344,377,409,0,9,9,9,9,0,,,,,,,1,0,1,0,0,40,40,30,,,,,,,,,,,,num_5,1.3359289998188615,num_5,0.35,1.2,0.2,0.95,7.6411,36.29523,return,4.811737599782646,,,,,,,,,,,,,,,,,704,21,female,up_down_width,2024-05-16_10h39.20.247,exp1,2023.1.0,60.10634013500645,
,,,,,,,,,,,,,,,,3,7.800000000000001,10,12.2,0,0,2.1999999999999997,1.7999999999999998,0.4,4.8,10,match,36.05,281,361,440,0,0,9,9,9,0,0,,,,,,,1,0,1,0,0,41,41,39,,,,,,,,,,,,num_3,1.386569599620998,num_3,0.45,1.2,0.30000000000000004,1.95,11.46165,74.50073,return,5.617847099900246,,,,,,,,,,,,,,,,,704,21,female,up_down_width,2024-05-16_10h39.20.247,exp1,2023.1.0,60.10634013500645,
,,,,,,,,,,,,,,,,5,8.35,9.175,10,10.825,11.65,0.8250000000000001,0.275,0.55,3.85,10,match,36.05,301,331,361,390,420,9,9,9,9,9,,,,,,,1,0,1,0,0,42,42,18,,,,,,,,,,,,num_5,1.5099864001385868,num_5,0.3,0.5,0.39999999999999997,0.85,15.2822,32.47468,return,4.479702199809253,,,,,,,,,,,,,,,,,704,21,female,up_down_width,2024-05-16_10h39.20.247,exp1,2023.1.0,60.10634013500645,
,,,,,,,,,,,,,,,,3,9.1,10,10.9,0,0,0.9,0.35,0.55,2.35,10,initial,36.05,328,361,393,0,0,9,9,9,0,0,,,,,,,1,0,1,0,0,43,43,11,,,,,,,,,,,,num_4,2.497683399822563,num_4,0.5,1.0,0.5,1.0,19.10275,38.2055,return,1.8615091000683606,,,,,,,,,,,,,,,,,704,21,female,up_down_width,2024-05-16_10h39.20.247,exp1,2023.1.0,60.10634013500645,
,,,,,,,,,,,,,,,,3,8.6,10,11.4,0,0,1.4,0.85,0.55,3.35,10,match,36.05,310,361,411,0,0,9,9,9,0,0,,,,,,,1,0,1,0,0,44,44,41,,,,,,,,,,,,num_4,1.987476599868387,num_4,0.55,0.8,0.55,1.0,21.01303,38.2055,return,3.251552799716592,,,,,,,,,,,,,,,,,704,21,female,up_down_width,2024-05-16_10h39.20.247,exp1,2023.1.0,60.10634013500645,
,,,,,,,,,,,,,,,,3,9.3,10,10.7,0,0,0.7,0.29999999999999993,0.4,1.8,10,initial,36.05,335,361,386,0,0,9,9,9,0,0,,,,,,,1,0,1,0,0,45,45,9,,,,,,,,,,,,num_3,1.1657809000462294,num_3,0.2,0.8,0.44999999999999996,0.85,17.19248,32.47468,return,3.374514099676162,,,,,,,,,,,,,,,,,704,21,female,up_down_width,2024-05-16_10h39.20.247,exp1,2023.1.0,60.10634013500645,
,,,,,,,,,,,,,,,,4,8.35,9.45,10.55,11.65,0,1.1,0.55,0.55,3.8500000000000005,10,initial,36.05,301,341,380,420,0,9,9,9,9,0,,,,,,,1,0,1,0,0,46,46,17,,,,,,,,,,,,num_4,1.6298842998221517,num_4,0.2,0.8,0.44999999999999996,0.8,17.19248,30.5644,return,2.9240461997687817,,,,,,,,,,,,,,,,,704,21,female,up_down_width,2024-05-16_10h39.20.247,exp1,2023.1.0,60.10634013500645,
,,,,,,,,,,,,,,,,3,9.3,10,10.7,0,0,0.7,0.44999999999999996,0.25,1.65,10,initial,36.05,335,361,386,0,0,9,9,9,0,0,,,,,,,1,0,1,0,0,47,47,7,,,,,,,,,,,,num_4,1.3492886000312865,num_4,0.45,0.7,0.25000000000000006,0.7,9.55138,26.74385,return,3.4822629997506738,,,,,,,,,,,,,,,,,704,21,female,up_down_width,2024-05-16_10h39.20.247,exp1,2023.1.0,60.10634013500645,
,,,,,,,,,,,,,,,,3,9.3,10,10.7,0,0,0.7,0.1499999999999999,0.55,1.95,10,initial,36.05,335,361,386,0,0,9,9,9,0,0,,,,,,,1,0,1,0,0,48,48,6,,,,,,,,,,,,num_3,1.247870999854058,num_3,0.2,1.3,0.44999999999999996,1.0,17.19248,38.2055,return,3.75331879965961,,,,,,,,,,,,,,,,,704,21,female,up_down_width,2024-05-16_10h39.20.247,exp1,2023.1.0,60.10634013500645,
,,,,,,,,,,,,,,,,5,7.8,8.9,10,11.1,12.2,1.1,0.8500000000000001,0.25,4.65,10,initial,36.05,281,321,361,400,440,9,9,9,9,9,,,,,,,1,0,1,0,0,49,49,36,,,,,,,,,,,,num_5,1.1083440999500453,num_5,0.2,1.0,0.2,1.0,7.6411,38.2055,return,1.072694200091064,,,,,,,,,,,,,,,,,704,21,female,up_down_width,2024-05-16_10h39.20.247,exp1,2023.1.0,60.10634013500645,
,,,,,,,,,,,,,,,,5,8.6,9.3,10,10.7,11.4,0.7,0.29999999999999993,0.4,3.1999999999999997,10,initial,36.05,310,335,361,386,411,9,9,9,9,9,,,,,,,1,0,1,0,0,50,50,44,,,,,,,,,,,,num_5,1.2925997995771468,num_5,0.2,1.3,0.25,0.75,9.55138,28.65413,return,4.257302300073206,,,,,,,,,,,,,,,,,704,21,female,up_down_width,2024-05-16_10h39.20.247,exp1,2023.1.0,60.10634013500645,
,,,,,,,,,,,,,,,,3,8.9,10,11.1,0,0,1.1,0.7000000000000001,0.4,2.6000000000000005,10,initial,36.05,321,361,400,0,0,9,9,9,0,0,,,,,,,1,0,1,0,0,51,51,4,,,,,,,,,,,,num_3,1.1730037997476757,num_3,0.4,1.1,0.25000000000000006,1.0,9.55138,38.2055,return,4.428351499605924,,,,,,,,,,,,,,,,,704,21,female,up_down_width,2024-05-16_10h39.20.247,exp1,2023.1.0,60.10634013500645,
,,,,,,,,,,,,,,,,,,,,,,,,,,,,,,,,,,,,,,,,,,,,,1,0,1,0,,,,,,,,,,,,,,,,,,,,,,,,,,,,,1521.2291998001747,1521.2291998001747,1521.2291998001747,,,,,,,,,,,,704,21,female,up_down_width,2024-05-16_10h39.20.247,exp1,2023.1.0,60.10634013500645,
,,,,,,,,,,,,,,,,4,9.1,9.7,10.3,10.9,0,0.6000000000000001,0.20000000000000004,0.4,2.2,10,match,36.05,328,350,371,393,0,9,9,9,9,0,,,,,,,2,0,2,0,0,0,0,16,,,,,,,,,,,,num_4,1.7511330996640027,num_4,0.55,0.9,0.5,0.7,19.10275,26.74385,return,2.2080163001082838,,,,,,,,,,,,,,,,,704,21,female,up_down_width,2024-05-16_10h39.20.247,exp1,2023.1.0,60.10634013500645,
,,,,,,,,,,,,,,,,5,8.95,9.475,10,10.525,11.05,0.525,0.125,0.4,2.5,10,match,36.05,323,342,361,379,398,9,9,9,9,9,,,,,,,2,0,2,0,0,1,1,27,,,,,,,,,,,,num_5,1.1659578997641802,num_5,0.2,0.5,0.35,0.55,13.37193,21.01303,return,2.444464399944991,,,,,,,,,,,,,,,,,704,21,female,up_down_width,2024-05-16_10h39.20.247,exp1,2023.1.0,60.10634013500645,
,,,,,,,,,,,,,,,,4,8.65,9.55,10.45,11.35,0,0.9,0.5,0.4,3.1,10,initial,36.05,312,344,377,409,0,9,9,9,9,0,,,,,,,2,0,2,0,0,2,2,32,,,,,,,,,,,,num_5,1.6813162001781166,num_5,0.35,0.5,0.39999999999999997,0.75,15.2822,28.65413,return,7.788350900169462,,,,,,,,,,,,,,,,,704,21,female,up_down_width,2024-05-16_10h39.20.247,exp1,2023.1.0,60.10634013500645,
,,,,,,,,,,,,,,,,5,8.2,9.1,10,10.9,11.8,0.9,0.5,0.4,4,10,initial,36.05,296,328,361,393,425,9,9,9,9,9,,,,,,,2,0,2,0,0,3,3,50,,,,,,,,,,,,num_6,1.7564305001869798,num_6,0.25,0.4,0.39999999999999997,0.8,15.2822,30.5644,return,3.524207899812609,,,,,,,,,,,,,,,,,704,21,female,up_down_width,2024-05-16_10h39.20.247,exp1,2023.1.0,60.10634013500645,
,,,,,,,,,,,,,,,,5,7.8,8.9,10,11.1,12.2,1.1,0.55,0.55,4.95,10,initial,36.05,281,321,361,400,440,9,9,9,9,9,,,,,,,2,0,2,0,0,4,4,34,,,,,,,,,,,,num_6,2.1447896999306977,num_6,0.3,1.3,0.39999999999999997,0.8,15.2822,30.5644,return,4.163190999533981,,,,,,,,,,,,,,,,,704,21,female,up_down_width,2024-05-16_10h39.20.247,exp1,2023.1.0,60.10634013500645,
,,,,,,,,,,,,,,,,4,8.95,9.65,10.35,11.05,0,0.7,0.29999999999999993,0.4,2.5,10,initial,36.05,323,348,373,398,0,9,9,9,9,0,,,,,,,2,0,2,0,0,5,5,26,,,,,,,,,,,,num_6,2.3683559000492096,num_6,0.3,0.6,0.35,0.7,13.37193,26.74385,return,4.176089399959892,,,,,,,,,,,,,,,,,704,21,female,up_down_width,2024-05-16_10h39.20.247,exp1,2023.1.0,60.10634013500645,
,,,,,,,,,,,,,,,,3,8.2,10,11.8,0,0,1.8,1.25,0.55,4.15,10,match,36.05,296,361,425,0,0,9,9,9,0,0,,,,,,,2,0,2,0,0,6,6,47,,,,,,,,,,,,num_3,1.2978254999034107,num_3,0.35,0.5,0.39999999999999997,1.3,15.2822,49.66716,return,6.872132799588144,,,,,,,,,,,,,,,,,704,21,female,up_down_width,2024-05-16_10h39.20.247,exp1,2023.1.0,60.10634013500645,
,,,,,,,,,,,,,,,,3,7.8,10,12.2,0,0,2.2,1.65,0.55,4.95,10,match,36.05,281,361,440,0,0,9,9,9,0,0,,,,,,,2,0,2,0,0,7,7,35,,,,,,,,,,,,num_3,1.2018313994631171,num_3,0.25,0.5,0.39999999999999997,1.85,15.2822,70.68018,return,6.989702599588782,,,,,,,,,,,,,,,,,704,21,female,up_down_width,2024-05-16_10h39.20.247,exp1,2023.1.0,60.10634013500645,
,,,,,,,,,,,,,,,,4,8.95,9.65,10.35,11.05,0,0.7,0.1499999999999999,0.55,2.65,10,initial,36.05,323,348,373,398,0,9,9,9,9,0,,,,,,,2,0,2,0,0,8,8,23,,,,,,,,,,,,num_3,1.1357514997944236,num_3,0.2,0.8,0.49999999999999994,0.85,19.10275,32.47468,return,4.898258800152689,,,,,,,,,,,,,,,,,704,21,female,up_down_width,2024-05-16_10h39.20.247,exp1,2023.1.0,60.10634013500645,
,,,,,,,,,,,,,,,,3,8.6,10,11.4,0,0,1.4,0.85,0.55,3.35,10,match,36.05,310,361,411,0,0,9,9,9,0,0,,,,,,,2,0,2,0,0,9,9,41,,,,,,,,,,,,num_3,1.758659299928695,num_3,0.45,1,0.45,1.65,17.19248,63.03908,return,3.920161799993366,,,,,,,,,,,,,,,,,704,21,female,up_down_width,2024-05-16_10h39.20.247,exp1,2023.1.0,60.10634013500645,
,,,,,,,,,,,,,,,,3,9.3,10,10.7,0,0,0.7,0.29999999999999993,0.4,1.8,10,initial,36.05,335,361,386,0,0,9,9,9,0,0,,,,,,,2,0,2,0,0,10,10,9,,,,,,,,,,,,num_3,2.275778000243008,num_3,0.2,0.5,0.44999999999999996,0.65,17.19248,24.83358,return,3.7146009001880884,,,,,,,,,,,,,,,,,704,21,female,up_down_width,2024-05-16_10h39.20.247,exp1,2023.1.0,60.10634013500645,
,,,,,,,,,,,,,,,,4,9.1,9.7,10.3,10.9,0,0.5999999999999999,0.3499999999999999,0.25,2.05,10,match,36.05,328,350,371,393,0,9,9,9,9,0,,,,,,,2,0,2,0,0,11,11,14,,,,,,,,,,,,num_4,1.2803960996679962,num_4,0.55,1.0,0.25000000000000006,0.8,9.55138,30.5644,return,5.1116186999715865,,,,,,,,,,,,,,,,,704,21,female,up_down_width,2024-05-16_10h39.20.247,exp1,2023.1.0,60.10634013500645,
,,,,,,,,,,,,,,,,3,9.1,10,10.9,0,0,0.9,0.35,0.55,2.35,10,initial,36.05,328,361,393,0,0,9,9,9,0,0,,,,,,,2,0,2,0,0,12,12,11,,,,,,,,,,,,num_4,1.7658840999938548,num_4,0.25,0.5,0.35,0.7,13.37193,26.74385,return,3.4012699997983873,,,,,,,,,,,,,,,,,704,21,female,up_down_width,2024-05-16_10h39.20.247,exp1,2023.1.0,60.10634013500645,
,,,,,,,,,,,,,,,,3,9.3,10,10.7,0,0,0.7,0.44999999999999996,0.25,1.65,10,initial,36.05,335,361,386,0,0,9,9,9,0,0,,,,,,,2,0,2,0,0,13,13,7,,,,,,,,,,,,num_4,2.6063574999570847,num_4,0.5,0.6,0.25000000000000006,0.6,9.55138,22.9233,return,2.7237583003006876,,,,,,,,,,,,,,,,,704,21,female,up_down_width,2024-05-16_10h39.20.247,exp1,2023.1.0,60.10634013500645,
,,,,,,,,,,,,,,,,3,7.800000000000001,10,12.2,0,0,2.1999999999999997,1.7999999999999998,0.4,4.8,10,match,36.05,281,361,440,0,0,9,9,9,0,0,,,,,,,2,0,2,0,0,14,14,39,,,,,,,,,,,,num_4,3.5207793000154197,num_4,0.35,0.9,0.3,0.9,11.46165,34.38495,return,1.6473746001720428,,,,,,,,,,,,,,,,,704,21,female,up_down_width,2024-05-16_10h39.20.247,exp1,2023.1.0,60.10634013500645,
,,,,,,,,,,,,,,,,5,7.8,8.9,10,11.1,12.2,1.1,0.8500000000000001,0.25,4.65,10,initial,36.05,281,321,361,400,440,9,9,9,9,9,,,,,,,2,0,2,0,0,15,15,36,,,,,,,,,,,,num_5,1.3147519999183714,num_5,0.35,1.0,0.25,0.95,9.55138,36.29523,return,2.514862499665469,,,,,,,,,,,,,,,,,704,21,female,up_down_width,2024-05-16_10h39.20.247,exp1,2023.1.0,60.10634013500645,
,,,,,,,,,,,,,,,,4,9.3,9.766666666666667,10.233333333333333,10.7,0,0.4666666666666667,0.06666666666666665,0.4,1.8,10,match,36.05,335,352,369,386,0,9,9,9,9,0,,,,,,,2,0,2,0,0,16,16,10,,,,,,,,,,,,num_5,1.5154520999640226,num_5,0.2,1.2,0.3,0.5,11.46165,19.10275,return,5.277406400069594,,,,,,,,,,,,,,,,,704,21,female,up_down_width,2024-05-16_10h39.20.247,exp1,2023.1.0,60.10634013500645,
,,,,,,,,,,,,,,,,5,8.2,9.1,10,10.9,11.8,0.9,0.65,0.25,3.85,10,initial,36.05,296,328,361,393,425,9,9,9,9,9,,,,,,,2,0,2,0,0,17,17,48,,,,,,,,,,,,num_6,2.033013100270182,num_6,0.35,1.2,0.2,0.8,7.6411,30.5644,return,5.726714999880642,,,,,,,,,,,,,,,,,704,21,female,up_down_width,2024-05-16_10h39.20.247,exp1,2023.1.0,60.10634013500645,
,,,,,,,,,,,,,,,,3,8.2,10,11.8,0,0,1.7999999999999998,1.4,0.4,4,10,match,36.05,296,361,425,0,0,9,9,9,0,0,,,,,,,2,0,2,0,0,18,18,51,,,,,,,,,,,,num_3,4.349405599758029,num_3,0.25,0.5,0.3,1.6,11.46165,61.12881,return,8.248623799998313,,,,,,,,,,,,,,,,,704,21,female,up_down_width,2024-05-16_10h39.20.247,exp1,2023.1.0,60.10634013500645,
,,,,,,,,,,,,,,,,3,8.9,10,11.1,0,0,1.1,0.7000000000000001,0.4,2.6000000000000005,10,initial,36.05,321,361,400,0,0,9,9,9,0,0,,,,,,,2,0,2,0,0,19,19,4,,,,,,,,,,,,num_4,1.8420140999369323,num_4,0.45,1.1,0.25000000000000006,1.1,9.55138,42.02605,return,1.8874047002755105,,,,,,,,,,,,,,,,,704,21,female,up_down_width,2024-05-16_10h39.20.247,exp1,2023.1.0,60.10634013500645,
,,,,,,,,,,,,,,,,4,8.65,9.55,10.45,11.35,0,0.9,0.35,0.55,3.25,10,initial,36.05,312,344,377,409,0,9,9,9,9,0,,,,,,,2,0,2,0,0,20,20,28,,,,,,,,,,,,num_4,1.2927656001411378,num_4,0.5,1.1,0.45,1.1,17.19248,42.02605,return,2.215466699562967,,,,,,,,,,,,,,,,,704,21,female,up_down_width,2024-05-16_10h39.20.247,exp1,2023.1.0,60.10634013500645,
,,,,,,,,,,,,,,,,3,8.9,10,11.1,0,0,1.1,0.55,0.55,2.75,10,initial,36.05,321,361,400,0,0,9,9,9,0,0,,,,,,,2,0,2,0,0,21,21,0,,,,,,,,,,,,num_3,1.4041011999361217,num_3,0.45,0.5,0.25000000000000006,1.2,9.55138,45.8466,return,5.416787499561906,,,,,,,,,,,,,,,,,704,21,female,up_down_width,2024-05-16_10h39.20.247,exp1,2023.1.0,60.10634013500645,
,,,,,,,,,,,,,,,,4,8.35,9.45,10.55,11.65,0,1.1,0.7000000000000001,0.4,3.7,10,initial,36.05,301,341,380,420,0,9,9,9,9,0,,,,,,,2,0,2,0,0,22,22,21,,,,,,,,,,,,num_4,1.0095061999745667,num_4,0.45,0.9,0.25000000000000006,1.0,9.55138,38.2055,return,3.4633508999831975,,,,,,,,,,,,,,,,,704,21,female,up_down_width,2024-05-16_10h39.20.247,exp1,2023.1.0,60.10634013500645,
,,,,,,,,,,,,,,,,5,8.6,9.3,10,10.7,11.4,0.7,0.29999999999999993,0.4,3.1999999999999997,10,initial,36.05,310,335,361,386,411,9,9,9,9,9,,,,,,,2,0,2,0,0,23,23,44,,,,,,,,,,,,num_5,1.2859659995883703,num_5,0.5,1.0,0.35000000000000003,0.75,13.37193,28.65413,return,2.8306149998679757,,,,,,,,,,,,,,,,,704,21,female,up_down_width,2024-05-16_10h39.20.247,exp1,2023.1.0,60.10634013500645,
,,,,,,,,,,,,,,,,4,8.9,9.633333333333333,10.366666666666667,11.1,0,0.7333333333333333,0.18333333333333326,0.55,2.75,10,match,36.05,321,347,374,400,0,9,9,9,9,0,,,,,,,2,0,2,0,0,24,24,1,,,,,,,,,,,,num_5,1.3206543000414968,num_5,0.25,1.2,0.39999999999999997,0.7,15.2822,26.74385,return,6.672056499868631,,,,,,,,,,,,,,,,,704,21,female,up_down_width,2024-05-16_10h39.20.247,exp1,2023.1.0,60.10634013500645,
,,,,,,,,,,,,,,,,4,8.95,9.65,10.35,11.05,0,0.7,0.44999999999999996,0.25,2.3499999999999996,10,initial,36.05,323,348,373,398,0,9,9,9,9,0,,,,,,,2,0,2,0,0,25,25,24,,,,,,,,,,,,num_5,1.3766231001354754,num_5,0.55,1.1,0.15000000000000008,0.8,5.73083,30.5644,return,7.494745799805969,,,,,,,,,,,,,,,,,704,21,female,up_down_width,2024-05-16_10h39.20.247,exp1,2023.1.0,60.10634013500645,
,,,,,,,,,,,,,,,,3,8.525,10,11.475,0,0,1.475,1.225,0.25,3.2,10,match,36.05,307,361,414,0,0,9,9,9,0,0,,,,,,,2,0,2,0,0,26,26,45,,,,,,,,,,,,num_5,0.9386765998788178,num_5,0.3,0.9,0.15000000000000002,0.95,5.73083,36.29523,return,5.17116709984839,,,,,,,,,,,,,,,,,704,21,female,up_down_width,2024-05-16_10h39.20.247,exp1,2023.1.0,60.10634013500645,
,,,,,,,,,,,,,,,,3,9.1,10,10.9,0,0,0.9,0.65,0.25,2.05,10,initial,36.05,328,361,393,0,0,9,9,9,0,0,,,,,,,2,0,2,0,0,27,27,13,,,,,,,,,,,,num_4,2.6227678996510804,num_4,0.2,0.7,0.15000000000000002,1.0,5.73083,38.2055,return,6.868183699902147,,,,,,,,,,,,,,,,,704,21,female,up_down_width,2024-05-16_10h39.20.247,exp1,2023.1.0,60.10634013500645,
,,,,,,,,,,,,,,,,3,8.2,10,11.8,0,0,1.8,1.55,0.25,3.85,10,match,36.05,296,361,425,0,0,9,9,9,0,0,,,,,,,2,0,2,0,0,28,28,49,,,,,,,,,,,,num_4,2.2110434998758137,num_4,0.25,0.9,0.15000000000000002,1.2,5.73083,45.8466,return,3.1136067998595536,,,,,,,,,,,,,,,,,704,21,female,up_down_width,2024-05-16_10h39.20.247,exp1,2023.1.0,60.10634013500645,
,,,,,,,,,,,,,,,,3,7.8,10,12.2,0,0,2.2,1.9500000000000002,0.25,4.65,10,match,36.05,281,361,440,0,0,9,9,9,0,0,,,,,,,2,0,2,0,0,29,29,37,,,,,,,,,,,,num_5,2.8270598999224603,num_5,0.35,0.8,0.15000000000000002,1.2,5.73083,45.8466,return,6.609608099795878,,,,,,,,,,,,,,,,,704,21,female,up_down_width,2024-05-16_10h39.20.247,exp1,2023.1.0,60.10634013500645,
,,,,,,,,,,,,,,,,5,8.65,9.325,10,10.675,11.35,0.675,0.125,0.55,3.25,10,match,36.05,312,336,361,385,409,9,9,9,9,9,,,,,,,2,0,2,0,0,30,30,29,,,,,,,,,,,,num_5,3.752965399995446,num_5,0.3,1.1,0.3,0.75,11.46165,28.65413,return,4.21867509977892,,,,,,,,,,,,,,,,,704,21,female,up_down_width,2024-05-16_10h39.20.247,exp1,2023.1.0,60.10634013500645,
,,,,,,,,,,,,,,,,3,9.3,10,10.7,0,0,0.7,0.1499999999999999,0.55,1.95,10,initial,36.05,335,361,386,0,0,9,9,9,0,0,,,,,,,2,0,2,0,0,31,31,6,,,,,,,,,,,,num_3,0.9753584996797144,num_3,0.3,1.1,0.44999999999999996,0.8,17.19248,30.5644,return,4.356133999768645,,,,,,,,,,,,,,,,,704,21,female,up_down_width,2024-05-16_10h39.20.247,exp1,2023.1.0,60.10634013500645,
,,,,,,,,,,,,,,,,3,8.6,10,11.4,0,0,1.4,1.15,0.25,3.05,10,match,36.05,310,361,411,0,0,9,9,9,0,0,,,,,,,2,0,2,0,0,32,32,43,,,,,,,,,,,,num_3,1.1637178002856672,num_3,0.25,1,0.25,1.4,9.55138,53.48771,return,6.5721275000832975,,,,,,,,,,,,,,,,,704,21,female,up_down_width,2024-05-16_10h39.20.247,exp1,2023.1.0,60.10634013500645,
,,,,,,,,,,,,,,,,4,9.3,9.766666666666667,10.233333333333333,10.7,0,0.4666666666666667,0.21666666666666665,0.25,1.65,10,match,36.05,335,352,369,386,0,9,9,9,9,0,,,,,,,2,0,2,0,0,33,33,8,,,,,,,,,,,,num_4,1.875058799982071,num_4,0.5,1.1,0.30000000000000004,0.6,11.46165,22.9233,return,4.259698700159788,,,,,,,,,,,,,,,,,704,21,female,up_down_width,2024-05-16_10h39.20.247,exp1,2023.1.0,60.10634013500645,
,,,,,,,,,,,,,,,,5,8.275,9.1375,10,10.8625,11.725,0.8625,0.6125,0.25,3.7,10,match,36.05,298,329,361,392,423,9,9,9,9,9,,,,,,,2,0,2,0,0,34,34,22,,,,,,,,,,,,num_5,1.9176447996869683,num_5,0.5,0.9,0.30000000000000004,0.7,11.46165,26.74385,return,4.441304599866271,,,,,,,,,,,,,,,,,704,21,female,up_down_width,2024-05-16_10h39.20.247,exp1,2023.1.0,60.10634013500645,
,,,,,,,,,,,,,,,,3,8.9,10,11.1,0,0,1.1,0.8500000000000001,0.25,2.45,10,initial,36.05,321,361,400,0,0,9,9,9,0,0,,,,,,,2,0,2,0,0,35,35,2,,,,,,,,,,,,num_5,1.6539662000723183,num_5,0.35,0.5,0.25,0.75,9.55138,28.65413,return,5.135487699881196,,,,,,,,,,,,,,,,,704,21,female,up_down_width,2024-05-16_10h39.20.247,exp1,2023.1.0,60.10634013500645,
,,,,,,,,,,,,,,,,4,8.825,9.608333333333333,10.391666666666667,11.175,0,0.7833333333333333,0.5333333333333333,0.25,2.6,10,match,36.05,318,346,375,403,0,9,9,9,9,0,,,,,,,2,0,2,0,0,36,36,5,,,,,,,,,,,,num_5,1.1750647998414934,num_5,0.4,0.7,0.25000000000000006,0.7,9.55138,26.74385,return,2.2623657998628914,,,,,,,,,,,,,,,,,704,21,female,up_down_width,2024-05-16_10h39.20.247,exp1,2023.1.0,60.10634013500645,
,,,,,,,,,,,,,,,,4,8.35,9.45,10.55,11.65,0,1.1,0.55,0.55,3.8500000000000005,10,initial,36.05,301,341,380,420,0,9,9,9,9,0,,,,,,,2,0,2,0,0,37,37,17,,,,,,,,,,,,num_5,1.3478017998859286,num_5,0.3,1.2,0.35,0.8,13.37193,30.5644,return,3.8002077997662127,,,,,,,,,,,,,,,,,704,21,female,up_down_width,2024-05-16_10h39.20.247,exp1,2023.1.0,60.10634013500645,
,,,,,,,,,,,,,,,,4,9.1,9.7,10.3,10.9,0,0.6,0.04999999999999997,0.55,2.35,10,match,36.05,328,350,371,393,0,9,9,9,9,0,,,,,,,2,0,2,0,0,38,38,12,,,,,,,,,,,,num_4,2.1040531997568905,num_4,0.25,0.4,0.44999999999999996,0.6,17.19248,22.9233,return,4.796933299861848,,,,,,,,,,,,,,,,,704,21,female,up_down_width,2024-05-16_10h39.20.247,exp1,2023.1.0,60.10634013500645,
,,,,,,,,,,,,,,,,5,8.6,9.3,10,10.7,11.4,0.7,0.1499999999999999,0.55,3.3499999999999996,10,initial,36.05,310,335,361,386,411,9,9,9,9,9,,,,,,,2,0,2,0,0,39,39,40,,,,,,,,,,,,num_5,1.3477114997804165,num_5,0.2,1.3,0.44999999999999996,0.65,17.19248,24.83358,return,4.786052899900824,,,,,,,,,,,,,,,,,704,21,female,up_down_width,2024-05-16_10h39.20.247,exp1,2023.1.0,60.10634013500645,
,,,,,,,,,,,,,,,,5,8.65,9.325,10,10.675,11.35,0.675,0.42500000000000004,0.25,2.95,10,match,36.05,312,336,361,385,409,9,9,9,9,9,,,,,,,2,0,2,0,0,40,40,31,,,,,,,,,,,,num_5,0.9549058000557125,num_5,0.45,1.2,0.15000000000000008,0.9,5.73083,34.38495,return,4.415756700094789,,,,,,,,,,,,,,,,,704,21,female,up_down_width,2024-05-16_10h39.20.247,exp1,2023.1.0,60.10634013500645,
,,,,,,,,,,,,,,,,5,8.35,9.175,10,10.825,11.65,0.825,0.575,0.25,3.55,10,match,36.05,301,331,361,390,420,9,9,9,9,9,,,,,,,2,0,2,0,0,41,41,20,,,,,,,,,,,,num_5,1.1886967997998,num_5,0.3,1.1,0.2,0.9,7.6411,34.38495,return,5.13284910004586,,,,,,,,,,,,,,,,,704,21,female,up_down_width,2024-05-16_10h39.20.247,exp1,2023.1.0,60.10634013500645,
,,,,,,,,,,,,,,,,3,9.1,10,10.9,0,0,0.9,0.5,0.4,2.2,10,initial,36.05,328,361,393,0,0,9,9,9,0,0,,,,,,,2,0,2,0,0,42,42,15,,,,,,,,,,,,num_4,1.3265475002117455,num_4,0.5,1.3,0.25000000000000006,1.0,9.55138,38.2055,return,3.885978499893099,,,,,,,,,,,,,,,,,704,21,female,up_down_width,2024-05-16_10h39.20.247,exp1,2023.1.0,60.10634013500645,
,,,,,,,,,,,,,,,,5,8.95,9.475,10,10.525,11.05,0.525,0.275,0.25,2.35,10,match,36.05,323,342,361,379,398,9,9,9,9,9,,,,,,,2,0,2,0,0,43,43,25,,,,,,,,,,,,num_5,1.5187708996236324,num_5,0.25,1.1,0.2,0.85,7.6411,32.47468,return,3.0247098999097943,,,,,,,,,,,,,,,,,704,21,female,up_down_width,2024-05-16_10h39.20.247,exp1,2023.1.0,60.10634013500645,
,,,,,,,,,,,,,,,,5,8.65,9.325,10,10.675,11.35,0.675,0.275,0.4,3.1,10,match,36.05,312,336,361,385,409,9,9,9,9,9,,,,,,,2,0,2,0,0,44,44,33,,,,,,,,,,,,num_5,1.1059048995375633,num_5,0.2,1.1,0.3,0.65,11.46165,24.83358,return,2.9486412000842392,,,,,,,,,,,,,,,,,704,21,female,up_down_width,2024-05-16_10h39.20.247,exp1,2023.1.0,60.10634013500645,
,,,,,,,,,,,,,,,,5,8.6,9.3,10,10.7,11.4,0.7,0.44999999999999996,0.25,3.05,10,initial,36.05,310,335,361,386,411,9,9,9,9,9,,,,,,,2,0,2,0,0,45,45,42,,,,,,,,,,,,num_5,1.057389299850911,num_5,0.4,1.2,0.25000000000000006,0.85,9.55138,32.47468,return,3.5039448998868465,,,,,,,,,,,,,,,,,704,21,female,up_down_width,2024-05-16_10h39.20.247,exp1,2023.1.0,60.10634013500645,
,,,,,,,,,,,,,,,,4,8.35,9.45,10.55,11.65,0,1.1,0.8500000000000001,0.25,3.5500000000000003,10,initial,36.05,301,341,380,420,0,9,9,9,9,0,,,,,,,2,0,2,0,0,46,46,19,,,,,,,,,,,,num_6,2.0419286000542343,num_6,0.3,0.7,0.2,0.7,7.6411,26.74385,return,1.7677512997761369,,,,,,,,,,,,,,,,,704,21,female,up_down_width,2024-05-16_10h39.20.247,exp1,2023.1.0,60.10634013500645,
,,,,,,,,,,,,,,,,4,8.65,9.55,10.45,11.35,0,0.9,0.65,0.25,2.95,10,initial,36.05,312,344,377,409,0,9,9,9,9,0,,,,,,,2,0,2,0,0,47,47,30,,,,,,,,,,,,num_4,1.06494709989056,num_4,0.2,1.2,0.15000000000000002,0.9,5.73083,34.38495,return,1.946527199819684,,,,,,,,,,,,,,,,,704,21,female,up_down_width,2024-05-16_10h39.20.247,exp1,2023.1.0,60.10634013500645,
,,,,,,,,,,,,,,,,5,8.2,9.1,10,10.9,11.8,0.9,0.35,0.55,4.15,10,initial,36.05,296,328,361,393,425,9,9,9,9,9,,,,,,,2,0,2,0,0,48,48,46,,,,,,,,,,,,num_6,1.5973319001495838,num_6,0.25,0.9,0.35,0.6,13.37193,22.9233,return,2.457135200034827,,,,,,,,,,,,,,,,,704,21,female,up_down_width,2024-05-16_10h39.20.247,exp1,2023.1.0,60.10634013500645,
,,,,,,,,,,,,,,,,5,8.35,9.175,10,10.825,11.65,0.8250000000000001,0.275,0.55,3.85,10,match,36.05,301,331,361,390,420,9,9,9,9,9,,,,,,,2,0,2,0,0,49,49,18,,,,,,,,,,,,num_5,1.1214317996054888,num_5,0.25,0.7,0.44999999999999996,0.7,17.19248,26.74385,return,3.2820389000698924,,,,,,,,,,,,,,,,,704,21,female,up_down_width,2024-05-16_10h39.20.247,exp1,2023.1.0,60.10634013500645,
,,,,,,,,,,,,,,,,5,7.8,8.9,10,11.1,12.2,1.1,0.7000000000000001,0.4,4.800000000000001,10,initial,36.05,281,321,361,400,440,9,9,9,9,9,,,,,,,2,0,2,0,0,50,50,38,,,,,,,,,,,,num_5,1.1493942998349667,num_5,0.2,1.3,0.44999999999999996,1.1,17.19248,42.02605,return,3.1345629999414086,,,,,,,,,,,,,,,,,704,21,female,up_down_width,2024-05-16_10h39.20.247,exp1,2023.1.0,60.10634013500645,
,,,,,,,,,,,,,,,,4,8.9,9.633333333333333,10.366666666666667,11.1,0,0.7333333333333334,0.4833333333333334,0.25,2.45,10,match,36.05,321,347,374,400,0,9,9,9,9,0,,,,,,,2,0,2,0,0,51,51,3,,,,,,,,,,,,num_4,1.0583917000330985,num_4,0.2,0.5,0.25,0.9,9.55138,34.38495,return,2.816761499736458,,,,,,,,,,,,,,,,,704,21,female,up_down_width,2024-05-16_10h39.20.247,exp1,2023.1.0,60.10634013500645,
,,,,,,,,,,,,,,,,,,,,,,,,,,,,,,,,,,,,,,,,,,,,,2,0,2,0,,,,,,,,,,,,,,,,,,,,,,,,,,,,,1919.961855799891,1919.961855799891,1919.961855799891,,,,,,,,,,,,704,21,female,up_down_width,2024-05-16_10h39.20.247,exp1,2023.1.0,60.10634013500645,
,,,,,,,,,,,,,,,,3,9.1,10,10.9,0,0,0.9,0.65,0.25,2.05,10,initial,36.05,328,361,393,0,0,9,9,9,0,0,,,,,,,3,0,3,0,0,0,0,13,,,,,,,,,,,,num_3,1.8680098997429013,num_3,0.4,0.8,0.30000000000000004,0.85,11.46165,32.47468,return,2.2358451997861266,,,,,,,,,,,,,,,,,704,21,female,up_down_width,2024-05-16_10h39.20.247,exp1,2023.1.0,60.10634013500645,
,,,,,,,,,,,,,,,,3,9.3,10,10.7,0,0,0.7,0.29999999999999993,0.4,1.8,10,initial,36.05,335,361,386,0,0,9,9,9,0,0,,,,,,,3,0,3,0,0,1,1,9,,,,,,,,,,,,num_3,0.9862624001689255,num_3,0.25,1.1,0.44999999999999996,0.85,17.19248,32.47468,return,3.038225300144404,,,,,,,,,,,,,,,,,704,21,female,up_down_width,2024-05-16_10h39.20.247,exp1,2023.1.0,60.10634013500645,
,,,,,,,,,,,,,,,,4,8.35,9.45,10.55,11.65,0,1.1,0.7000000000000001,0.4,3.7,10,initial,36.05,301,341,380,420,0,9,9,9,9,0,,,,,,,3,0,3,0,0,2,2,21,,,,,,,,,,,,num_4,0.9136413997039199,num_4,0.3,0.4,0.3,1.1,11.46165,42.02605,return,4.3961282996460795,,,,,,,,,,,,,,,,,704,21,female,up_down_width,2024-05-16_10h39.20.247,exp1,2023.1.0,60.10634013500645,
,,,,,,,,,,,,,,,,5,8.6,9.3,10,10.7,11.4,0.7,0.44999999999999996,0.25,3.05,10,initial,36.05,310,335,361,386,411,9,9,9,9,9,,,,,,,3,0,3,0,0,3,3,42,,,,,,,,,,,,num_4,1.0681619998067617,num_4,0.25,0.7,0.35,1.3,13.37193,49.66716,return,2.7492797998711467,,,,,,,,,,,,,,,,,704,21,female,up_down_width,2024-05-16_10h39.20.247,exp1,2023.1.0,60.10634013500645,
,,,,,,,,,,,,,,,,3,8.2,10,11.8,0,0,1.7999999999999998,1.4,0.4,4,10,match,36.05,296,361,425,0,0,9,9,9,0,0,,,,,,,3,0,3,0,0,4,4,51,,,,,,,,,,,,num_3,1.0460774996317923,num_3,0.45,0.6,0.30000000000000004,1.9,11.46165,72.59046,return,7.675045999698341,,,,,,,,,,,,,,,,,704,21,female,up_down_width,2024-05-16_10h39.20.247,exp1,2023.1.0,60.10634013500645,
,,,,,,,,,,,,,,,,3,8.2,10,11.8,0,0,1.8,1.55,0.25,3.85,10,match,36.05,296,361,425,0,0,9,9,9,0,0,,,,,,,3,0,3,0,0,5,5,49,,,,,,,,,,,,num_3,1.2685316000133753,num_3,0.25,0.4,0.25,2.1,9.55138,80.23156,return,9.182475899811834,,,,,,,,,,,,,,,,,704,21,female,up_down_width,2024-05-16_10h39.20.247,exp1,2023.1.0,60.10634013500645,
,,,,,,,,,,,,,,,,3,8.2,10,11.8,0,0,1.8,1.25,0.55,4.15,10,match,36.05,296,361,425,0,0,9,9,9,0,0,,,,,,,3,0,3,0,0,6,6,47,,,,,,,,,,,,num_3,0.9757412998005748,num_3,0.4,0.5,0.25000000000000006,2.2,9.55138,84.05211,return,8.06567579973489,,,,,,,,,,,,,,,,,704,21,female,up_down_width,2024-05-16_10h39.20.247,exp1,2023.1.0,60.10634013500645,
,,,,,,,,,,,,,,,,5,8.65,9.325,10,10.675,11.35,0.675,0.275,0.4,3.1,10,match,36.05,312,336,361,385,409,9,9,9,9,9,,,,,,,3,0,3,0,0,7,7,33,,,,,,,,,,,,num_5,1.261417199857533,num_5,0.2,1.0,0.3,0.8,11.46165,30.5644,return,2.9148861002177,,,,,,,,,,,,,,,,,704,21,female,up_down_width,2024-05-16_10h39.20.247,exp1,2023.1.0,60.10634013500645,
,,,,,,,,,,,,,,,,3,8.9,10,11.1,0,0,1.1,0.8500000000000001,0.25,2.45,10,initial,36.05,321,361,400,0,0,9,9,9,0,0,,,,,,,3,0,3,0,0,8,8,2,,,,,,,,,,,,num_4,2.076550599653274,num_4,0.45,0.9,0.30000000000000004,0.9,11.46165,34.38495,return,4.003304199781269,,,,,,,,,,,,,,,,,704,21,female,up_down_width,2024-05-16_10h39.20.247,exp1,2023.1.0,60.10634013500645,
,,,,,,,,,,,,,,,,4,8.95,9.65,10.35,11.05,0,0.7,0.1499999999999999,0.55,2.65,10,initial,36.05,323,348,373,398,0,9,9,9,9,0,,,,,,,3,0,3,0,0,9,9,23,,,,,,,,,,,,num_4,1.1934236995875835,num_4,0.25,1.3,0.44999999999999996,0.8,17.19248,30.5644,return,2.804750499781221,,,,,,,,,,,,,,,,,704,21,female,up_down_width,2024-05-16_10h39.20.247,exp1,2023.1.0,60.10634013500645,
,,,,,,,,,,,,,,,,4,9.3,9.766666666666667,10.233333333333333,10.7,0,0.4666666666666667,0.21666666666666665,0.25,1.65,10,match,36.05,335,352,369,386,0,9,9,9,9,0,,,,,,,3,0,3,0,0,10,10,8,,,,,,,,,,,,num_5,1.2162297000177205,num_5,0.2,1.1,0.3,0.7,11.46165,26.74385,return,6.20756659982726,,,,,,,,,,,,,,,,,704,21,female,up_down_width,2024-05-16_10h39.20.247,exp1,2023.1.0,60.10634013500645,
,,,,,,,,,,,,,,,,4,8.825,9.608333333333333,10.391666666666667,11.175,0,0.7833333333333333,0.5333333333333333,0.25,2.6,10,match,36.05,318,346,375,403,0,9,9,9,9,0,,,,,,,3,0,3,0,0,11,11,5,,,,,,,,,,,,num_4,1.8768094996921718,num_4,0.55,1.2,0.30000000000000004,0.8,11.46165,30.5644,return,3.6183684999123216,,,,,,,,,,,,,,,,,704,21,female,up_down_width,2024-05-16_10h39.20.247,exp1,2023.1.0,60.10634013500645,
,,,,,,,,,,,,,,,,3,9.3,10,10.7,0,0,0.7,0.44999999999999996,0.25,1.65,10,initial,36.05,335,361,386,0,0,9,9,9,0,0,,,,,,,3,0,3,0,0,12,12,7,,,,,,,,,,,,num_4,2.026050499640405,num_4,0.2,0.3,0.2,0.8,7.6411,30.5644,return,3.5717849996872246,,,,,,,,,,,,,,,,,704,21,female,up_down_width,2024-05-16_10h39.20.247,exp1,2023.1.0,60.10634013500645,
,,,,,,,,,,,,,,,,3,8.6,10,11.4,0,0,1.4,1.15,0.25,3.05,10,match,36.05,310,361,411,0,0,9,9,9,0,0,,,,,,,3,0,3,0,0,13,13,43,,,,,,,,,,,,num_4,1.2122892998158932,num_4,0.25,1.2,0.2,1.2,7.6411,45.8466,return,1.6100447000935674,,,,,,,,,,,,,,,,,704,21,female,up_down_width,2024-05-16_10h39.20.247,exp1,2023.1.0,60.10634013500645,
,,,,,,,,,,,,,,,,3,8.9,10,11.1,0,0,1.1,0.7000000000000001,0.4,2.6000000000000005,10,initial,36.05,321,361,400,0,0,9,9,9,0,0,,,,,,,3,0,3,0,0,14,14,4,,,,,,,,,,,,num_3,1.2178876996040344,num_3,0.35,0.7,0.35,1.05,13.37193,40.11578,return,2.283707899507135,,,,,,,,,,,,,,,,,704,21,female,up_down_width,2024-05-16_10h39.20.247,exp1,2023.1.0,60.10634013500645,
,,,,,,,,,,,,,,,,5,7.8,8.9,10,11.1,12.2,1.1,0.8500000000000001,0.25,4.65,10,initial,36.05,281,321,361,400,440,9,9,9,9,9,,,,,,,3,0,3,0,0,15,15,36,,,,,,,,,,,,num_5,1.1799884997308254,num_5,0.35,0.5,0.25,1.1,9.55138,42.02605,return,4.663935899734497,,,,,,,,,,,,,,,,,704,21,female,up_down_width,2024-05-16_10h39.20.247,exp1,2023.1.0,60.10634013500645,
,,,,,,,,,,,,,,,,3,8.6,10,11.4,0,0,1.4,0.85,0.55,3.35,10,match,36.05,310,361,411,0,0,9,9,9,0,0,,,,,,,3,0,3,0,0,16,16,41,,,,,,,,,,,,num_3,0.9018306001089513,num_3,0.3,0.6,0.35,1.3,13.37193,49.66716,return,5.339253299869597,,,,,,,,,,,,,,,,,704,21,female,up_down_width,2024-05-16_10h39.20.247,exp1,2023.1.0,60.10634013500645,
,,,,,,,,,,,,,,,,5,8.35,9.175,10,10.825,11.65,0.8250000000000001,0.275,0.55,3.85,10,match,36.05,301,331,361,390,420,9,9,9,9,9,,,,,,,3,0,3,0,0,17,17,18,,,,,,,,,,,,num_5,1.088790699839592,num_5,0.25,1.3,0.44999999999999996,0.95,17.19248,36.29523,return,4.270621699746698,,,,,,,,,,,,,,,,,704,21,female,up_down_width,2024-05-16_10h39.20.247,exp1,2023.1.0,60.10634013500645,
,,,,,,,,,,,,,,,,4,8.65,9.55,10.45,11.35,0,0.9,0.65,0.25,2.95,10,initial,36.05,312,344,377,409,0,9,9,9,9,0,,,,,,,3,0,3,0,0,18,18,30,,,,,,,,,,,,num_6,1.3823436996899545,num_6,0.55,1.3,0.4,0.8,15.2822,30.5644,return,4.351193000096828,,,,,,,,,,,,,,,,,704,21,female,up_down_width,2024-05-16_10h39.20.247,exp1,2023.1.0,60.10634013500645,
,,,,,,,,,,,,,,,,4,8.65,9.55,10.45,11.35,0,0.9,0.35,0.55,3.25,10,initial,36.05,312,344,377,409,0,9,9,9,9,0,,,,,,,3,0,3,0,0,19,19,28,,,,,,,,,,,,num_5,1.149714000057429,num_5,0.55,1.0,0.55,0.95,21.01303,36.29523,return,2.572284999769181,,,,,,,,,,,,,,,,,704,21,female,up_down_width,2024-05-16_10h39.20.247,exp1,2023.1.0,60.10634013500645,
,,,,,,,,,,,,,,,,3,7.8,10,12.2,0,0,2.2,1.65,0.55,4.95,10,match,36.05,281,361,440,0,0,9,9,9,0,0,,,,,,,3,0,3,0,0,20,20,35,,,,,,,,,,,,num_4,1.4261234998703003,num_4,0.25,0.3,0.49999999999999994,1.3,19.10275,49.66716,return,6.054733899887651,,,,,,,,,,,,,,,,,704,21,female,up_down_width,2024-05-16_10h39.20.247,exp1,2023.1.0,60.10634013500645,
,,,,,,,,,,,,,,,,5,8.6,9.3,10,10.7,11.4,0.7,0.29999999999999993,0.4,3.1999999999999997,10,initial,36.05,310,335,361,386,411,9,9,9,9,9,,,,,,,3,0,3,0,0,21,21,44,,,,,,,,,,,,num_5,1.1828372995369136,num_5,0.45,0.6,0.5,0.65,19.10275,24.83358,return,2.4903090996667743,,,,,,,,,,,,,,,,,704,21,female,up_down_width,2024-05-16_10h39.20.247,exp1,2023.1.0,60.10634013500645,
,,,,,,,,,,,,,,,,3,9.1,10,10.9,0,0,0.9,0.5,0.4,2.2,10,initial,36.05,328,361,393,0,0,9,9,9,0,0,,,,,,,3,0,3,0,0,22,22,15,,,,,,,,,,,,num_4,1.5659459996968508,num_4,0.4,1.2,0.4,1.0,15.2822,38.2055,return,1.6422129995189607,,,,,,,,,,,,,,,,,704,21,female,up_down_width,2024-05-16_10h39.20.247,exp1,2023.1.0,60.10634013500645,
,,,,,,,,,,,,,,,,3,9.1,10,10.9,0,0,0.9,0.35,0.55,2.35,10,initial,36.05,328,361,393,0,0,9,9,9,0,0,,,,,,,3,0,3,0,0,23,23,11,,,,,,,,,,,,num_3,1.2098353998735547,num_3,0.35,0.6,0.39999999999999997,0.95,15.2822,36.29523,return,4.114831400103867,,,,,,,,,,,,,,,,,704,21,female,up_down_width,2024-05-16_10h39.20.247,exp1,2023.1.0,60.10634013500645,
,,,,,,,,,,,,,,,,5,8.65,9.325,10,10.675,11.35,0.675,0.42500000000000004,0.25,2.95,10,match,36.05,312,336,361,385,409,9,9,9,9,9,,,,,,,3,0,3,0,0,24,24,31,,,,,,,,,,,,num_4,1.0130696999840438,num_4,0.25,1.3,0.25,0.9,9.55138,34.38495,return,1.9772762996144593,,,,,,,,,,,,,,,,,704,21,female,up_down_width,2024-05-16_10h39.20.247,exp1,2023.1.0,60.10634013500645,
,,,,,,,,,,,,,,,,5,8.2,9.1,10,10.9,11.8,0.9,0.35,0.55,4.15,10,initial,36.05,296,328,361,393,425,9,9,9,9,9,,,,,,,3,0,3,0,0,25,25,46,,,,,,,,,,,,num_4,1.7413717000745237,num_4,0.25,1.1,0.5499999999999999,0.9,21.01303,34.38495,return,3.698001999873668,,,,,,,,,,,,,,,,,704,21,female,up_down_width,2024-05-16_10h39.20.247,exp1,2023.1.0,60.10634013500645,
,,,,,,,,,,,,,,,,3,7.8,10,12.2,0,0,2.2,1.9500000000000002,0.25,4.65,10,match,36.05,281,361,440,0,0,9,9,9,0,0,,,,,,,3,0,3,0,0,26,26,37,,,,,,,,,,,,num_4,2.5385324000380933,num_4,0.35,0.5,0.3,1.6,11.46165,61.12881,return,4.174335299991071,,,,,,,,,,,,,,,,,704,21,female,up_down_width,2024-05-16_10h39.20.247,exp1,2023.1.0,60.10634013500645,
,,,,,,,,,,,,,,,,5,8.2,9.1,10,10.9,11.8,0.9,0.5,0.4,4,10,initial,36.05,296,328,361,393,425,9,9,9,9,9,,,,,,,3,0,3,0,0,27,27,50,,,,,,,,,,,,num_5,1.0143968998454511,num_5,0.25,0.8,0.3,1.0,11.46165,38.2055,return,3.0497971996665,,,,,,,,,,,,,,,,,704,21,female,up_down_width,2024-05-16_10h39.20.247,exp1,2023.1.0,60.10634013500645,
,,,,,,,,,,,,,,,,5,8.6,9.3,10,10.7,11.4,0.7,0.1499999999999999,0.55,3.3499999999999996,10,initial,36.05,310,335,361,386,411,9,9,9,9,9,,,,,,,3,0,3,0,0,28,28,40,,,,,,,,,,,,num_5,1.0519138998351991,num_5,0.55,1.0,0.55,0.85,21.01303,32.47468,return,2.399321799632162,,,,,,,,,,,,,,,,,704,21,female,up_down_width,2024-05-16_10h39.20.247,exp1,2023.1.0,60.10634013500645,
,,,,,,,,,,,,,,,,4,8.35,9.45,10.55,11.65,0,1.1,0.55,0.55,3.8500000000000005,10,initial,36.05,301,341,380,420,0,9,9,9,9,0,,,,,,,3,0,3,0,0,29,29,17,,,,,,,,,,,,num_5,1.0327592995017767,num_5,0.25,1.0,0.44999999999999996,0.85,17.19248,32.47468,return,2.8300533001311123,,,,,,,,,,,,,,,,,704,21,female,up_down_width,2024-05-16_10h39.20.247,exp1,2023.1.0,60.10634013500645,
,,,,,,,,,,,,,,,,3,8.525,10,11.475,0,0,1.475,1.225,0.25,3.2,10,match,36.05,307,361,414,0,0,9,9,9,0,0,,,,,,,3,0,3,0,0,30,30,45,,,,,,,,,,,,num_4,1.6965883998200297,num_4,0.25,1.1,0.25,1.1,9.55138,42.02605,return,1.0820373999886215,,,,,,,,,,,,,,,,,704,21,female,up_down_width,2024-05-16_10h39.20.247,exp1,2023.1.0,60.10634013500645,
,,,,,,,,,,,,,,,,5,7.8,8.9,10,11.1,12.2,1.1,0.7000000000000001,0.4,4.800000000000001,10,initial,36.05,281,321,361,400,440,9,9,9,9,9,,,,,,,3,0,3,0,0,31,31,38,,,,,,,,,,,,num_4,1.6405007001012564,num_4,0.5,0.7,0.25000000000000006,1.0,9.55138,38.2055,return,4.51757730031386,,,,,,,,,,,,,,,,,704,21,female,up_down_width,2024-05-16_10h39.20.247,exp1,2023.1.0,60.10634013500645,
,,,,,,,,,,,,,,,,5,8.2,9.1,10,10.9,11.8,0.9,0.65,0.25,3.85,10,initial,36.05,296,328,361,393,425,9,9,9,9,9,,,,,,,3,0,3,0,0,32,32,48,,,,,,,,,,,,num_5,1.0996886999346316,num_5,0.2,0.3,0.2,0.9,7.6411,34.38495,return,3.565630199853331,,,,,,,,,,,,,,,,,704,21,female,up_down_width,2024-05-16_10h39.20.247,exp1,2023.1.0,60.10634013500645,
,,,,,,,,,,,,,,,,3,9.3,10,10.7,0,0,0.7,0.1499999999999999,0.55,1.95,10,initial,36.05,335,361,386,0,0,9,9,9,0,0,,,,,,,3,0,3,0,0,33,33,6,,,,,,,,,,,,num_3,1.0091455997899175,num_3,0.25,1.1,0.3,0.8,11.46165,30.5644,return,3.667194299865514,,,,,,,,,,,,,,,,,704,21,female,up_down_width,2024-05-16_10h39.20.247,exp1,2023.1.0,60.10634013500645,
,,,,,,,,,,,,,,,,4,8.9,9.633333333333333,10.366666666666667,11.1,0,0.7333333333333333,0.18333333333333326,0.55,2.75,10,match,36.05,321,347,374,400,0,9,9,9,9,0,,,,,,,3,0,3,0,0,34,34,1,,,,,,,,,,,,num_4,0.977685000281781,num_4,0.3,1.0,0.39999999999999997,0.7,15.2822,26.74385,return,2.373206699732691,,,,,,,,,,,,,,,,,704,21,female,up_down_width,2024-05-16_10h39.20.247,exp1,2023.1.0,60.10634013500645,
,,,,,,,,,,,,,,,,4,9.3,9.766666666666667,10.233333333333333,10.7,0,0.4666666666666667,0.06666666666666665,0.4,1.8,10,match,36.05,335,352,369,386,0,9,9,9,9,0,,,,,,,3,0,3,0,0,35,35,10,,,,,,,,,,,,num_4,0.9675785000436008,num_4,0.55,0.7,0.4,0.6,15.2822,22.9233,return,7.19401799980551,,,,,,,,,,,,,,,,,704,21,female,up_down_width,2024-05-16_10h39.20.247,exp1,2023.1.0,60.10634013500645,
,,,,,,,,,,,,,,,,5,8.95,9.475,10,10.525,11.05,0.525,0.275,0.25,2.35,10,match,36.05,323,342,361,379,398,9,9,9,9,9,,,,,,,3,0,3,0,0,36,36,25,,,,,,,,,,,,num_5,1.5491708000190556,num_5,0.35,0.8,0.25,0.65,9.55138,24.83358,return,3.101672299671918,,,,,,,,,,,,,,,,,704,21,female,up_down_width,2024-05-16_10h39.20.247,exp1,2023.1.0,60.10634013500645,
,,,,,,,,,,,,,,,,3,7.800000000000001,10,12.2,0,0,2.1999999999999997,1.7999999999999998,0.4,4.8,10,match,36.05,281,361,440,0,0,9,9,9,0,0,,,,,,,3,0,3,0,0,37,37,39,,,,,,,,,,,,num_4,1.3119688997976482,num_4,0.5,1.2,0.4,1.2,15.2822,45.8466,return,1.8958562999032438,,,,,,,,,,,,,,,,,704,21,female,up_down_width,2024-05-16_10h39.20.247,exp1,2023.1.0,60.10634013500645,
,,,,,,,,,,,,,,,,4,9.1,9.7,10.3,10.9,0,0.6,0.04999999999999997,0.55,2.35,10,match,36.05,328,350,371,393,0,9,9,9,9,0,,,,,,,3,0,3,0,0,38,38,12,,,,,,,,,,,,num_5,4.171544999815524,num_5,0.55,1.1,0.5,0.6,19.10275,22.9233,return,5.395559699740261,,,,,,,,,,,,,,,,,704,21,female,up_down_width,2024-05-16_10h39.20.247,exp1,2023.1.0,60.10634013500645,
,,,,,,,,,,,,,,,,4,8.35,9.45,10.55,11.65,0,1.1,0.8500000000000001,0.25,3.5500000000000003,10,initial,36.05,301,341,380,420,0,9,9,9,9,0,,,,,,,3,0,3,0,0,39,39,19,,,,,,,,,,,,num_5,1.9019236997701228,num_5,0.4,1.1,0.20000000000000007,0.95,7.6411,36.29523,return,3.004581299610436,,,,,,,,,,,,,,,,,704,21,female,up_down_width,2024-05-16_10h39.20.247,exp1,2023.1.0,60.10634013500645,
,,,,,,,,,,,,,,,,4,8.65,9.55,10.45,11.35,0,0.9,0.5,0.4,3.1,10,initial,36.05,312,344,377,409,0,9,9,9,9,0,,,,,,,3,0,3,0,0,40,40,32,,,,,,,,,,,,num_5,1.9294226998463273,num_5,0.45,1.3,0.25000000000000006,0.85,9.55138,32.47468,return,4.1489174999296665,,,,,,,,,,,,,,,,,704,21,female,up_down_width,2024-05-16_10h39.20.247,exp1,2023.1.0,60.10634013500645,
,,,,,,,,,,,,,,,,5,8.95,9.475,10,10.525,11.05,0.525,0.125,0.4,2.5,10,match,36.05,323,342,361,379,398,9,9,9,9,9,,,,,,,3,0,3,0,0,41,41,27,,,,,,,,,,,,num_5,1.320012899581343,num_5,0.5,1.0,0.5,0.7,19.10275,26.74385,return,3.131323099602014,,,,,,,,,,,,,,,,,704,21,female,up_down_width,2024-05-16_10h39.20.247,exp1,2023.1.0,60.10634013500645,
,,,,,,,,,,,,,,,,4,8.9,9.633333333333333,10.366666666666667,11.1,0,0.7333333333333334,0.4833333333333334,0.25,2.45,10,match,36.05,321,347,374,400,0,9,9,9,9,0,,,,,,,3,0,3,0,0,42,42,3,,,,,,,,,,,,num_5,1.1065805996768177,num_5,0.45,1.3,0.30000000000000004,0.85,11.46165,32.47468,return,5.668685299810022,,,,,,,,,,,,,,,,,704,21,female,up_down_width,2024-05-16_10h39.20.247,exp1,2023.1.0,60.10634013500645,
,,,,,,,,,,,,,,,,4,9.1,9.7,10.3,10.9,0,0.6000000000000001,0.20000000000000004,0.4,2.2,10,match,36.05,328,350,371,393,0,9,9,9,9,0,,,,,,,3,0,3,0,0,43,43,16,,,,,,,,,,,,num_5,1.7554039000533521,num_5,0.45,0.8,0.4,0.65,15.2822,24.83358,return,2.2858779998496175,,,,,,,,,,,,,,,,,704,21,female,up_down_width,2024-05-16_10h39.20.247,exp1,2023.1.0,60.10634013500645,
,,,,,,,,,,,,,,,,5,8.65,9.325,10,10.675,11.35,0.675,0.125,0.55,3.25,10,match,36.05,312,336,361,385,409,9,9,9,9,9,,,,,,,3,0,3,0,0,44,44,29,,,,,,,,,,,,num_5,1.0347283999435604,num_5,0.25,0.4,0.6,0.75,22.9233,28.65413,return,5.435653299558908,,,,,,,,,,,,,,,,,704,21,female,up_down_width,2024-05-16_10h39.20.247,exp1,2023.1.0,60.10634013500645,
,,,,,,,,,,,,,,,,4,8.95,9.65,10.35,11.05,0,0.7,0.29999999999999993,0.4,2.5,10,initial,36.05,323,348,373,398,0,9,9,9,9,0,,,,,,,3,0,3,0,0,45,45,26,,,,,,,,,,,,num_4,1.7107513002119958,num_4,0.45,1.2,0.30000000000000004,0.7,11.46165,26.74385,return,4.145724500063807,,,,,,,,,,,,,,,,,704,21,female,up_down_width,2024-05-16_10h39.20.247,exp1,2023.1.0,60.10634013500645,
,,,,,,,,,,,,,,,,5,7.8,8.9,10,11.1,12.2,1.1,0.55,0.55,4.95,10,initial,36.05,281,321,361,400,440,9,9,9,9,9,,,,,,,3,0,3,0,0,46,46,34,,,,,,,,,,,,num_5,1.1406477000564337,num_5,0.35,0.4,0.49999999999999994,0.95,19.10275,36.29523,return,5.121467199642211,,,,,,,,,,,,,,,,,704,21,female,up_down_width,2024-05-16_10h39.20.247,exp1,2023.1.0,60.10634013500645,
,,,,,,,,,,,,,,,,5,8.275,9.1375,10,10.8625,11.725,0.8625,0.6125,0.25,3.7,10,match,36.05,298,329,361,392,423,9,9,9,9,9,,,,,,,3,0,3,0,0,47,47,22,,,,,,,,,,,,num_5,1.2272034999914467,num_5,0.25,0.7,0.25,1.15,9.55138,43.93633,return,3.561566499993205,,,,,,,,,,,,,,,,,704,21,female,up_down_width,2024-05-16_10h39.20.247,exp1,2023.1.0,60.10634013500645,
,,,,,,,,,,,,,,,,5,8.35,9.175,10,10.825,11.65,0.825,0.575,0.25,3.55,10,match,36.05,301,331,361,390,420,9,9,9,9,9,,,,,,,3,0,3,0,0,48,48,20,,,,,,,,,,,,num_6,3.5983508001081645,num_6,0.5,1.3,0.20000000000000007,0.7,7.6411,26.74385,return,6.472433999646455,,,,,,,,,,,,,,,,,704,21,female,up_down_width,2024-05-16_10h39.20.247,exp1,2023.1.0,60.10634013500645,
,,,,,,,,,,,,,,,,3,8.9,10,11.1,0,0,1.1,0.55,0.55,2.75,10,initial,36.05,321,361,400,0,0,9,9,9,0,0,,,,,,,3,0,3,0,0,49,49,0,,,,,,,,,,,,num_3,2.882679699920118,num_3,0.25,0.6,0.44999999999999996,1.5,17.19248,57.30826,return,7.8495855000801384,,,,,,,,,,,,,,,,,704,21,female,up_down_width,2024-05-16_10h39.20.247,exp1,2023.1.0,60.10634013500645,
,,,,,,,,,,,,,,,,4,8.95,9.65,10.35,11.05,0,0.7,0.44999999999999996,0.25,2.3499999999999996,10,initial,36.05,323,348,373,398,0,9,9,9,9,0,,,,,,,3,0,3,0,0,50,50,24,,,,,,,,,,,,num_4,1.081026699859649,num_4,0.45,0.9,0.25000000000000006,0.9,9.55138,34.38495,return,4.357909299898893,,,,,,,,,,,,,,,,,704,21,female,up_down_width,2024-05-16_10h39.20.247,exp1,2023.1.0,60.10634013500645,
,,,,,,,,,,,,,,,,4,9.1,9.7,10.3,10.9,0,0.5999999999999999,0.3499999999999999,0.25,2.05,10,match,36.05,328,350,371,393,0,9,9,9,9,0,,,,,,,3,0,3,0,0,51,51,14,,,,,,,,,,,,num_4,1.0776376998983324,num_4,0.4,0.9,0.30000000000000004,0.9,11.46165,34.38495,return,4.0697837001644075,,,,,,,,,,,,,,,,,704,21,female,up_down_width,2024-05-16_10h39.20.247,exp1,2023.1.0,60.10634013500645,
,,,,,,,,,,,,,,,,,,,,,,,,,,,,,,,,,,,,,,,,,,,,,3,0,3,0,,,,,,,,,,,,,,,,,,,,,,,,,,,,,2300.361144100316,2300.361144100316,2300.361144100316,,,,,,,,,,,,704,21,female,up_down_width,2024-05-16_10h39.20.247,exp1,2023.1.0,60.10634013500645,
,,,,,,,,,,,,,,,,5,8.6,9.3,10,10.7,11.4,0.7,0.1499999999999999,0.55,3.3499999999999996,10,initial,36.05,310,335,361,386,411,9,9,9,9,9,,,,,,,4,0,4,0,0,0,0,40,,,,,,,,,,,,num_5,1.1487561999820173,num_5,0.2,1.3,0.35,0.75,13.37193,28.65413,return,5.6290079997852445,,,,,,,,,,,,,,,,,704,21,female,up_down_width,2024-05-16_10h39.20.247,exp1,2023.1.0,60.10634013500645,
,,,,,,,,,,,,,,,,5,8.6,9.3,10,10.7,11.4,0.7,0.29999999999999993,0.4,3.1999999999999997,10,initial,36.05,310,335,361,386,411,9,9,9,9,9,,,,,,,4,0,4,0,0,1,1,44,,,,,,,,,,,,num_5,1.2267242996022105,num_5,0.35,1.0,0.3,0.85,11.46165,32.47468,return,2.565201200079173,,,,,,,,,,,,,,,,,704,21,female,up_down_width,2024-05-16_10h39.20.247,exp1,2023.1.0,60.10634013500645,
,,,,,,,,,,,,,,,,3,9.1,10,10.9,0,0,0.9,0.35,0.55,2.35,10,initial,36.05,328,361,393,0,0,9,9,9,0,0,,,,,,,4,0,4,0,0,2,2,11,,,,,,,,,,,,num_4,1.5200376999564469,num_4,0.4,0.7,0.4,0.7,15.2822,26.74385,return,0.8499471000395715,,,,,,,,,,,,,,,,,704,21,female,up_down_width,2024-05-16_10h39.20.247,exp1,2023.1.0,60.10634013500645,
,,,,,,,,,,,,,,,,3,7.8,10,12.2,0,0,2.2,1.9500000000000002,0.25,4.65,10,match,36.05,281,361,440,0,0,9,9,9,0,0,,,,,,,4,0,4,0,0,3,3,37,,,,,,,,,,,,num_4,1.1325467000715435,num_4,0.4,0.6,0.25000000000000006,1.2,9.55138,45.8466,return,3.79104289971292,,,,,,,,,,,,,,,,,704,21,female,up_down_width,2024-05-16_10h39.20.247,exp1,2023.1.0,60.10634013500645,
,,,,,,,,,,,,,,,,4,8.95,9.65,10.35,11.05,0,0.7,0.29999999999999993,0.4,2.5,10,initial,36.05,323,348,373,398,0,9,9,9,9,0,,,,,,,4,0,4,0,0,4,4,26,,,,,,,,,,,,num_4,0.925985399633646,num_4,0.55,1.2,0.35000000000000003,0.8,13.37193,30.5644,return,2.8701932998374104,,,,,,,,,,,,,,,,,704,21,female,up_down_width,2024-05-16_10h39.20.247,exp1,2023.1.0,60.10634013500645,
,,,,,,,,,,,,,,,,5,7.8,8.9,10,11.1,12.2,1.1,0.55,0.55,4.95,10,initial,36.05,281,321,361,400,440,9,9,9,9,9,,,,,,,4,0,4,0,0,5,5,34,,,,,,,,,,,,num_5,1.6059897998347878,num_5,0.35,0.4,0.35,0.9,13.37193,34.38495,return,4.049648199696094,,,,,,,,,,,,,,,,,704,21,female,up_down_width,2024-05-16_10h39.20.247,exp1,2023.1.0,60.10634013500645,
,,,,,,,,,,,,,,,,5,8.2,9.1,10,10.9,11.8,0.9,0.35,0.55,4.15,10,initial,36.05,296,328,361,393,425,9,9,9,9,9,,,,,,,4,0,4,0,0,6,6,46,,,,,,,,,,,,num_5,1.2160903997719288,num_5,0.35,0.4,0.35,0.95,13.37193,36.29523,return,4.222672000061721,,,,,,,,,,,,,,,,,704,21,female,up_down_width,2024-05-16_10h39.20.247,exp1,2023.1.0,60.10634013500645,
,,,,,,,,,,,,,,,,3,7.8,10,12.2,0,0,2.2,1.65,0.55,4.95,10,match,36.05,281,361,440,0,0,9,9,9,0,0,,,,,,,4,0,4,0,0,7,7,35,,,,,,,,,,,,num_4,1.132632500026375,num_4,0.4,1.3,0.4,1.3,15.2822,49.66716,return,0.9865821995772421,,,,,,,,,,,,,,,,,704,21,female,up_down_width,2024-05-16_10h39.20.247,exp1,2023.1.0,60.10634013500645,
,,,,,,,,,,,,,,,,3,9.3,10,10.7,0,0,0.7,0.29999999999999993,0.4,1.8,10,initial,36.05,335,361,386,0,0,9,9,9,0,0,,,,,,,4,0,4,0,0,8,8,9,,,,,,,,,,,,num_3,1.3160769999958575,num_3,0.5,1.1,0.30000000000000004,0.75,11.46165,28.65413,return,4.569947199895978,,,,,,,,,,,,,,,,,704,21,female,up_down_width,2024-05-16_10h39.20.247,exp1,2023.1.0,60.10634013500645,
,,,,,,,,,,,,,,,,5,8.275,9.1375,10,10.8625,11.725,0.8625,0.6125,0.25,3.7,10,match,36.05,298,329,361,392,423,9,9,9,9,9,,,,,,,4,0,4,0,0,9,9,22,,,,,,,,,,,,num_5,1.22410099953413,num_5,0.4,0.7,0.25000000000000006,0.7,9.55138,26.74385,return,1.8865748001262546,,,,,,,,,,,,,,,,,704,21,female,up_down_width,2024-05-16_10h39.20.247,exp1,2023.1.0,60.10634013500645,
,,,,,,,,,,,,,,,,3,9.1,10,10.9,0,0,0.9,0.65,0.25,2.05,10,initial,36.05,328,361,393,0,0,9,9,9,0,0,,,,,,,4,0,4,0,0,10,10,13,,,,,,,,,,,,num_4,1.9228676999919116,num_4,0.35,1.2,0.3,0.7,11.46165,26.74385,return,5.151527599897236,,,,,,,,,,,,,,,,,704,21,female,up_down_width,2024-05-16_10h39.20.247,exp1,2023.1.0,60.10634013500645,
,,,,,,,,,,,,,,,,4,8.9,9.633333333333333,10.366666666666667,11.1,0,0.7333333333333334,0.4833333333333334,0.25,2.45,10,match,36.05,321,347,374,400,0,9,9,9,9,0,,,,,,,4,0,4,0,0,11,11,3,,,,,,,,,,,,num_5,1.315770999994129,num_5,0.45,0.8,0.25000000000000006,0.75,9.55138,28.65413,return,2.6374795995652676,,,,,,,,,,,,,,,,,704,21,female,up_down_width,2024-05-16_10h39.20.247,exp1,2023.1.0,60.10634013500645,
,,,,,,,,,,,,,,,,3,8.525,10,11.475,0,0,1.475,1.225,0.25,3.2,10,match,36.05,307,361,414,0,0,9,9,9,0,0,,,,,,,4,0,4,0,0,12,12,45,,,,,,,,,,,,num_4,1.852134599816054,num_4,0.25,0.3,0.2,1.4,7.6411,53.48771,return,3.3138568000867963,,,,,,,,,,,,,,,,,704,21,female,up_down_width,2024-05-16_10h39.20.247,exp1,2023.1.0,60.10634013500645,
,,,,,,,,,,,,,,,,3,8.9,10,11.1,0,0,1.1,0.55,0.55,2.75,10,initial,36.05,321,361,400,0,0,9,9,9,0,0,,,,,,,4,0,4,0,0,13,13,0,,,,,,,,,,,,num_4,2.2658632998354733,num_4,0.5,0.7,0.4,0.8,15.2822,30.5644,return,2.495001799892634,,,,,,,,,,,,,,,,,704,21,female,up_down_width,2024-05-16_10h39.20.247,exp1,2023.1.0,60.10634013500645,
,,,,,,,,,,,,,,,,4,9.1,9.7,10.3,10.9,0,0.5999999999999999,0.3499999999999999,0.25,2.05,10,match,36.05,328,350,371,393,0,9,9,9,9,0,,,,,,,4,0,4,0,0,14,14,14,,,,,,,,,,,,num_4,1.6569241997785866,num_4,0.4,0.8,0.25000000000000006,0.8,9.55138,30.5644,return,5.840373400133103,,,,,,,,,,,,,,,,,704,21,female,up_down_width,2024-05-16_10h39.20.247,exp1,2023.1.0,60.10634013500645,
,,,,,,,,,,,,,,,,4,8.825,9.608333333333333,10.391666666666667,11.175,0,0.7833333333333333,0.5333333333333333,0.25,2.6,10,match,36.05,318,346,375,403,0,9,9,9,9,0,,,,,,,4,0,4,0,0,15,15,5,,,,,,,,,,,,num_4,1.2769321999512613,num_4,0.5,1.3,0.20000000000000007,0.8,7.6411,30.5644,return,4.35597679996863,,,,,,,,,,,,,,,,,704,21,female,up_down_width,2024-05-16_10h39.20.247,exp1,2023.1.0,60.10634013500645,
,,,,,,,,,,,,,,,,4,9.3,9.766666666666667,10.233333333333333,10.7,0,0.4666666666666667,0.21666666666666665,0.25,1.65,10,match,36.05,335,352,369,386,0,9,9,9,9,0,,,,,,,4,0,4,0,0,16,16,8,,,,,,,,,,,,num_4,0.8935030996799469,num_4,0.2,0.6,0.2,0.6,7.6411,22.9233,return,0.9002629998140037,,,,,,,,,,,,,,,,,704,21,female,up_down_width,2024-05-16_10h39.20.247,exp1,2023.1.0,60.10634013500645,
,,,,,,,,,,,,,,,,3,7.800000000000001,10,12.2,0,0,2.1999999999999997,1.7999999999999998,0.4,4.8,10,match,36.05,281,361,440,0,0,9,9,9,0,0,,,,,,,4,0,4,0,0,17,17,39,,,,,,,,,,,,num_4,3.079005700070411,num_4,0.4,0.9,0.25000000000000006,1.8,9.55138,68.76991,return,6.484233999624848,,,,,,,,,,,,,,,,,704,21,female,up_down_width,2024-05-16_10h39.20.247,exp1,2023.1.0,60.10634013500645,
,,,,,,,,,,,,,,,,5,8.65,9.325,10,10.675,11.35,0.675,0.275,0.4,3.1,10,match,36.05,312,336,361,385,409,9,9,9,9,9,,,,,,,4,0,4,0,0,18,18,33,,,,,,,,,,,,num_5,1.408828599844128,num_5,0.5,0.6,0.45,0.95,17.19248,36.29523,return,4.194508699700236,,,,,,,,,,,,,,,,,704,21,female,up_down_width,2024-05-16_10h39.20.247,exp1,2023.1.0,60.10634013500645,
,,,,,,,,,,,,,,,,5,8.95,9.475,10,10.525,11.05,0.525,0.275,0.25,2.35,10,match,36.05,323,342,361,379,398,9,9,9,9,9,,,,,,,4,0,4,0,0,19,19,25,,,,,,,,,,,,num_6,1.6447656997479498,num_6,0.2,0.6,0.3,0.6,11.46165,22.9233,return,2.3528758003376424,,,,,,,,,,,,,,,,,704,21,female,up_down_width,2024-05-16_10h39.20.247,exp1,2023.1.0,60.10634013500645,
,,,,,,,,,,,,,,,,4,9.1,9.7,10.3,10.9,0,0.6000000000000001,0.20000000000000004,0.4,2.2,10,match,36.05,328,350,371,393,0,9,9,9,9,0,,,,,,,4,0,4,0,0,20,20,16,,,,,,,,,,,,num_4,1.0765956998802722,num_4,0.3,0.7,0.3,0.7,11.46165,26.74385,return,1.7997289998456836,,,,,,,,,,,,,,,,,704,21,female,up_down_width,2024-05-16_10h39.20.247,exp1,2023.1.0,60.10634013500645,
,,,,,,,,,,,,,,,,3,8.6,10,11.4,0,0,1.4,1.15,0.25,3.05,10,match,36.05,310,361,411,0,0,9,9,9,0,0,,,,,,,4,0,4,0,0,21,21,43,,,,,,,,,,,,num_5,1.6100721997208893,num_5,0.4,0.7,0.20000000000000007,0.7,7.6411,26.74385,return,3.15604899963364,,,,,,,,,,,,,,,,,704,21,female,up_down_width,2024-05-16_10h39.20.247,exp1,2023.1.0,60.10634013500645,
,,,,,,,,,,,,,,,,5,8.35,9.175,10,10.825,11.65,0.8250000000000001,0.275,0.55,3.85,10,match,36.05,301,331,361,390,420,9,9,9,9,9,,,,,,,4,0,4,0,0,22,22,18,,,,,,,,,,,,num_5,1.3026174996048212,num_5,0.55,1.2,0.4,0.95,15.2822,36.29523,return,2.9448536997660995,,,,,,,,,,,,,,,,,704,21,female,up_down_width,2024-05-16_10h39.20.247,exp1,2023.1.0,60.10634013500645,
,,,,,,,,,,,,,,,,5,7.8,8.9,10,11.1,12.2,1.1,0.8500000000000001,0.25,4.65,10,initial,36.05,281,321,361,400,440,9,9,9,9,9,,,,,,,4,0,4,0,0,23,23,36,,,,,,,,,,,,num_6,1.3520570998080075,num_6,0.25,0.5,0.25,1.2,9.55138,45.8466,return,3.099461100064218,,,,,,,,,,,,,,,,,704,21,female,up_down_width,2024-05-16_10h39.20.247,exp1,2023.1.0,60.10634013500645,
,,,,,,,,,,,,,,,,4,8.35,9.45,10.55,11.65,0,1.1,0.8500000000000001,0.25,3.5500000000000003,10,initial,36.05,301,341,380,420,0,9,9,9,9,0,,,,,,,4,0,4,0,0,24,24,19,,,,,,,,,,,,num_5,1.501199500169605,num_5,0.5,1.0,0.25000000000000006,0.95,9.55138,36.29523,return,5.822550800163299,,,,,,,,,,,,,,,,,704,21,female,up_down_width,2024-05-16_10h39.20.247,exp1,2023.1.0,60.10634013500645,
,,,,,,,,,,,,,,,,4,8.95,9.65,10.35,11.05,0,0.7,0.44999999999999996,0.25,2.3499999999999996,10,initial,36.05,323,348,373,398,0,9,9,9,9,0,,,,,,,4,0,4,0,0,25,25,24,,,,,,,,,,,,num_4,1.0974868000485003,num_4,0.25,1.2,0.2,0.9,7.6411,34.38495,return,1.996769200079143,,,,,,,,,,,,,,,,,704,21,female,up_down_width,2024-05-16_10h39.20.247,exp1,2023.1.0,60.10634013500645,
,,,,,,,,,,,,,,,,5,8.6,9.3,10,10.7,11.4,0.7,0.44999999999999996,0.25,3.05,10,initial,36.05,310,335,361,386,411,9,9,9,9,9,,,,,,,4,0,4,0,0,26,26,42,,,,,,,,,,,,num_5,1.2899486999958754,num_5,0.25,0.6,0.25,0.9,9.55138,34.38495,return,4.580558899790049,,,,,,,,,,,,,,,,,704,21,female,up_down_width,2024-05-16_10h39.20.247,exp1,2023.1.0,60.10634013500645,
,,,,,,,,,,,,,,,,3,8.6,10,11.4,0,0,1.4,0.85,0.55,3.35,10,match,36.05,310,361,411,0,0,9,9,9,0,0,,,,,,,4,0,4,0,0,27,27,41,,,,,,,,,,,,num_3,2.2446396998129785,num_3,0.3,0.8,0.39999999999999997,1.2,15.2822,45.8466,return,4.674789099954069,,,,,,,,,,,,,,,,,704,21,female,up_down_width,2024-05-16_10h39.20.247,exp1,2023.1.0,60.10634013500645,
,,,,,,,,,,,,,,,,4,8.95,9.65,10.35,11.05,0,0.7,0.1499999999999999,0.55,2.65,10,initial,36.05,323,348,373,398,0,9,9,9,9,0,,,,,,,4,0,4,0,0,28,28,23,,,,,,,,,,,,num_4,1.312561699654907,num_4,0.35,0.6,0.49999999999999994,0.8,19.10275,30.5644,return,3.253221199847758,,,,,,,,,,,,,,,,,704,21,female,up_down_width,2024-05-16_10h39.20.247,exp1,2023.1.0,60.10634013500645,
,,,,,,,,,,,,,,,,3,8.2,10,11.8,0,0,1.7999999999999998,1.4,0.4,4,10,match,36.05,296,361,425,0,0,9,9,9,0,0,,,,,,,4,0,4,0,0,29,29,51,,,,,,,,,,,,num_3,1.0880799000151455,num_3,0.45,0.5,0.4,1.6,15.2822,61.12881,return,7.007101099938154,,,,,,,,,,,,,,,,,704,21,female,up_down_width,2024-05-16_10h39.20.247,exp1,2023.1.0,60.10634013500645,
,,,,,,,,,,,,,,,,5,8.2,9.1,10,10.9,11.8,0.9,0.65,0.25,3.85,10,initial,36.05,296,328,361,393,425,9,9,9,9,9,,,,,,,4,0,4,0,0,30,30,48,,,,,,,,,,,,num_5,2.084379299543798,num_5,0.25,1.2,0.25,1.0,9.55138,38.2055,return,3.3515920997597277,,,,,,,,,,,,,,,,,704,21,female,up_down_width,2024-05-16_10h39.20.247,exp1,2023.1.0,60.10634013500645,
,,,,,,,,,,,,,,,,4,9.1,9.7,10.3,10.9,0,0.6,0.04999999999999997,0.55,2.35,10,match,36.05,328,350,371,393,0,9,9,9,9,0,,,,,,,4,0,4,0,0,31,31,12,,,,,,,,,,,,num_5,1.33283089986071,num_5,0.2,1.0,0.39999999999999997,0.55,15.2822,21.01303,return,6.46404659980908,,,,,,,,,,,,,,,,,704,21,female,up_down_width,2024-05-16_10h39.20.247,exp1,2023.1.0,60.10634013500645,
,,,,,,,,,,,,,,,,3,9.3,10,10.7,0,0,0.7,0.44999999999999996,0.25,1.65,10,initial,36.05,335,361,386,0,0,9,9,9,0,0,,,,,,,4,0,4,0,0,32,32,7,,,,,,,,,,,,num_4,1.6386501002125442,num_4,0.4,1.2,0.25000000000000006,0.7,9.55138,26.74385,return,3.3107210998423398,,,,,,,,,,,,,,,,,704,21,female,up_down_width,2024-05-16_10h39.20.247,exp1,2023.1.0,60.10634013500645,
,,,,,,,,,,,,,,,,5,8.35,9.175,10,10.825,11.65,0.825,0.575,0.25,3.55,10,match,36.05,301,331,361,390,420,9,9,9,9,9,,,,,,,4,0,4,0,0,33,33,20,,,,,,,,,,,,num_5,1.0102931000292301,num_5,0.55,1.1,0.20000000000000007,0.95,7.6411,36.29523,return,4.322021399624646,,,,,,,,,,,,,,,,,704,21,female,up_down_width,2024-05-16_10h39.20.247,exp1,2023.1.0,60.10634013500645,
,,,,,,,,,,,,,,,,3,8.2,10,11.8,0,0,1.8,1.25,0.55,4.15,10,match,36.05,296,361,425,0,0,9,9,9,0,0,,,,,,,4,0,4,0,0,34,34,47,,,,,,,,,,,,num_3,1.4396131001412868,num_3,0.3,0.4,0.3,1.6,11.46165,61.12881,return,7.397014399990439,,,,,,,,,,,,,,,,,704,21,female,up_down_width,2024-05-16_10h39.20.247,exp1,2023.1.0,60.10634013500645,
,,,,,,,,,,,,,,,,5,8.95,9.475,10,10.525,11.05,0.525,0.125,0.4,2.5,10,match,36.05,323,342,361,379,398,9,9,9,9,9,,,,,,,4,0,4,0,0,35,35,27,,,,,,,,,,,,num_5,1.7154198000207543,num_5,0.2,1.2,0.39999999999999997,0.85,15.2822,32.47468,return,4.426873199641705,,,,,,,,,,,,,,,,,704,21,female,up_down_width,2024-05-16_10h39.20.247,exp1,2023.1.0,60.10634013500645,
,,,,,,,,,,,,,,,,4,8.9,9.633333333333333,10.366666666666667,11.1,0,0.7333333333333333,0.18333333333333326,0.55,2.75,10,match,36.05,321,347,374,400,0,9,9,9,9,0,,,,,,,4,0,4,0,0,36,36,1,,,,,,,,,,,,num_5,1.3061259998939931,num_5,0.45,0.6,0.5,0.7,19.10275,26.74385,return,3.2375926999375224,,,,,,,,,,,,,,,,,704,21,female,up_down_width,2024-05-16_10h39.20.247,exp1,2023.1.0,60.10634013500645,
,,,,,,,,,,,,,,,,3,9.1,10,10.9,0,0,0.9,0.5,0.4,2.2,10,initial,36.05,328,361,393,0,0,9,9,9,0,0,,,,,,,4,0,4,0,0,37,37,15,,,,,,,,,,,,num_4,1.41839909972623,num_4,0.3,0.5,0.44999999999999996,1.0,17.19248,38.2055,return,2.5598804000765085,,,,,,,,,,,,,,,,,704,21,female,up_down_width,2024-05-16_10h39.20.247,exp1,2023.1.0,60.10634013500645,
,,,,,,,,,,,,,,,,3,8.9,10,11.1,0,0,1.1,0.8500000000000001,0.25,2.45,10,initial,36.05,321,361,400,0,0,9,9,9,0,0,,,,,,,4,0,4,0,0,38,38,2,,,,,,,,,,,,num_4,1.5628185998648405,num_4,0.3,0.8,0.25,0.8,9.55138,30.5644,return,1.4185825996100903,,,,,,,,,,,,,,,,,704,21,female,up_down_width,2024-05-16_10h39.20.247,exp1,2023.1.0,60.10634013500645,
,,,,,,,,,,,,,,,,3,8.2,10,11.8,0,0,1.8,1.55,0.25,3.85,10,match,36.05,296,361,425,0,0,9,9,9,0,0,,,,,,,4,0,4,0,0,39,39,49,,,,,,,,,,,,num_4,1.5161890001036227,num_4,0.25,0.7,0.2,1.3,7.6411,49.66716,return,4.447233199607581,,,,,,,,,,,,,,,,,704,21,female,up_down_width,2024-05-16_10h39.20.247,exp1,2023.1.0,60.10634013500645,
,,,,,,,,,,,,,,,,4,8.65,9.55,10.45,11.35,0,0.9,0.35,0.55,3.25,10,initial,36.05,312,344,377,409,0,9,9,9,9,0,,,,,,,4,0,4,0,0,40,40,28,,,,,,,,,,,,num_5,1.478210499510169,num_5,0.25,1.3,0.44999999999999996,0.95,17.19248,36.29523,return,4.307158299721777,,,,,,,,,,,,,,,,,704,21,female,up_down_width,2024-05-16_10h39.20.247,exp1,2023.1.0,60.10634013500645,
,,,,,,,,,,,,,,,,3,9.3,10,10.7,0,0,0.7,0.1499999999999999,0.55,1.95,10,initial,36.05,335,361,386,0,0,9,9,9,0,0,,,,,,,4,0,4,0,0,41,41,6,,,,,,,,,,,,num_3,1.0454090000130236,num_3,0.2,1.2,0.44999999999999996,1.05,17.19248,40.11578,return,3.943839699961245,,,,,,,,,,,,,,,,,704,21,female,up_down_width,2024-05-16_10h39.20.247,exp1,2023.1.0,60.10634013500645,
,,,,,,,,,,,,,,,,5,8.65,9.325,10,10.675,11.35,0.675,0.125,0.55,3.25,10,match,36.05,312,336,361,385,409,9,9,9,9,9,,,,,,,4,0,4,0,0,42,42,29,,,,,,,,,,,,num_4,1.4601063998416066,num_4,0.25,0.3,0.44999999999999996,0.8,17.19248,30.5644,return,3.9737102994695306,,,,,,,,,,,,,,,,,704,21,female,up_down_width,2024-05-16_10h39.20.247,exp1,2023.1.0,60.10634013500645,
,,,,,,,,,,,,,,,,4,8.35,9.45,10.55,11.65,0,1.1,0.55,0.55,3.8500000000000005,10,initial,36.05,301,341,380,420,0,9,9,9,9,0,,,,,,,4,0,4,0,0,43,43,17,,,,,,,,,,,,num_4,1.1144904997199774,num_4,0.45,1.2,0.45,1.1,17.19248,42.02605,return,3.3406085995957255,,,,,,,,,,,,,,,,,704,21,female,up_down_width,2024-05-16_10h39.20.247,exp1,2023.1.0,60.10634013500645,
,,,,,,,,,,,,,,,,5,8.2,9.1,10,10.9,11.8,0.9,0.5,0.4,4,10,initial,36.05,296,328,361,393,425,9,9,9,9,9,,,,,,,4,0,4,0,0,44,44,50,,,,,,,,,,,,num_5,1.3093921998515725,num_5,0.25,0.6,0.44999999999999996,0.8,17.19248,30.5644,return,4.609699099790305,,,,,,,,,,,,,,,,,704,21,female,up_down_width,2024-05-16_10h39.20.247,exp1,2023.1.0,60.10634013500645,
,,,,,,,,,,,,,,,,4,8.65,9.55,10.45,11.35,0,0.9,0.5,0.4,3.1,10,initial,36.05,312,344,377,409,0,9,9,9,9,0,,,,,,,4,0,4,0,0,45,45,32,,,,,,,,,,,,num_5,1.031647099647671,num_5,0.4,0.8,0.45,0.85,17.19248,32.47468,return,1.8990365997888148,,,,,,,,,,,,,,,,,704,21,female,up_down_width,2024-05-16_10h39.20.247,exp1,2023.1.0,60.10634013500645,
,,,,,,,,,,,,,,,,4,8.35,9.45,10.55,11.65,0,1.1,0.7000000000000001,0.4,3.7,10,initial,36.05,301,341,380,420,0,9,9,9,9,0,,,,,,,4,0,4,0,0,46,46,21,,,,,,,,,,,,num_5,0.9312668000347912,num_5,0.45,1.2,0.4,1.15,15.2822,43.93633,return,1.7831858000718057,,,,,,,,,,,,,,,,,704,21,female,up_down_width,2024-05-16_10h39.20.247,exp1,2023.1.0,60.10634013500645,
,,,,,,,,,,,,,,,,5,8.65,9.325,10,10.675,11.35,0.675,0.42500000000000004,0.25,2.95,10,match,36.05,312,336,361,385,409,9,9,9,9,9,,,,,,,4,0,4,0,0,47,47,31,,,,,,,,,,,,num_5,1.1130923996679485,num_5,0.5,0.9,0.30000000000000004,0.9,11.46165,34.38495,return,4.535408199764788,,,,,,,,,,,,,,,,,704,21,female,up_down_width,2024-05-16_10h39.20.247,exp1,2023.1.0,60.10634013500645,
,,,,,,,,,,,,,,,,4,9.3,9.766666666666667,10.233333333333333,10.7,0,0.4666666666666667,0.06666666666666665,0.4,1.8,10,match,36.05,335,352,369,386,0,9,9,9,9,0,,,,,,,4,0,4,0,0,48,48,10,,,,,,,,,,,,num_5,2.1345796999521554,num_5,0.2,1.1,0.35,0.55,13.37193,21.01303,return,5.163077000062913,,,,,,,,,,,,,,,,,704,21,female,up_down_width,2024-05-16_10h39.20.247,exp1,2023.1.0,60.10634013500645,
,,,,,,,,,,,,,,,,3,8.9,10,11.1,0,0,1.1,0.7000000000000001,0.4,2.6000000000000005,10,initial,36.05,321,361,400,0,0,9,9,9,0,0,,,,,,,4,0,4,0,0,49,49,4,,,,,,,,,,,,num_4,2.8268474000506103,num_4,0.45,1.2,0.30000000000000004,0.6,11.46165,22.9233,return,3.137595800217241,,,,,,,,,,,,,,,,,704,21,female,up_down_width,2024-05-16_10h39.20.247,exp1,2023.1.0,60.10634013500645,
,,,,,,,,,,,,,,,,4,8.65,9.55,10.45,11.35,0,0.9,0.65,0.25,2.95,10,initial,36.05,312,344,377,409,0,9,9,9,9,0,,,,,,,4,0,4,0,0,50,50,30,,,,,,,,,,,,num_5,0.9580016997642815,num_5,0.55,1.1,0.15000000000000008,0.65,5.73083,24.83358,return,3.698908499907702,,,,,,,,,,,,,,,,,704,21,female,up_down_width,2024-05-16_10h39.20.247,exp1,2023.1.0,60.10634013500645,
,,,,,,,,,,,,,,,,5,7.8,8.9,10,11.1,12.2,1.1,0.7000000000000001,0.4,4.800000000000001,10,initial,36.05,281,321,361,400,440,9,9,9,9,9,,,,,,,4,0,4,0,0,51,51,38,,,,,,,,,,,,num_6,2.342390399891883,num_6,0.55,1.0,0.30000000000000004,1.0,11.46165,38.2055,return,8.131248299963772,,,,,,,,,,,,,,,,,704,21,female,up_down_width,2024-05-16_10h39.20.247,exp1,2023.1.0,60.10634013500645,
,,,,,,,,,,,,,,,,,,,,,,,,,,,,,,,,,,,,,,,,,,,,,4,0,4,0,,,,,,,,,,,,,,,,,,,,,,,,,,,,,2673.6604830003344,2673.6604830003344,2673.6604830003344,,,,,,,,,,,,704,21,female,up_down_width,2024-05-16_10h39.20.247,exp1,2023.1.0,60.10634013500645,
,,,,,,,,,,,,,,,,5,8.65,9.325,10,10.675,11.35,0.675,0.42500000000000004,0.25,2.95,10,match,36.05,312,336,361,385,409,9,9,9,9,9,,,,,,,5,0,5,0,0,0,0,31,,,,,,,,,,,,num_5,0.9883802002295852,num_5,0.45,0.5,0.30000000000000004,0.8,11.46165,30.5644,return,3.534453799482435,,,,,,,,,,,,,,,,,704,21,female,up_down_width,2024-05-16_10h39.20.247,exp1,2023.1.0,60.10634013500645,
,,,,,,,,,,,,,,,,5,8.6,9.3,10,10.7,11.4,0.7,0.1499999999999999,0.55,3.3499999999999996,10,initial,36.05,310,335,361,386,411,9,9,9,9,9,,,,,,,5,0,5,0,0,1,1,40,,,,,,,,,,,,num_4,1.4857711000368,num_4,0.5,0.7,0.5,0.8,19.10275,30.5644,return,2.368227200116962,,,,,,,,,,,,,,,,,704,21,female,up_down_width,2024-05-16_10h39.20.247,exp1,2023.1.0,60.10634013500645,
,,,,,,,,,,,,,,,,5,7.8,8.9,10,11.1,12.2,1.1,0.8500000000000001,0.25,4.65,10,initial,36.05,281,321,361,400,440,9,9,9,9,9,,,,,,,5,0,5,0,0,2,2,36,,,,,,,,,,,,num_5,1.2573493998497725,num_5,0.3,1.3,0.2,0.95,7.6411,36.29523,return,3.342934099957347,,,,,,,,,,,,,,,,,704,21,female,up_down_width,2024-05-16_10h39.20.247,exp1,2023.1.0,60.10634013500645,
,,,,,,,,,,,,,,,,4,9.3,9.766666666666667,10.233333333333333,10.7,0,0.4666666666666667,0.21666666666666665,0.25,1.65,10,match,36.05,335,352,369,386,0,9,9,9,9,0,,,,,,,5,0,5,0,0,3,3,8,,,,,,,,,,,,num_4,1.0413808999583125,num_4,0.25,0.3,0.25,0.7,9.55138,26.74385,return,2.099514599889517,,,,,,,,,,,,,,,,,704,21,female,up_down_width,2024-05-16_10h39.20.247,exp1,2023.1.0,60.10634013500645,
,,,,,,,,,,,,,,,,5,8.35,9.175,10,10.825,11.65,0.8250000000000001,0.275,0.55,3.85,10,match,36.05,301,331,361,390,420,9,9,9,9,9,,,,,,,5,0,5,0,0,4,4,18,,,,,,,,,,,,num_5,1.1457676994614303,num_5,0.45,1.2,0.4,0.9,15.2822,34.38495,return,2.7950087995268404,,,,,,,,,,,,,,,,,704,21,female,up_down_width,2024-05-16_10h39.20.247,exp1,2023.1.0,60.10634013500645,
,,,,,,,,,,,,,,,,3,9.1,10,10.9,0,0,0.9,0.35,0.55,2.35,10,initial,36.05,328,361,393,0,0,9,9,9,0,0,,,,,,,5,0,5,0,0,5,5,11,,,,,,,,,,,,num_3,1.0519927996210754,num_3,0.3,1.1,0.49999999999999994,1.1,19.10275,42.02605,return,2.026976200286299,,,,,,,,,,,,,,,,,704,21,female,up_down_width,2024-05-16_10h39.20.247,exp1,2023.1.0,60.10634013500645,
,,,,,,,,,,,,,,,,5,8.6,9.3,10,10.7,11.4,0.7,0.29999999999999993,0.4,3.1999999999999997,10,initial,36.05,310,335,361,386,411,9,9,9,9,9,,,,,,,5,0,5,0,0,6,6,44,,,,,,,,,,,,num_4,0.925040100235492,num_4,0.5,1.0,0.45,1.0,17.19248,38.2055,return,1.181756000034511,,,,,,,,,,,,,,,,,704,21,female,up_down_width,2024-05-16_10h39.20.247,exp1,2023.1.0,60.10634013500645,
,,,,,,,,,,,,,,,,3,8.9,10,11.1,0,0,1.1,0.55,0.55,2.75,10,initial,36.05,321,361,400,0,0,9,9,9,0,0,,,,,,,5,0,5,0,0,7,7,0,,,,,,,,,,,,num_3,0.9924742002040148,num_3,0.45,0.7,0.5,1.2,19.10275,45.8466,return,4.771233099978417,,,,,,,,,,,,,,,,,704,21,female,up_down_width,2024-05-16_10h39.20.247,exp1,2023.1.0,60.10634013500645,
