amount_p,posx1_p,posx2_p,posx3_p,posx4_p,posx5_p,center_to_center_p,edge_to_edge_p,w_p,stim_lengt_p,eccentricity_p,line1_p,line2_p,line3_p,line4_p,line5_p,amount,posx1,posx2,posx3,posx4,posx5,center_to_center,edge_to_edge,w,stim_length,eccentricity,trial_type,deg_to_pix_index,posx1_in_pix,posx2_in_pix,posx3_in_pix,posx4_in_pix,posx5_in_pix,line1,line2,line3,line4,line5,posx,setsize_cobdi,trials.thisRepN,trials.thisTrialN,trials.thisN,trials.thisIndex,blocks.thisRepN,blocks.thisTrialN,blocks.thisN,blocks.thisIndex,loop.thisRepN,loop.thisTrialN,loop.thisN,loop.thisIndex,first.thisRepN,first.thisTrialN,first.thisN,first.thisIndex,second.thisRepN,second.thisTrialN,second.thisN,second.thisIndex,key_resp_3.started,key_resp_3.keys,key_resp_3.rt,key_resp.keys,key_resp.rt,response,starting_width_deg,starting_space_deg,response_width_degree,response_spacing_degree,response_width_pixel,response_spacing_pixel,next_5.keys,next_5.rt,key_resp_4.keys,key_resp_4.rt,text_3.started,text_4.started,key_resp_2.started,text_2.started,key_resp_2.keys,key_resp_2.rt,adjusting.started,next.keys,next.rt,text_control2.started,key_resp.started,key_resp.corr,text_bye.started,text_bye.stopped,participant,age,gender,resp_group,date,expName,psychopyVersion,frameRate,
,,,,,,,,,,,,,,,,,,,,,,,,,,,,,,,,,,,,,,,,,,,,,,,,,,,,,,,,,,,,,50.77903799992055,c,175.1818823000649,,,,,,,,,,,,,,,,,,,,,,,,,,,,710,22,male,left_right_width,2024-05-27_13h29.02.137,exp1,2023.1.0,59.993184750254386,
3,8.2,10,11.8,0,0,1.7999999999999998,1.4,0.4,4,10,9,9,9,0,0,,,,,,,,,,,,,,,,,,,,,,,,,,0,0,0,2,,,,,,,,,,,,,,,,,,,,num_3,8.291705599986017,num_3,0.35,1.2,0.35,1.5,13.37193,57.30826,return,22.679560599965043,,,,,,,,,,,,,,,,,710,22,male,left_right_width,2024-05-27_13h29.02.137,exp1,2023.1.0,59.993184750254386,
4,8.65,9.55,10.45,11.35,0,0.9,0.5,0.4,3.1,10,9,9,9,9,0,,,,,,,,,,,,,,,,,,,,,,,,,,0,1,1,5,,,,,,,,,,,,,,,,,,,,num_3,4.003061800030991,num_3,0.25,1,0.3,1.2,11.46165,45.8466,return,4.017795699997805,,,,,,,,,,,,,,,,,710,22,male,left_right_width,2024-05-27_13h29.02.137,exp1,2023.1.0,59.993184750254386,
3,9.5,10,10.5,0,0,0.5,0.4,0.1,1.1,10,9,9,9,0,0,,,,,,,,,,,,,,,,,,,,,,,,,,0,2,2,0,,,,,,,,,,,,,,,,,,,,num_3,2.282681899960153,num_3,0.5,1,0.20000000000000007,1.1,7.6411,42.02605,return,5.21462139999494,,,,,,,,,,,,,,,,,710,22,male,left_right_width,2024-05-27_13h29.02.137,exp1,2023.1.0,59.993184750254386,
3,9,10,11,0,0,1,0.9,0.1,2.1,10,9,9,9,0,0,,,,,,,,,,,,,,,,,,,,,,,,,,0,3,3,1,,,,,,,,,,,,,,,,,,,,num_3,2.687033800058998,num_3,0.45,1.1,0.15000000000000008,1.2,5.73083,45.8466,return,5.522511700051837,,,,,,,,,,,,,,,,,710,22,male,left_right_width,2024-05-27_13h29.02.137,exp1,2023.1.0,59.993184750254386,
5,9,9.5,10,10.5,11,0.5,0.09999999999999998,0.4,2.4,10,9,9,9,9,9,,,,,,,,,,,,,,,,,,,,,,,,,,0,4,4,8,,,,,,,,,,,,,,,,,,,,num_3,2.5821514000417665,num_3,0.35,0.7,0.49999999999999994,0.7,19.10275,26.74385,return,9.070770399994217,,,,,,,,,,,,,,,,,710,22,male,left_right_width,2024-05-27_13h29.02.137,exp1,2023.1.0,59.993184750254386,
4,9.25,9.75,10.25,10.75,0,0.5,0.25,0.25,1.75,10,9,9,9,9,0,,,,,,,,,,,,,,,,,,,,,,,,,,0,5,5,4,,,,,,,,,,,,,,,,,,,,num_4,2.1384435000363737,num_4,0.55,0.9,0.45,0.9,17.19248,34.38495,return,4.531431799987331,,,,,,,,,,,,,,,,,710,22,male,left_right_width,2024-05-27_13h29.02.137,exp1,2023.1.0,59.993184750254386,
5,8.6,9.3,10,10.7,11.4,0.7,0.29999999999999993,0.4,3.1999999999999997,10,9,9,9,9,9,,,,,,,,,,,,,,,,,,,,,,,,,,0,6,6,7,,,,,,,,,,,,,,,,,,,,num_4,11.111694000079297,num_4,0.3,0.8,0.35,0.8,13.37193,30.5644,return,6.5220535000553355,,,,,,,,,,,,,,,,,710,22,male,left_right_width,2024-05-27_13h29.02.137,exp1,2023.1.0,59.993184750254386,
4,9.5,9.833333333333334,10.166666666666666,10.5,0,0.33333333333333337,0.23333333333333336,0.1,1.1,10,9,9,9,9,0,,,,,,,,,,,,,,,,,,,,,,,,,,0,7,7,3,,,,,,,,,,,,,,,,,,,,num_3,4.286844599992037,num_3,0.55,0.9,0.30000000000000004,1.2,11.46165,45.8466,return,10.1779362000525,,,,,,,,,,,,,,,,,710,22,male,left_right_width,2024-05-27_13h29.02.137,exp1,2023.1.0,59.993184750254386,
5,9.25,9.625,10,10.375,10.75,0.375,0.125,0.25,1.75,10,9,9,9,9,9,,,,,,,,,,,,,,,,,,,,,,,,,,0,8,8,6,,,,,,,,,,,,,,,,,,,,num_5,1.6719043999910355,num_5,0.2,0.4,0.2,0.45,7.6411,17.19248,return,3.011803000001237,,,,,,,,,,,,,,,,,710,22,male,left_right_width,2024-05-27_13h29.02.137,exp1,2023.1.0,59.993184750254386,
,,,,,,,,,,,,,,,,,,,,,,,,,,,,,,,,,,,,,,,,,,,,,,,,,,,,,,,,,,,,,,,,,,,,,,,,,,,c,79.14625310001429,,,,,,,,,,,,,,,710,22,male,left_right_width,2024-05-27_13h29.02.137,exp1,2023.1.0,59.993184750254386,
,,,,,,,,,,,,,,,,3,8.2,10,11.8,0,0,1.8,1.25,0.55,4.15,10,match,36.05,296,361,425,0,0,9,9,9,0,0,,,,,,,0,0,0,0,0,0,0,47,,,,,,,,,,,,num_3,3.8039911000523716,num_3,0.55,1.2,0.30000000000000004,1.7,11.46165,64.94936,return,4.866191799985245,,,,,,,,,,,,,,,,,710,22,male,left_right_width,2024-05-27_13h29.02.137,exp1,2023.1.0,59.993184750254386,
,,,,,,,,,,,,,,,,5,7.8,8.9,10,11.1,12.2,1.1,0.55,0.55,4.95,10,initial,36.05,281,321,361,400,440,9,9,9,9,9,,,,,,,0,0,0,0,0,1,1,34,,,,,,,,,,,,num_4,3.2767660999670625,num_4,0.4,0.9,0.4,1.2,15.2822,45.8466,return,2.873063000035472,,,,,,,,,,,,,,,,,710,22,male,left_right_width,2024-05-27_13h29.02.137,exp1,2023.1.0,59.993184750254386,
,,,,,,,,,,,,,,,,5,7.8,8.9,10,11.1,12.2,1.1,0.7000000000000001,0.4,4.800000000000001,10,initial,36.05,281,321,361,400,440,9,9,9,9,9,,,,,,,0,0,0,0,0,2,2,38,,,,,,,,,,,,num_3,1.8472892000572756,num_3,0.55,1.3,0.25000000000000006,1.55,9.55138,59.21853,return,6.828283000038937,,,,,,,,,,,,,,,,,710,22,male,left_right_width,2024-05-27_13h29.02.137,exp1,2023.1.0,59.993184750254386,
,,,,,,,,,,,,,,,,5,8.65,9.325,10,10.675,11.35,0.675,0.275,0.4,3.1,10,match,36.05,312,336,361,385,409,9,9,9,9,9,,,,,,,0,0,0,0,0,3,3,33,,,,,,,,,,,,num_4,1.6361597999930382,num_4,0.55,1.3,0.30000000000000004,1.4,11.46165,53.48771,return,3.665531800012104,,,,,,,,,,,,,,,,,710,22,male,left_right_width,2024-05-27_13h29.02.137,exp1,2023.1.0,59.993184750254386,
,,,,,,,,,,,,,,,,5,8.275,9.1375,10,10.8625,11.725,0.8625,0.6125,0.25,3.7,10,match,36.05,298,329,361,392,423,9,9,9,9,9,,,,,,,0,0,0,0,0,4,4,22,,,,,,,,,,,,num_4,1.628345699980855,num_4,0.55,1.3,0.25000000000000006,1.4,9.55138,53.48771,return,6.795327799976803,,,,,,,,,,,,,,,,,710,22,male,left_right_width,2024-05-27_13h29.02.137,exp1,2023.1.0,59.993184750254386,
,,,,,,,,,,,,,,,,5,8.35,9.175,10,10.825,11.65,0.8250000000000001,0.275,0.55,3.85,10,match,36.05,301,331,361,390,420,9,9,9,9,9,,,,,,,0,0,0,0,0,5,5,18,,,,,,,,,,,,num_4,2.3979202000191435,num_4,0.3,0.6,0.8000000000000002,1.1,30.5644,42.02605,return,10.22104470001068,,,,,,,,,,,,,,,,,710,22,male,left_right_width,2024-05-27_13h29.02.137,exp1,2023.1.0,59.993184750254386,
,,,,,,,,,,,,,,,,4,9.3,9.766666666666667,10.233333333333333,10.7,0,0.4666666666666667,0.06666666666666665,0.4,1.8,10,match,36.05,335,352,369,386,0,9,9,9,9,0,,,,,,,0,0,0,0,0,6,6,10,,,,,,,,,,,,num_3,1.7259555000346154,num_3,0.4,0.9,0.8000000000000003,0.9,30.5644,34.38495,return,11.623697799979709,,,,,,,,,,,,,,,,,710,22,male,left_right_width,2024-05-27_13h29.02.137,exp1,2023.1.0,59.993184750254386,
,,,,,,,,,,,,,,,,3,9.1,10,10.9,0,0,0.9,0.5,0.4,2.2,10,initial,36.05,328,361,393,0,0,9,9,9,0,0,,,,,,,0,0,0,0,0,7,7,15,,,,,,,,,,,,num_3,2.6481047000270337,num_3,0.4,1.1,0.35000000000000003,1.05,13.37193,40.11578,return,18.82461649994366,,,,,,,,,,,,,,,,,710,22,male,left_right_width,2024-05-27_13h29.02.137,exp1,2023.1.0,59.993184750254386,
,,,,,,,,,,,,,,,,4,8.35,9.45,10.55,11.65,0,1.1,0.7000000000000001,0.4,3.7,10,initial,36.05,301,341,380,420,0,9,9,9,9,0,,,,,,,0,0,0,0,0,8,8,21,,,,,,,,,,,,num_3,2.8415843000402674,num_3,0.35,1.3,0.44999999999999996,1.4,17.19248,53.48771,return,8.96582609997131,,,,,,,,,,,,,,,,,710,22,male,left_right_width,2024-05-27_13h29.02.137,exp1,2023.1.0,59.993184750254386,
,,,,,,,,,,,,,,,,5,8.2,9.1,10,10.9,11.8,0.9,0.5,0.4,4,10,initial,36.05,296,328,361,393,425,9,9,9,9,9,,,,,,,0,0,0,0,0,9,9,50,,,,,,,,,,,,num_4,1.382730600074865,num_4,0.2,1.1,0.35,1.0,13.37193,38.2055,return,7.8491754999849945,,,,,,,,,,,,,,,,,710,22,male,left_right_width,2024-05-27_13h29.02.137,exp1,2023.1.0,59.993184750254386,
,,,,,,,,,,,,,,,,3,9.3,10,10.7,0,0,0.7,0.29999999999999993,0.4,1.8,10,initial,36.05,335,361,386,0,0,9,9,9,0,0,,,,,,,0,0,0,0,0,10,10,9,,,,,,,,,,,,num_2,1.5407389000756666,num_2,0.5,1.2,0.5,0.9,19.10275,34.38495,return,11.249529400025494,,,,,,,,,,,,,,,,,710,22,male,left_right_width,2024-05-27_13h29.02.137,exp1,2023.1.0,59.993184750254386,
,,,,,,,,,,,,,,,,3,8.9,10,11.1,0,0,1.1,0.8500000000000001,0.25,2.45,10,initial,36.05,321,361,400,0,0,9,9,9,0,0,,,,,,,0,0,0,0,0,11,11,2,,,,,,,,,,,,num_3,2.0215953000588343,num_3,0.25,1,0.2,1.15,7.6411,43.93633,return,4.638938899966888,,,,,,,,,,,,,,,,,710,22,male,left_right_width,2024-05-27_13h29.02.137,exp1,2023.1.0,59.993184750254386,
,,,,,,,,,,,,,,,,5,8.95,9.475,10,10.525,11.05,0.525,0.125,0.4,2.5,10,match,36.05,323,342,361,379,398,9,9,9,9,9,,,,,,,0,0,0,0,0,12,12,27,,,,,,,,,,,,num_4,1.5861931999679655,num_4,0.55,0.7,0.4,0.7,15.2822,26.74385,return,6.110963699989952,,,,,,,,,,,,,,,,,710,22,male,left_right_width,2024-05-27_13h29.02.137,exp1,2023.1.0,59.993184750254386,
,,,,,,,,,,,,,,,,4,8.825,9.608333333333333,10.391666666666667,11.175,0,0.7833333333333333,0.5333333333333333,0.25,2.6,10,match,36.05,318,346,375,403,0,9,9,9,9,0,,,,,,,0,0,0,0,0,13,13,5,,,,,,,,,,,,num_4,1.407367300009355,num_4,0.25,1.0,0.15000000000000002,0.7,5.73083,26.74385,return,5.4449264000868425,,,,,,,,,,,,,,,,,710,22,male,left_right_width,2024-05-27_13h29.02.137,exp1,2023.1.0,59.993184750254386,
,,,,,,,,,,,,,,,,3,9.1,10,10.9,0,0,0.9,0.35,0.55,2.35,10,initial,36.05,328,361,393,0,0,9,9,9,0,0,,,,,,,0,0,0,0,0,14,14,11,,,,,,,,,,,,num_3,2.052887300029397,num_3,0.35,0.4,0.65,0.8,24.83358,30.5644,return,9.694074900005944,,,,,,,,,,,,,,,,,710,22,male,left_right_width,2024-05-27_13h29.02.137,exp1,2023.1.0,59.993184750254386,
,,,,,,,,,,,,,,,,4,8.95,9.65,10.35,11.05,0,0.7,0.29999999999999993,0.4,2.5,10,initial,36.05,323,348,373,398,0,9,9,9,9,0,,,,,,,0,0,0,0,0,15,15,26,,,,,,,,,,,,num_4,1.3612331999465823,num_4,0.4,0.8,0.5,0.8,19.10275,30.5644,return,6.502108599990606,,,,,,,,,,,,,,,,,710,22,male,left_right_width,2024-05-27_13h29.02.137,exp1,2023.1.0,59.993184750254386,
,,,,,,,,,,,,,,,,5,8.65,9.325,10,10.675,11.35,0.675,0.42500000000000004,0.25,2.95,10,match,36.05,312,336,361,385,409,9,9,9,9,9,,,,,,,0,0,0,0,0,16,16,31,,,,,,,,,,,,num_5,1.4064603000879288,num_5,0.45,1.3,0.45,1.05,17.19248,40.11578,return,2.701405599946156,,,,,,,,,,,,,,,,,710,22,male,left_right_width,2024-05-27_13h29.02.137,exp1,2023.1.0,59.993184750254386,
,,,,,,,,,,,,,,,,4,8.95,9.65,10.35,11.05,0,0.7,0.44999999999999996,0.25,2.3499999999999996,10,initial,36.05,323,348,373,398,0,9,9,9,9,0,,,,,,,0,0,0,0,0,17,17,24,,,,,,,,,,,,num_4,1.749241100042127,num_4,0.45,1.1,0.25000000000000006,0.9,9.55138,34.38495,return,3.967655700049363,,,,,,,,,,,,,,,,,710,22,male,left_right_width,2024-05-27_13h29.02.137,exp1,2023.1.0,59.993184750254386,
,,,,,,,,,,,,,,,,4,8.35,9.45,10.55,11.65,0,1.1,0.8500000000000001,0.25,3.5500000000000003,10,initial,36.05,301,341,380,420,0,9,9,9,9,0,,,,,,,0,0,0,0,0,18,18,19,,,,,,,,,,,,num_4,1.304168100003153,num_4,0.25,0.6,0.15000000000000002,0.9,5.73083,34.38495,return,7.914822399965487,,,,,,,,,,,,,,,,,710,22,male,left_right_width,2024-05-27_13h29.02.137,exp1,2023.1.0,59.993184750254386,
,,,,,,,,,,,,,,,,5,8.35,9.175,10,10.825,11.65,0.825,0.575,0.25,3.55,10,match,36.05,301,331,361,390,420,9,9,9,9,9,,,,,,,0,0,0,0,0,19,19,20,,,,,,,,,,,,num_4,1.5444986999500543,num_4,0.5,0.6,0.15000000000000008,1.2,5.73083,45.8466,return,6.693330600042827,,,,,,,,,,,,,,,,,710,22,male,left_right_width,2024-05-27_13h29.02.137,exp1,2023.1.0,59.993184750254386,
,,,,,,,,,,,,,,,,4,8.65,9.55,10.45,11.35,0,0.9,0.65,0.25,2.95,10,initial,36.05,312,344,377,409,0,9,9,9,9,0,,,,,,,0,0,0,0,0,20,20,30,,,,,,,,,,,,num_4,1.3018056999426335,num_4,0.35,0.6,0.10000000000000002,0.8,3.82055,30.5644,return,7.801927100052126,,,,,,,,,,,,,,,,,710,22,male,left_right_width,2024-05-27_13h29.02.137,exp1,2023.1.0,59.993184750254386,
,,,,,,,,,,,,,,,,3,7.800000000000001,10,12.2,0,0,2.1999999999999997,1.7999999999999998,0.4,4.8,10,match,36.05,281,361,440,0,0,9,9,9,0,0,,,,,,,0,0,0,0,0,21,21,39,,,,,,,,,,,,num_3,1.561003000009805,num_3,0.2,1.2,0.35,1.2,13.37193,45.8466,return,4.297134299995378,,,,,,,,,,,,,,,,,710,22,male,left_right_width,2024-05-27_13h29.02.137,exp1,2023.1.0,59.993184750254386,
,,,,,,,,,,,,,,,,3,8.525,10,11.475,0,0,1.475,1.225,0.25,3.2,10,match,36.05,307,361,414,0,0,9,9,9,0,0,,,,,,,0,0,0,0,0,22,22,45,,,,,,,,,,,,num_3,1.3007496999343857,num_3,0.2,0.6,0.2,1.4,7.6411,53.48771,return,8.37813119997736,,,,,,,,,,,,,,,,,710,22,male,left_right_width,2024-05-27_13h29.02.137,exp1,2023.1.0,59.993184750254386,
,,,,,,,,,,,,,,,,3,7.8,10,12.2,0,0,2.2,1.65,0.55,4.95,10,match,36.05,281,361,440,0,0,9,9,9,0,0,,,,,,,0,0,0,0,0,23,23,35,,,,,,,,,,,,num_3,1.4652442000806332,num_3,0.25,1.2,0.44999999999999996,1.55,17.19248,59.21853,return,9.18975609994959,,,,,,,,,,,,,,,,,710,22,male,left_right_width,2024-05-27_13h29.02.137,exp1,2023.1.0,59.993184750254386,
,,,,,,,,,,,,,,,,3,9.1,10,10.9,0,0,0.9,0.65,0.25,2.05,10,initial,36.05,328,361,393,0,0,9,9,9,0,0,,,,,,,0,0,0,0,0,24,24,13,,,,,,,,,,,,num_3,1.5845608999952674,num_3,0.2,0.7,0.2,1.5,7.6411,57.30826,return,7.053128300001845,,,,,,,,,,,,,,,,,710,22,male,left_right_width,2024-05-27_13h29.02.137,exp1,2023.1.0,59.993184750254386,
,,,,,,,,,,,,,,,,3,8.6,10,11.4,0,0,1.4,1.15,0.25,3.05,10,match,36.05,310,361,411,0,0,9,9,9,0,0,,,,,,,0,0,0,0,0,25,25,43,,,,,,,,,,,,num_3,1.4760111999930814,num_3,0.2,1,0.15000000000000002,1.45,5.73083,55.39798,return,3.7783723999746144,,,,,,,,,,,,,,,,,710,22,male,left_right_width,2024-05-27_13h29.02.137,exp1,2023.1.0,59.993184750254386,
,,,,,,,,,,,,,,,,5,8.6,9.3,10,10.7,11.4,0.7,0.44999999999999996,0.25,3.05,10,initial,36.05,310,335,361,386,411,9,9,9,9,9,,,,,,,0,0,0,0,0,26,26,42,,,,,,,,,,,,num_4,1.53887869999744,num_4,0.35,1.0,0.15000000000000002,1.1,5.73083,42.02605,return,4.414520299993455,,,,,,,,,,,,,,,,,710,22,male,left_right_width,2024-05-27_13h29.02.137,exp1,2023.1.0,59.993184750254386,
,,,,,,,,,,,,,,,,3,8.2,10,11.8,0,0,1.8,1.55,0.25,3.85,10,match,36.05,296,361,425,0,0,9,9,9,0,0,,,,,,,0,0,0,0,0,27,27,49,,,,,,,,,,,,num_3,1.3996562000829726,num_3,0.35,0.9,0.15000000000000002,1.5,5.73083,57.30826,return,4.078701399965212,,,,,,,,,,,,,,,,,710,22,male,left_right_width,2024-05-27_13h29.02.137,exp1,2023.1.0,59.993184750254386,
,,,,,,,,,,,,,,,,5,8.6,9.3,10,10.7,11.4,0.7,0.1499999999999999,0.55,3.3499999999999996,10,initial,36.05,310,335,361,386,411,9,9,9,9,9,,,,,,,0,0,0,0,0,28,28,40,,,,,,,,,,,,num_4,2.0924000000813976,num_4,0.35,0.6,0.7000000000000001,1.0,26.74385,38.2055,return,14.696043600095436,,,,,,,,,,,,,,,,,710,22,male,left_right_width,2024-05-27_13h29.02.137,exp1,2023.1.0,59.993184750254386,
,,,,,,,,,,,,,,,,5,8.95,9.475,10,10.525,11.05,0.525,0.275,0.25,2.35,10,match,36.05,323,342,361,379,398,9,9,9,9,9,,,,,,,0,0,0,0,0,29,29,25,,,,,,,,,,,,num_4,1.4974875999614596,num_4,0.2,1.0,0.15000000000000002,0.7,5.73083,26.74385,return,13.560387899982743,,,,,,,,,,,,,,,,,710,22,male,left_right_width,2024-05-27_13h29.02.137,exp1,2023.1.0,59.993184750254386,
,,,,,,,,,,,,,,,,3,8.9,10,11.1,0,0,1.1,0.7000000000000001,0.4,2.6000000000000005,10,initial,36.05,321,361,400,0,0,9,9,9,0,0,,,,,,,0,0,0,0,0,30,30,4,,,,,,,,,,,,num_3,2.0541737999301404,num_3,0.55,1.3,0.4,1.15,15.2822,43.93633,return,5.31585090002045,,,,,,,,,,,,,,,,,710,22,male,left_right_width,2024-05-27_13h29.02.137,exp1,2023.1.0,59.993184750254386,
,,,,,,,,,,,,,,,,5,8.2,9.1,10,10.9,11.8,0.9,0.65,0.25,3.85,10,initial,36.05,296,328,361,393,425,9,9,9,9,9,,,,,,,0,0,0,0,0,31,31,48,,,,,,,,,,,,num_5,1.4620168000692502,num_5,0.2,0.8,0.15000000000000002,0.8,5.73083,30.5644,return,1.8659037000034004,,,,,,,,,,,,,,,,,710,22,male,left_right_width,2024-05-27_13h29.02.137,exp1,2023.1.0,59.993184750254386,
,,,,,,,,,,,,,,,,4,8.9,9.633333333333333,10.366666666666667,11.1,0,0.7333333333333334,0.4833333333333334,0.25,2.45,10,match,36.05,321,347,374,400,0,9,9,9,9,0,,,,,,,0,0,0,0,0,32,32,3,,,,,,,,,,,,num_3,1.4818544000154361,num_3,0.2,0.5,0.15000000000000002,1.4,5.73083,53.48771,return,6.98751619993709,,,,,,,,,,,,,,,,,710,22,male,left_right_width,2024-05-27_13h29.02.137,exp1,2023.1.0,59.993184750254386,
,,,,,,,,,,,,,,,,5,7.8,8.9,10,11.1,12.2,1.1,0.8500000000000001,0.25,4.65,10,initial,36.05,281,321,361,400,440,9,9,9,9,9,,,,,,,0,0,0,0,0,33,33,36,,,,,,,,,,,,num_5,1.3684154999209568,num_5,0.25,0.5,0.15000000000000002,0.85,5.73083,32.47468,return,6.960654700058512,,,,,,,,,,,,,,,,,710,22,male,left_right_width,2024-05-27_13h29.02.137,exp1,2023.1.0,59.993184750254386,
,,,,,,,,,,,,,,,,4,8.35,9.45,10.55,11.65,0,1.1,0.55,0.55,3.8500000000000005,10,initial,36.05,301,341,380,420,0,9,9,9,9,0,,,,,,,0,0,0,0,0,34,34,17,,,,,,,,,,,,num_5,1.4443301999708638,num_5,0.25,1.2,0.5499999999999999,1.15,21.01303,43.93633,return,6.8996718999696895,,,,,,,,,,,,,,,,,710,22,male,left_right_width,2024-05-27_13h29.02.137,exp1,2023.1.0,59.993184750254386,
,,,,,,,,,,,,,,,,4,8.9,9.633333333333333,10.366666666666667,11.1,0,0.7333333333333333,0.18333333333333326,0.55,2.75,10,match,36.05,321,347,374,400,0,9,9,9,9,0,,,,,,,0,0,0,0,0,35,35,1,,,,,,,,,,,,num_6,1.2768061000388116,num_6,0.3,0.4,0.3,0.4,11.46165,15.2822,return,4.426856999984011,,,,,,,,,,,,,,,,,710,22,male,left_right_width,2024-05-27_13h29.02.137,exp1,2023.1.0,59.993184750254386,
,,,,,,,,,,,,,,,,5,8.65,9.325,10,10.675,11.35,0.675,0.125,0.55,3.25,10,match,36.05,312,336,361,385,409,9,9,9,9,9,,,,,,,0,0,0,0,0,36,36,29,,,,,,,,,,,,num_4,1.5196876999689266,num_4,0.45,0.5,0.6000000000000001,0.8,22.9233,30.5644,return,7.452522499952465,,,,,,,,,,,,,,,,,710,22,male,left_right_width,2024-05-27_13h29.02.137,exp1,2023.1.0,59.993184750254386,
,,,,,,,,,,,,,,,,5,8.2,9.1,10,10.9,11.8,0.9,0.35,0.55,4.15,10,initial,36.05,296,328,361,393,425,9,9,9,9,9,,,,,,,0,0,0,0,0,37,37,46,,,,,,,,,,,,num_4,2.026983999996446,num_4,0.2,1.3,0.7500000000000001,1.0,28.65413,38.2055,return,10.881411899928935,,,,,,,,,,,,,,,,,710,22,male,left_right_width,2024-05-27_13h29.02.137,exp1,2023.1.0,59.993184750254386,
,,,,,,,,,,,,,,,,3,8.2,10,11.8,0,0,1.7999999999999998,1.4,0.4,4,10,match,36.05,296,361,425,0,0,9,9,9,0,0,,,,,,,0,0,0,0,0,38,38,51,,,,,,,,,,,,num_3,1.2534920000471175,num_3,0.55,0.7,0.15000000000000008,1.95,5.73083,74.50073,return,9.596664299955592,,,,,,,,,,,,,,,,,710,22,male,left_right_width,2024-05-27_13h29.02.137,exp1,2023.1.0,59.993184750254386,
,,,,,,,,,,,,,,,,3,7.8,10,12.2,0,0,2.2,1.9500000000000002,0.25,4.65,10,match,36.05,281,361,440,0,0,9,9,9,0,0,,,,,,,0,0,0,0,0,39,39,37,,,,,,,,,,,,num_3,1.2194646999705583,num_3,0.55,1.2,0.20000000000000007,1.85,7.6411,70.68018,return,5.361564000020735,,,,,,,,,,,,,,,,,710,22,male,left_right_width,2024-05-27_13h29.02.137,exp1,2023.1.0,59.993184750254386,
,,,,,,,,,,,,,,,,3,8.6,10,11.4,0,0,1.4,0.85,0.55,3.35,10,match,36.05,310,361,411,0,0,9,9,9,0,0,,,,,,,0,0,0,0,0,40,40,41,,,,,,,,,,,,num_2,1.6450498000485823,num_2,0.3,1.6,0.44999999999999996,2.3,17.19248,87.87266,return,3.4655755000421777,,,,,,,,,,,,,,,,,710,22,male,left_right_width,2024-05-27_13h29.02.137,exp1,2023.1.0,59.993184750254386,
,,,,,,,,,,,,,,,,3,9.3,10,10.7,0,0,0.7,0.44999999999999996,0.25,1.65,10,initial,36.05,335,361,386,0,0,9,9,9,0,0,,,,,,,0,0,0,0,0,41,41,7,,,,,,,,,,,,num_2,1.3883221000432968,num_2,0.2,1.4,0.2,1.4,7.6411,53.48771,return,1.871802999987267,,,,,,,,,,,,,,,,,710,22,male,left_right_width,2024-05-27_13h29.02.137,exp1,2023.1.0,59.993184750254386,
,,,,,,,,,,,,,,,,4,9.3,9.766666666666667,10.233333333333333,10.7,0,0.4666666666666667,0.21666666666666665,0.25,1.65,10,match,36.05,335,352,369,386,0,9,9,9,9,0,,,,,,,0,0,0,0,0,42,42,8,,,,,,,,,,,,num_4,1.494482799898833,num_4,0.3,0.3,0.3,0.6,11.46165,22.9233,return,9.135237300070003,,,,,,,,,,,,,,,,,710,22,male,left_right_width,2024-05-27_13h29.02.137,exp1,2023.1.0,59.993184750254386,
,,,,,,,,,,,,,,,,3,9.3,10,10.7,0,0,0.7,0.1499999999999999,0.55,1.95,10,initial,36.05,335,361,386,0,0,9,9,9,0,0,,,,,,,0,0,0,0,0,43,43,6,,,,,,,,,,,,num_2,1.3813021999085322,num_2,0.4,0.8,0.8000000000000003,1.0,30.5644,38.2055,return,3.932189799961634,,,,,,,,,,,,,,,,,710,22,male,left_right_width,2024-05-27_13h29.02.137,exp1,2023.1.0,59.993184750254386,
,,,,,,,,,,,,,,,,4,8.95,9.65,10.35,11.05,0,0.7,0.1499999999999999,0.55,2.65,10,initial,36.05,323,348,373,398,0,9,9,9,9,0,,,,,,,0,0,0,0,0,44,44,23,,,,,,,,,,,,num_3,1.4851039999630302,num_3,0.3,1.3,1.1000000000000003,1.3,42.02605,49.66716,return,8.207106899935752,,,,,,,,,,,,,,,,,710,22,male,left_right_width,2024-05-27_13h29.02.137,exp1,2023.1.0,59.993184750254386,
,,,,,,,,,,,,,,,,4,9.1,9.7,10.3,10.9,0,0.5999999999999999,0.3499999999999999,0.25,2.05,10,match,36.05,328,350,371,393,0,9,9,9,9,0,,,,,,,0,0,0,0,0,45,45,14,,,,,,,,,,,,num_4,1.3102719999151304,num_4,0.4,0.6,0.5,0.7,19.10275,26.74385,return,6.9526481999782845,,,,,,,,,,,,,,,,,710,22,male,left_right_width,2024-05-27_13h29.02.137,exp1,2023.1.0,59.993184750254386,
,,,,,,,,,,,,,,,,4,9.1,9.7,10.3,10.9,0,0.6000000000000001,0.20000000000000004,0.4,2.2,10,match,36.05,328,350,371,393,0,9,9,9,9,0,,,,,,,0,0,0,0,0,46,46,16,,,,,,,,,,,,num_4,1.0677301000105217,num_4,0.45,0.5,0.6500000000000001,0.8,24.83358,30.5644,return,11.128580800024793,,,,,,,,,,,,,,,,,710,22,male,left_right_width,2024-05-27_13h29.02.137,exp1,2023.1.0,59.993184750254386,
,,,,,,,,,,,,,,,,5,8.6,9.3,10,10.7,11.4,0.7,0.29999999999999993,0.4,3.1999999999999997,10,initial,36.05,310,335,361,386,411,9,9,9,9,9,,,,,,,0,0,0,0,0,47,47,44,,,,,,,,,,,,num_4,1.172491000033915,num_4,0.5,0.6,0.25000000000000006,1.1,9.55138,42.02605,return,3.903683500015177,,,,,,,,,,,,,,,,,710,22,male,left_right_width,2024-05-27_13h29.02.137,exp1,2023.1.0,59.993184750254386,
,,,,,,,,,,,,,,,,4,9.1,9.7,10.3,10.9,0,0.6,0.04999999999999997,0.55,2.35,10,match,36.05,328,350,371,393,0,9,9,9,9,0,,,,,,,0,0,0,0,0,48,48,12,,,,,,,,,,,,num_2,2.0593491999898106,num_2,0.5,1.0,1.1000000000000005,1.3,42.02605,49.66716,return,5.880750200012699,,,,,,,,,,,,,,,,,710,22,male,left_right_width,2024-05-27_13h29.02.137,exp1,2023.1.0,59.993184750254386,
,,,,,,,,,,,,,,,,4,8.65,9.55,10.45,11.35,0,0.9,0.35,0.55,3.25,10,initial,36.05,312,344,377,409,0,9,9,9,9,0,,,,,,,0,0,0,0,0,49,49,28,,,,,,,,,,,,num_4,1.1424943000311032,num_4,0.35,0.4,0.7000000000000001,0.9,26.74385,34.38495,return,7.956931099994108,,,,,,,,,,,,,,,,,710,22,male,left_right_width,2024-05-27_13h29.02.137,exp1,2023.1.0,59.993184750254386,
,,,,,,,,,,,,,,,,4,8.65,9.55,10.45,11.35,0,0.9,0.5,0.4,3.1,10,initial,36.05,312,344,377,409,0,9,9,9,9,0,,,,,,,0,0,0,0,0,50,50,32,,,,,,,,,,,,num_4,1.5736385000636801,num_4,0.45,1.3,0.30000000000000004,0.7,11.46165,26.74385,return,3.7009666999801993,,,,,,,,,,,,,,,,,710,22,male,left_right_width,2024-05-27_13h29.02.137,exp1,2023.1.0,59.993184750254386,
,,,,,,,,,,,,,,,,3,8.9,10,11.1,0,0,1.1,0.55,0.55,2.75,10,initial,36.05,321,361,400,0,0,9,9,9,0,0,,,,,,,0,0,0,0,0,51,51,0,,,,,,,,,,,,num_2,1.5073708000127226,num_2,0.35,0.6,1.0500000000000003,1.3,40.11578,49.66716,return,6.048756500007585,,,,,,,,,,,,,,,,,710,22,male,left_right_width,2024-05-27_13h29.02.137,exp1,2023.1.0,59.993184750254386,
,,,,,,,,,,,,,,,,,,,,,,,,,,,,,,,,,,,,,,,,,,,,,0,0,0,0,,,,,,,,,,,,,,,,,,,,,,,,,,,,,968.9349050999153,968.9349050999153,968.9349050999153,,,,,,,,,,,,710,22,male,left_right_width,2024-05-27_13h29.02.137,exp1,2023.1.0,59.993184750254386,
,,,,,,,,,,,,,,,,4,8.35,9.45,10.55,11.65,0,1.1,0.8500000000000001,0.25,3.5500000000000003,10,initial,36.05,301,341,380,420,0,9,9,9,9,0,,,,,,,1,0,1,0,0,0,0,19,,,,,,,,,,,,num_3,1.3571711000986397,num_3,0.3,0.4,0.2,1.25,7.6411,47.75688,return,10.309628500021063,,,,,,,,,,,,,,,,,710,22,male,left_right_width,2024-05-27_13h29.02.137,exp1,2023.1.0,59.993184750254386,
,,,,,,,,,,,,,,,,5,8.35,9.175,10,10.825,11.65,0.825,0.575,0.25,3.55,10,match,36.05,301,331,361,390,420,9,9,9,9,9,,,,,,,1,0,1,0,0,1,1,20,,,,,,,,,,,,num_4,1.1965017999755219,num_4,0.3,0.5,0.15000000000000002,1.0,5.73083,38.2055,return,4.731159499962814,,,,,,,,,,,,,,,,,710,22,male,left_right_width,2024-05-27_13h29.02.137,exp1,2023.1.0,59.993184750254386,
,,,,,,,,,,,,,,,,4,8.95,9.65,10.35,11.05,0,0.7,0.1499999999999999,0.55,2.65,10,initial,36.05,323,348,373,398,0,9,9,9,9,0,,,,,,,1,0,1,0,0,2,2,23,,,,,,,,,,,,num_3,1.9508383999345824,num_3,0.5,0.9,0.9000000000000004,1.15,34.38495,43.93633,return,5.25872080004774,,,,,,,,,,,,,,,,,710,22,male,left_right_width,2024-05-27_13h29.02.137,exp1,2023.1.0,59.993184750254386,
,,,,,,,,,,,,,,,,3,8.6,10,11.4,0,0,1.4,0.85,0.55,3.35,10,match,36.05,310,361,411,0,0,9,9,9,0,0,,,,,,,1,0,1,0,0,3,3,41,,,,,,,,,,,,num_3,1.827981699956581,num_3,0.5,1,0.7500000000000002,1.15,28.65413,43.93633,return,8.26077539997641,,,,,,,,,,,,,,,,,710,22,male,left_right_width,2024-05-27_13h29.02.137,exp1,2023.1.0,59.993184750254386,
,,,,,,,,,,,,,,,,5,8.95,9.475,10,10.525,11.05,0.525,0.275,0.25,2.35,10,match,36.05,323,342,361,379,398,9,9,9,9,9,,,,,,,1,0,1,0,0,4,4,25,,,,,,,,,,,,num_4,1.1751479000085965,num_4,0.35,1.1,0.2,1.2,7.6411,45.8466,return,4.802986099966802,,,,,,,,,,,,,,,,,710,22,male,left_right_width,2024-05-27_13h29.02.137,exp1,2023.1.0,59.993184750254386,
,,,,,,,,,,,,,,,,5,8.2,9.1,10,10.9,11.8,0.9,0.35,0.55,4.15,10,initial,36.05,296,328,361,393,425,9,9,9,9,9,,,,,,,1,0,1,0,0,5,5,46,,,,,,,,,,,,num_4,1.7996949000516906,num_4,0.2,1.1,0.9500000000000003,1.4,36.29523,53.48771,return,6.174508100026287,,,,,,,,,,,,,,,,,710,22,male,left_right_width,2024-05-27_13h29.02.137,exp1,2023.1.0,59.993184750254386,
,,,,,,,,,,,,,,,,3,8.9,10,11.1,0,0,1.1,0.7000000000000001,0.4,2.6000000000000005,10,initial,36.05,321,361,400,0,0,9,9,9,0,0,,,,,,,1,0,1,0,0,6,6,4,,,,,,,,,,,,num_3,1.206128800055012,num_3,0.4,0.6,0.20000000000000007,1.3,7.6411,49.66716,return,4.8648275000741705,,,,,,,,,,,,,,,,,710,22,male,left_right_width,2024-05-27_13h29.02.137,exp1,2023.1.0,59.993184750254386,
,,,,,,,,,,,,,,,,3,7.800000000000001,10,12.2,0,0,2.1999999999999997,1.7999999999999998,0.4,4.8,10,match,36.05,281,361,440,0,0,9,9,9,0,0,,,,,,,1,0,1,0,0,7,7,39,,,,,,,,,,,,num_3,1.3070557999890298,num_3,0.55,1.3,0.30000000000000004,1.7,11.46165,64.94936,return,3.7655875999480486,,,,,,,,,,,,,,,,,710,22,male,left_right_width,2024-05-27_13h29.02.137,exp1,2023.1.0,59.993184750254386,
,,,,,,,,,,,,,,,,5,8.275,9.1375,10,10.8625,11.725,0.8625,0.6125,0.25,3.7,10,match,36.05,298,329,361,392,423,9,9,9,9,9,,,,,,,1,0,1,0,0,8,8,22,,,,,,,,,,,,num_5,2.1832276000641286,num_5,0.4,1.3,0.20000000000000007,1.3,7.6411,49.66716,return,2.3508725999854505,,,,,,,,,,,,,,,,,710,22,male,left_right_width,2024-05-27_13h29.02.137,exp1,2023.1.0,59.993184750254386,
,,,,,,,,,,,,,,,,5,7.8,8.9,10,11.1,12.2,1.1,0.55,0.55,4.95,10,initial,36.05,281,321,361,400,440,9,9,9,9,9,,,,,,,1,0,1,0,0,9,9,34,,,,,,,,,,,,num_4,1.4324108000146225,num_4,0.3,0.5,0.35,1.4,13.37193,53.48771,return,5.182980900048278,,,,,,,,,,,,,,,,,710,22,male,left_right_width,2024-05-27_13h29.02.137,exp1,2023.1.0,59.993184750254386,
,,,,,,,,,,,,,,,,4,8.825,9.608333333333333,10.391666666666667,11.175,0,0.7833333333333333,0.5333333333333333,0.25,2.6,10,match,36.05,318,346,375,403,0,9,9,9,9,0,,,,,,,1,0,1,0,0,10,10,5,,,,,,,,,,,,num_4,2.2094341999618337,num_4,0.4,1.0,0.20000000000000007,1.2,7.6411,45.8466,return,4.8643137000035495,,,,,,,,,,,,,,,,,710,22,male,left_right_width,2024-05-27_13h29.02.137,exp1,2023.1.0,59.993184750254386,
,,,,,,,,,,,,,,,,3,9.1,10,10.9,0,0,0.9,0.65,0.25,2.05,10,initial,36.05,328,361,393,0,0,9,9,9,0,0,,,,,,,1,0,1,0,0,11,11,13,,,,,,,,,,,,num_3,1.1288388000102714,num_3,0.25,0.4,0.2,1.35,7.6411,51.57743,return,8.484136300045066,,,,,,,,,,,,,,,,,710,22,male,left_right_width,2024-05-27_13h29.02.137,exp1,2023.1.0,59.993184750254386,
,,,,,,,,,,,,,,,,3,7.8,10,12.2,0,0,2.2,1.65,0.55,4.95,10,match,36.05,281,361,440,0,0,9,9,9,0,0,,,,,,,1,0,1,0,0,12,12,35,,,,,,,,,,,,num_2,1.3375310000265017,num_2,0.5,0.6,0.8500000000000003,1.8,32.47468,68.76991,return,5.810147000011057,,,,,,,,,,,,,,,,,710,22,male,left_right_width,2024-05-27_13h29.02.137,exp1,2023.1.0,59.993184750254386,
,,,,,,,,,,,,,,,,3,8.9,10,11.1,0,0,1.1,0.8500000000000001,0.25,2.45,10,initial,36.05,321,361,400,0,0,9,9,9,0,0,,,,,,,1,0,1,0,0,13,13,2,,,,,,,,,,,,num_3,1.1329120000591502,num_3,0.4,1.1,0.20000000000000007,1.55,7.6411,59.21853,return,3.1757444000104442,,,,,,,,,,,,,,,,,710,22,male,left_right_width,2024-05-27_13h29.02.137,exp1,2023.1.0,59.993184750254386,
,,,,,,,,,,,,,,,,5,8.6,9.3,10,10.7,11.4,0.7,0.44999999999999996,0.25,3.05,10,initial,36.05,310,335,361,386,411,9,9,9,9,9,,,,,,,1,0,1,0,0,14,14,42,,,,,,,,,,,,num_4,1.1069689000723884,num_4,0.25,1.0,0.15000000000000002,1.3,5.73083,49.66716,return,2.2534898000303656,,,,,,,,,,,,,,,,,710,22,male,left_right_width,2024-05-27_13h29.02.137,exp1,2023.1.0,59.993184750254386,
,,,,,,,,,,,,,,,,3,9.3,10,10.7,0,0,0.7,0.29999999999999993,0.4,1.8,10,initial,36.05,335,361,386,0,0,9,9,9,0,0,,,,,,,1,0,1,0,0,15,15,9,,,,,,,,,,,,num_2,1.0327795000048354,num_2,0.4,1.0,0.55,1.1,21.01303,42.02605,return,2.6818140000104904,,,,,,,,,,,,,,,,,710,22,male,left_right_width,2024-05-27_13h29.02.137,exp1,2023.1.0,59.993184750254386,
,,,,,,,,,,,,,,,,3,9.1,10,10.9,0,0,0.9,0.35,0.55,2.35,10,initial,36.05,328,361,393,0,0,9,9,9,0,0,,,,,,,1,0,1,0,0,16,16,11,,,,,,,,,,,,num_2,1.194920500041917,num_2,0.25,0.4,0.8500000000000002,1.2,32.47468,45.8466,return,5.4934348000679165,,,,,,,,,,,,,,,,,710,22,male,left_right_width,2024-05-27_13h29.02.137,exp1,2023.1.0,59.993184750254386,
,,,,,,,,,,,,,,,,4,9.3,9.766666666666667,10.233333333333333,10.7,0,0.4666666666666667,0.21666666666666665,0.25,1.65,10,match,36.05,335,352,369,386,0,9,9,9,9,0,,,,,,,1,0,1,0,0,17,17,8,,,,,,,,,,,,num_3,1.521444799960591,num_3,0.5,0.9,0.15000000000000008,1.15,5.73083,43.93633,return,4.9637840000214055,,,,,,,,,,,,,,,,,710,22,male,left_right_width,2024-05-27_13h29.02.137,exp1,2023.1.0,59.993184750254386,
,,,,,,,,,,,,,,,,4,8.95,9.65,10.35,11.05,0,0.7,0.29999999999999993,0.4,2.5,10,initial,36.05,323,348,373,398,0,9,9,9,9,0,,,,,,,1,0,1,0,0,18,18,26,,,,,,,,,,,,num_4,1.2737683999584988,num_4,0.25,1.2,0.49999999999999994,0.8,19.10275,30.5644,return,3.1867519000079483,,,,,,,,,,,,,,,,,710,22,male,left_right_width,2024-05-27_13h29.02.137,exp1,2023.1.0,59.993184750254386,
,,,,,,,,,,,,,,,,5,8.95,9.475,10,10.525,11.05,0.525,0.125,0.4,2.5,10,match,36.05,323,342,361,379,398,9,9,9,9,9,,,,,,,1,0,1,0,0,19,19,27,,,,,,,,,,,,num_4,1.6677336000138894,num_4,0.4,0.6,0.4,0.6,15.2822,22.9233,return,3.215798999997787,,,,,,,,,,,,,,,,,710,22,male,left_right_width,2024-05-27_13h29.02.137,exp1,2023.1.0,59.993184750254386,
,,,,,,,,,,,,,,,,5,8.6,9.3,10,10.7,11.4,0.7,0.1499999999999999,0.55,3.3499999999999996,10,initial,36.05,310,335,361,386,411,9,9,9,9,9,,,,,,,1,0,1,0,0,20,20,40,,,,,,,,,,,,num_4,1.4423927000025287,num_4,0.25,1.2,0.44999999999999996,0.7,17.19248,26.74385,return,6.242820999934338,,,,,,,,,,,,,,,,,710,22,male,left_right_width,2024-05-27_13h29.02.137,exp1,2023.1.0,59.993184750254386,
,,,,,,,,,,,,,,,,3,9.1,10,10.9,0,0,0.9,0.5,0.4,2.2,10,initial,36.05,328,361,393,0,0,9,9,9,0,0,,,,,,,1,0,1,0,0,21,21,15,,,,,,,,,,,,num_3,1.5412786999950185,num_3,0.3,1.1,0.49999999999999994,0.85,19.10275,32.47468,return,13.445269999909215,,,,,,,,,,,,,,,,,710,22,male,left_right_width,2024-05-27_13h29.02.137,exp1,2023.1.0,59.993184750254386,
,,,,,,,,,,,,,,,,4,9.1,9.7,10.3,10.9,0,0.6,0.04999999999999997,0.55,2.35,10,match,36.05,328,350,371,393,0,9,9,9,9,0,,,,,,,1,0,1,0,0,22,22,12,,,,,,,,,,,,num_3,1.5237987999571487,num_3,0.35,1,0.8500000000000002,1,32.47468,38.2055,return,5.231429100036621,,,,,,,,,,,,,,,,,710,22,male,left_right_width,2024-05-27_13h29.02.137,exp1,2023.1.0,59.993184750254386,
,,,,,,,,,,,,,,,,3,9.3,10,10.7,0,0,0.7,0.44999999999999996,0.25,1.65,10,initial,36.05,335,361,386,0,0,9,9,9,0,0,,,,,,,1,0,1,0,0,23,23,7,,,,,,,,,,,,num_3,1.3937702999683097,num_3,0.55,1,0.20000000000000007,1.0,7.6411,38.2055,return,5.943477599998005,,,,,,,,,,,,,,,,,710,22,male,left_right_width,2024-05-27_13h29.02.137,exp1,2023.1.0,59.993184750254386,
,,,,,,,,,,,,,,,,3,8.2,10,11.8,0,0,1.8,1.25,0.55,4.15,10,match,36.05,296,361,425,0,0,9,9,9,0,0,,,,,,,1,0,1,0,0,24,24,47,,,,,,,,,,,,num_3,1.3959953000303358,num_3,0.4,1,0.45,1.35,17.19248,51.57743,return,3.8514461000449955,,,,,,,,,,,,,,,,,710,22,male,left_right_width,2024-05-27_13h29.02.137,exp1,2023.1.0,59.993184750254386,
,,,,,,,,,,,,,,,,4,9.1,9.7,10.3,10.9,0,0.5999999999999999,0.3499999999999999,0.25,2.05,10,match,36.05,328,350,371,393,0,9,9,9,9,0,,,,,,,1,0,1,0,0,25,25,14,,,,,,,,,,,,num_4,1.1949662000406533,num_4,0.35,0.7,0.2,0.8,7.6411,30.5644,return,5.141951200086623,,,,,,,,,,,,,,,,,710,22,male,left_right_width,2024-05-27_13h29.02.137,exp1,2023.1.0,59.993184750254386,
,,,,,,,,,,,,,,,,4,8.95,9.65,10.35,11.05,0,0.7,0.44999999999999996,0.25,2.3499999999999996,10,initial,36.05,323,348,373,398,0,9,9,9,9,0,,,,,,,1,0,1,0,0,26,26,24,,,,,,,,,,,,num_4,1.1826994000002742,num_4,0.45,1.0,0.25000000000000006,1.1,9.55138,42.02605,return,2.7963453999254853,,,,,,,,,,,,,,,,,710,22,male,left_right_width,2024-05-27_13h29.02.137,exp1,2023.1.0,59.993184750254386,
,,,,,,,,,,,,,,,,4,8.65,9.55,10.45,11.35,0,0.9,0.65,0.25,2.95,10,initial,36.05,312,344,377,409,0,9,9,9,9,0,,,,,,,1,0,1,0,0,27,27,30,,,,,,,,,,,,num_4,1.529008200042881,num_4,0.5,1.3,0.20000000000000007,1.6,7.6411,61.12881,return,3.2676202000584453,,,,,,,,,,,,,,,,,710,22,male,left_right_width,2024-05-27_13h29.02.137,exp1,2023.1.0,59.993184750254386,
,,,,,,,,,,,,,,,,5,7.8,8.9,10,11.1,12.2,1.1,0.7000000000000001,0.4,4.800000000000001,10,initial,36.05,281,321,361,400,440,9,9,9,9,9,,,,,,,1,0,1,0,0,28,28,38,,,,,,,,,,,,num_4,1.4992068998981267,num_4,0.35,0.5,0.3,1.1,11.46165,42.02605,return,6.344372799969278,,,,,,,,,,,,,,,,,710,22,male,left_right_width,2024-05-27_13h29.02.137,exp1,2023.1.0,59.993184750254386,
,,,,,,,,,,,,,,,,4,8.65,9.55,10.45,11.35,0,0.9,0.35,0.55,3.25,10,initial,36.05,312,344,377,409,0,9,9,9,9,0,,,,,,,1,0,1,0,0,29,29,28,,,,,,,,,,,,num_4,1.2961999999824911,num_4,0.35,1.1,0.8500000000000002,1.1,32.47468,42.02605,return,3.916123199975118,,,,,,,,,,,,,,,,,710,22,male,left_right_width,2024-05-27_13h29.02.137,exp1,2023.1.0,59.993184750254386,
,,,,,,,,,,,,,,,,4,8.35,9.45,10.55,11.65,0,1.1,0.7000000000000001,0.4,3.7,10,initial,36.05,301,341,380,420,0,9,9,9,9,0,,,,,,,1,0,1,0,0,30,30,21,,,,,,,,,,,,num_4,1.6492469999939203,num_4,0.35,0.6,0.49999999999999994,1.2,19.10275,45.8466,return,6.42904489999637,,,,,,,,,,,,,,,,,710,22,male,left_right_width,2024-05-27_13h29.02.137,exp1,2023.1.0,59.993184750254386,
,,,,,,,,,,,,,,,,4,8.65,9.55,10.45,11.35,0,0.9,0.5,0.4,3.1,10,initial,36.05,312,344,377,409,0,9,9,9,9,0,,,,,,,1,0,1,0,0,31,31,32,,,,,,,,,,,,num_4,1.099263699958101,num_4,0.4,1.3,0.4,1.3,15.2822,49.66716,return,1.5151513000018895,,,,,,,,,,,,,,,,,710,22,male,left_right_width,2024-05-27_13h29.02.137,exp1,2023.1.0,59.993184750254386,
,,,,,,,,,,,,,,,,4,9.3,9.766666666666667,10.233333333333333,10.7,0,0.4666666666666667,0.06666666666666665,0.4,1.8,10,match,36.05,335,352,369,386,0,9,9,9,9,0,,,,,,,1,0,1,0,0,32,32,10,,,,,,,,,,,,num_3,1.5341437000315636,num_3,0.3,1.1,0.9000000000000002,1.1,34.38495,42.02605,return,4.731799899949692,,,,,,,,,,,,,,,,,710,22,male,left_right_width,2024-05-27_13h29.02.137,exp1,2023.1.0,59.993184750254386,
,,,,,,,,,,,,,,,,4,8.9,9.633333333333333,10.366666666666667,11.1,0,0.7333333333333333,0.18333333333333326,0.55,2.75,10,match,36.05,321,347,374,400,0,9,9,9,9,0,,,,,,,1,0,1,0,0,33,33,1,,,,,,,,,,,,num_3,1.1873590000905097,num_3,0.3,0.8,0.6,0.8,22.9233,30.5644,return,2.559706100029871,,,,,,,,,,,,,,,,,710,22,male,left_right_width,2024-05-27_13h29.02.137,exp1,2023.1.0,59.993184750254386,
,,,,,,,,,,,,,,,,3,8.6,10,11.4,0,0,1.4,1.15,0.25,3.05,10,match,36.05,310,361,411,0,0,9,9,9,0,0,,,,,,,1,0,1,0,0,34,34,43,,,,,,,,,,,,num_3,1.2992320999037474,num_3,0.2,1.3,0.2,1.75,7.6411,66.85963,return,4.585098999901675,,,,,,,,,,,,,,,,,710,22,male,left_right_width,2024-05-27_13h29.02.137,exp1,2023.1.0,59.993184750254386,
,,,,,,,,,,,,,,,,5,8.6,9.3,10,10.7,11.4,0.7,0.29999999999999993,0.4,3.1999999999999997,10,initial,36.05,310,335,361,386,411,9,9,9,9,9,,,,,,,1,0,1,0,0,35,35,44,,,,,,,,,,,,num_4,1.3063777000643313,num_4,0.25,0.7,0.25,1.3,9.55138,49.66716,return,5.35759330005385,,,,,,,,,,,,,,,,,710,22,male,left_right_width,2024-05-27_13h29.02.137,exp1,2023.1.0,59.993184750254386,
,,,,,,,,,,,,,,,,4,9.1,9.7,10.3,10.9,0,0.6000000000000001,0.20000000000000004,0.4,2.2,10,match,36.05,328,350,371,393,0,9,9,9,9,0,,,,,,,1,0,1,0,0,36,36,16,,,,,,,,,,,,num_4,1.3601996999932453,num_4,0.55,0.9,0.8000000000000003,1.2,30.5644,45.8466,return,8.227554599987343,,,,,,,,,,,,,,,,,710,22,male,left_right_width,2024-05-27_13h29.02.137,exp1,2023.1.0,59.993184750254386,
,,,,,,,,,,,,,,,,5,8.35,9.175,10,10.825,11.65,0.8250000000000001,0.275,0.55,3.85,10,match,36.05,301,331,361,390,420,9,9,9,9,9,,,,,,,1,0,1,0,0,37,37,18,,,,,,,,,,,,num_4,1.3843161000404507,num_4,0.4,0.6,0.8000000000000003,1.1,30.5644,42.02605,return,6.486785199958831,,,,,,,,,,,,,,,,,710,22,male,left_right_width,2024-05-27_13h29.02.137,exp1,2023.1.0,59.993184750254386,
,,,,,,,,,,,,,,,,5,7.8,8.9,10,11.1,12.2,1.1,0.8500000000000001,0.25,4.65,10,initial,36.05,281,321,361,400,440,9,9,9,9,9,,,,,,,1,0,1,0,0,38,38,36,,,,,,,,,,,,num_4,1.2414603000506759,num_4,0.4,1.2,0.15000000000000008,1.7,5.73083,64.94936,return,3.091364699997939,,,,,,,,,,,,,,,,,710,22,male,left_right_width,2024-05-27_13h29.02.137,exp1,2023.1.0,59.993184750254386,
,,,,,,,,,,,,,,,,3,8.9,10,11.1,0,0,1.1,0.55,0.55,2.75,10,initial,36.05,321,361,400,0,0,9,9,9,0,0,,,,,,,1,0,1,0,0,39,39,0,,,,,,,,,,,,num_3,1.2512229999992996,num_3,0.35,0.6,0.7000000000000001,1.0,26.74385,38.2055,return,3.5309555999701843,,,,,,,,,,,,,,,,,710,22,male,left_right_width,2024-05-27_13h29.02.137,exp1,2023.1.0,59.993184750254386,
,,,,,,,,,,,,,,,,4,8.9,9.633333333333333,10.366666666666667,11.1,0,0.7333333333333334,0.4833333333333334,0.25,2.45,10,match,36.05,321,347,374,400,0,9,9,9,9,0,,,,,,,1,0,1,0,0,40,40,3,,,,,,,,,,,,num_4,1.0518667000578716,num_4,0.35,1.1,0.15000000000000002,1.5,5.73083,57.30826,return,2.336086199968122,,,,,,,,,,,,,,,,,710,22,male,left_right_width,2024-05-27_13h29.02.137,exp1,2023.1.0,59.993184750254386,
,,,,,,,,,,,,,,,,4,8.35,9.45,10.55,11.65,0,1.1,0.55,0.55,3.8500000000000005,10,initial,36.05,301,341,380,420,0,9,9,9,9,0,,,,,,,1,0,1,0,0,41,41,17,,,,,,,,,,,,num_3,1.2613957000430673,num_3,0.4,0.8,0.5,1.3,19.10275,49.66716,return,5.9239548000041395,,,,,,,,,,,,,,,,,710,22,male,left_right_width,2024-05-27_13h29.02.137,exp1,2023.1.0,59.993184750254386,
,,,,,,,,,,,,,,,,3,9.3,10,10.7,0,0,0.7,0.1499999999999999,0.55,1.95,10,initial,36.05,335,361,386,0,0,9,9,9,0,0,,,,,,,1,0,1,0,0,42,42,6,,,,,,,,,,,,num_2,1.1845952000003308,num_2,0.5,1.6,1.4500000000000008,1.8,55.39798,68.76991,return,5.38380509999115,,,,,,,,,,,,,,,,,710,22,male,left_right_width,2024-05-27_13h29.02.137,exp1,2023.1.0,59.993184750254386,
,,,,,,,,,,,,,,,,3,8.2,10,11.8,0,0,1.8,1.55,0.25,3.85,10,match,36.05,296,361,425,0,0,9,9,9,0,0,,,,,,,1,0,1,0,0,43,43,49,,,,,,,,,,,,num_3,1.0826265999348834,num_3,0.3,0.5,0.15000000000000002,1.45,5.73083,55.39798,return,5.049148900085129,,,,,,,,,,,,,,,,,710,22,male,left_right_width,2024-05-27_13h29.02.137,exp1,2023.1.0,59.993184750254386,
,,,,,,,,,,,,,,,,5,8.65,9.325,10,10.675,11.35,0.675,0.42500000000000004,0.25,2.95,10,match,36.05,312,336,361,385,409,9,9,9,9,9,,,,,,,1,0,1,0,0,44,44,31,,,,,,,,,,,,num_5,1.1092634999658912,num_5,0.55,1.2,0.15000000000000008,1.2,5.73083,45.8466,return,3.575968199991621,,,,,,,,,,,,,,,,,710,22,male,left_right_width,2024-05-27_13h29.02.137,exp1,2023.1.0,59.993184750254386,
,,,,,,,,,,,,,,,,3,7.8,10,12.2,0,0,2.2,1.9500000000000002,0.25,4.65,10,match,36.05,281,361,440,0,0,9,9,9,0,0,,,,,,,1,0,1,0,0,45,45,37,,,,,,,,,,,,num_3,1.029861000017263,num_3,0.3,1.1,0.15000000000000002,1.8,5.73083,68.76991,return,4.01210410008207,,,,,,,,,,,,,,,,,710,22,male,left_right_width,2024-05-27_13h29.02.137,exp1,2023.1.0,59.993184750254386,
,,,,,,,,,,,,,,,,5,8.2,9.1,10,10.9,11.8,0.9,0.65,0.25,3.85,10,initial,36.05,296,328,361,393,425,9,9,9,9,9,,,,,,,1,0,1,0,0,46,46,48,,,,,,,,,,,,num_5,1.2606207999633625,num_5,0.45,1.0,0.15000000000000008,1.2,5.73083,45.8466,return,2.9636988999554887,,,,,,,,,,,,,,,,,710,22,male,left_right_width,2024-05-27_13h29.02.137,exp1,2023.1.0,59.993184750254386,
,,,,,,,,,,,,,,,,5,8.2,9.1,10,10.9,11.8,0.9,0.5,0.4,4,10,initial,36.05,296,328,361,393,425,9,9,9,9,9,,,,,,,1,0,1,0,0,47,47,50,,,,,,,,,,,,num_4,1.4277653000317514,num_4,0.55,1.3,0.35000000000000003,1.7,13.37193,64.94936,return,2.852782899979502,,,,,,,,,,,,,,,,,710,22,male,left_right_width,2024-05-27_13h29.02.137,exp1,2023.1.0,59.993184750254386,
,,,,,,,,,,,,,,,,5,8.65,9.325,10,10.675,11.35,0.675,0.275,0.4,3.1,10,match,36.05,312,336,361,385,409,9,9,9,9,9,,,,,,,1,0,1,0,0,48,48,33,,,,,,,,,,,,num_4,1.2011828999966383,num_4,0.35,0.4,0.44999999999999996,1.0,17.19248,38.2055,return,5.531031199963763,,,,,,,,,,,,,,,,,710,22,male,left_right_width,2024-05-27_13h29.02.137,exp1,2023.1.0,59.993184750254386,
,,,,,,,,,,,,,,,,3,8.525,10,11.475,0,0,1.475,1.225,0.25,3.2,10,match,36.05,307,361,414,0,0,9,9,9,0,0,,,,,,,1,0,1,0,0,49,49,45,,,,,,,,,,,,num_3,0.979103000019677,num_3,0.35,0.7,0.2,1.55,7.6411,59.21853,return,5.366079799947329,,,,,,,,,,,,,,,,,710,22,male,left_right_width,2024-05-27_13h29.02.137,exp1,2023.1.0,59.993184750254386,
,,,,,,,,,,,,,,,,3,8.2,10,11.8,0,0,1.7999999999999998,1.4,0.4,4,10,match,36.05,296,361,425,0,0,9,9,9,0,0,,,,,,,1,0,1,0,0,50,50,51,,,,,,,,,,,,num_3,1.0094294999726117,num_3,0.3,0.7,0.2,1.45,7.6411,55.39798,return,4.743765200022608,,,,,,,,,,,,,,,,,710,22,male,left_right_width,2024-05-27_13h29.02.137,exp1,2023.1.0,59.993184750254386,
,,,,,,,,,,,,,,,,5,8.65,9.325,10,10.675,11.35,0.675,0.125,0.55,3.25,10,match,36.05,312,336,361,385,409,9,9,9,9,9,,,,,,,1,0,1,0,0,51,51,29,,,,,,,,,,,,num_4,1.299720500013791,num_4,0.25,0.5,0.7500000000000001,1.0,28.65413,38.2055,return,4.34346809994895,,,,,,,,,,,,,,,,,710,22,male,left_right_width,2024-05-27_13h29.02.137,exp1,2023.1.0,59.993184750254386,
,,,,,,,,,,,,,,,,,,,,,,,,,,,,,,,,,,,,,,,,,,,,,1,0,1,0,,,,,,,,,,,,,,,,,,,,,,,,,,,,,1389.8185022999533,1389.8185022999533,1389.8185022999533,,,,,,,,,,,,710,22,male,left_right_width,2024-05-27_13h29.02.137,exp1,2023.1.0,59.993184750254386,
,,,,,,,,,,,,,,,,3,9.3,10,10.7,0,0,0.7,0.29999999999999993,0.4,1.8,10,initial,36.05,335,361,386,0,0,9,9,9,0,0,,,,,,,2,0,2,0,0,0,0,9,,,,,,,,,,,,num_3,1.2426544999470934,num_3,0.55,1.2,0.55,1.05,21.01303,40.11578,return,5.608324100030586,,,,,,,,,,,,,,,,,710,22,male,left_right_width,2024-05-27_13h29.02.137,exp1,2023.1.0,59.993184750254386,
,,,,,,,,,,,,,,,,5,8.2,9.1,10,10.9,11.8,0.9,0.65,0.25,3.85,10,initial,36.05,296,328,361,393,425,9,9,9,9,9,,,,,,,2,0,2,0,0,1,1,48,,,,,,,,,,,,num_4,1.136297699995339,num_4,0.45,0.8,0.20000000000000007,1.4,7.6411,53.48771,return,3.37377629999537,,,,,,,,,,,,,,,,,710,22,male,left_right_width,2024-05-27_13h29.02.137,exp1,2023.1.0,59.993184750254386,
,,,,,,,,,,,,,,,,3,9.1,10,10.9,0,0,0.9,0.35,0.55,2.35,10,initial,36.05,328,361,393,0,0,9,9,9,0,0,,,,,,,2,0,2,0,0,2,2,11,,,,,,,,,,,,num_3,0.9466074000811204,num_3,0.2,1.1,0.7500000000000001,1.0,28.65413,38.2055,return,6.131383599946275,,,,,,,,,,,,,,,,,710,22,male,left_right_width,2024-05-27_13h29.02.137,exp1,2023.1.0,59.993184750254386,
,,,,,,,,,,,,,,,,3,8.6,10,11.4,0,0,1.4,1.15,0.25,3.05,10,match,36.05,310,361,411,0,0,9,9,9,0,0,,,,,,,2,0,2,0,0,3,3,43,,,,,,,,,,,,num_3,1.1429957000073045,num_3,0.4,0.8,0.15000000000000008,1.15,5.73083,43.93633,return,3.2345461999066174,,,,,,,,,,,,,,,,,710,22,male,left_right_width,2024-05-27_13h29.02.137,exp1,2023.1.0,59.993184750254386,
,,,,,,,,,,,,,,,,3,8.9,10,11.1,0,0,1.1,0.55,0.55,2.75,10,initial,36.05,321,361,400,0,0,9,9,9,0,0,,,,,,,2,0,2,0,0,4,4,0,,,,,,,,,,,,num_3,0.8457426999229938,num_3,0.4,0.5,0.7500000000000002,1.0,28.65413,38.2055,return,5.083102900069207,,,,,,,,,,,,,,,,,710,22,male,left_right_width,2024-05-27_13h29.02.137,exp1,2023.1.0,59.993184750254386,
,,,,,,,,,,,,,,,,5,8.35,9.175,10,10.825,11.65,0.825,0.575,0.25,3.55,10,match,36.05,301,331,361,390,420,9,9,9,9,9,,,,,,,2,0,2,0,0,5,5,20,,,,,,,,,,,,num_4,0.8023117000702769,num_4,0.3,0.4,0.2,0.9,7.6411,34.38495,return,3.2440584999276325,,,,,,,,,,,,,,,,,710,22,male,left_right_width,2024-05-27_13h29.02.137,exp1,2023.1.0,59.993184750254386,
,,,,,,,,,,,,,,,,5,8.275,9.1375,10,10.8625,11.725,0.8625,0.6125,0.25,3.7,10,match,36.05,298,329,361,392,423,9,9,9,9,9,,,,,,,2,0,2,0,0,6,6,22,,,,,,,,,,,,num_4,0.9443524000234902,num_4,0.55,0.7,0.15000000000000008,1.1,5.73083,42.02605,return,3.2372052000137046,,,,,,,,,,,,,,,,,710,22,male,left_right_width,2024-05-27_13h29.02.137,exp1,2023.1.0,59.993184750254386,
,,,,,,,,,,,,,,,,3,7.8,10,12.2,0,0,2.2,1.65,0.55,4.95,10,match,36.05,281,361,440,0,0,9,9,9,0,0,,,,,,,2,0,2,0,0,7,7,35,,,,,,,,,,,,num_3,1.099734800052829,num_3,0.25,0.5,0.7000000000000001,1.25,26.74385,47.75688,return,5.469776400015689,,,,,,,,,,,,,,,,,710,22,male,left_right_width,2024-05-27_13h29.02.137,exp1,2023.1.0,59.993184750254386,
,,,,,,,,,,,,,,,,3,9.1,10,10.9,0,0,0.9,0.5,0.4,2.2,10,initial,36.05,328,361,393,0,0,9,9,9,0,0,,,,,,,2,0,2,0,0,8,8,15,,,,,,,,,,,,num_3,0.8876287000020966,num_3,0.2,0.3,0.5499999999999999,0.9,21.01303,34.38495,return,5.250903800013475,,,,,,,,,,,,,,,,,710,22,male,left_right_width,2024-05-27_13h29.02.137,exp1,2023.1.0,59.993184750254386,
,,,,,,,,,,,,,,,,5,8.6,9.3,10,10.7,11.4,0.7,0.44999999999999996,0.25,3.05,10,initial,36.05,310,335,361,386,411,9,9,9,9,9,,,,,,,2,0,2,0,0,9,9,42,,,,,,,,,,,,num_5,1.5663512999890372,num_5,0.35,0.4,0.2,0.85,7.6411,32.47468,return,3.6938992000650615,,,,,,,,,,,,,,,,,710,22,male,left_right_width,2024-05-27_13h29.02.137,exp1,2023.1.0,59.993184750254386,
,,,,,,,,,,,,,,,,4,9.3,9.766666666666667,10.233333333333333,10.7,0,0.4666666666666667,0.21666666666666665,0.25,1.65,10,match,36.05,335,352,369,386,0,9,9,9,9,0,,,,,,,2,0,2,0,0,10,10,8,,,,,,,,,,,,num_3,0.9195777999702841,num_3,0.35,1,0.35,1.0,13.37193,38.2055,return,7.469544499996118,,,,,,,,,,,,,,,,,710,22,male,left_right_width,2024-05-27_13h29.02.137,exp1,2023.1.0,59.993184750254386,
,,,,,,,,,,,,,,,,4,9.1,9.7,10.3,10.9,0,0.6000000000000001,0.20000000000000004,0.4,2.2,10,match,36.05,328,350,371,393,0,9,9,9,9,0,,,,,,,2,0,2,0,0,11,11,16,,,,,,,,,,,,num_4,1.1185930999927223,num_4,0.55,0.7,0.4,0.7,15.2822,26.74385,return,2.0710876000812277,,,,,,,,,,,,,,,,,710,22,male,left_right_width,2024-05-27_13h29.02.137,exp1,2023.1.0,59.993184750254386,
,,,,,,,,,,,,,,,,4,9.3,9.766666666666667,10.233333333333333,10.7,0,0.4666666666666667,0.06666666666666665,0.4,1.8,10,match,36.05,335,352,369,386,0,9,9,9,9,0,,,,,,,2,0,2,0,0,12,12,10,,,,,,,,,,,,num_3,1.3173792000161484,num_3,0.2,0.4,0.49999999999999994,0.75,19.10275,28.65413,return,3.834936000057496,,,,,,,,,,,,,,,,,710,22,male,left_right_width,2024-05-27_13h29.02.137,exp1,2023.1.0,59.993184750254386,
,,,,,,,,,,,,,,,,5,8.65,9.325,10,10.675,11.35,0.675,0.42500000000000004,0.25,2.95,10,match,36.05,312,336,361,385,409,9,9,9,9,9,,,,,,,2,0,2,0,0,13,13,31,,,,,,,,,,,,num_4,2.665998399956152,num_4,0.2,0.7,0.25,0.6,9.55138,22.9233,return,7.58913360000588,,,,,,,,,,,,,,,,,710,22,male,left_right_width,2024-05-27_13h29.02.137,exp1,2023.1.0,59.993184750254386,
,,,,,,,,,,,,,,,,5,8.2,9.1,10,10.9,11.8,0.9,0.5,0.4,4,10,initial,36.05,296,328,361,393,425,9,9,9,9,9,,,,,,,2,0,2,0,0,14,14,50,,,,,,,,,,,,num_5,1.3516667999792844,num_5,0.2,1.0,0.44999999999999996,1.0,17.19248,38.2055,return,3.178203499992378,,,,,,,,,,,,,,,,,710,22,male,left_right_width,2024-05-27_13h29.02.137,exp1,2023.1.0,59.993184750254386,
,,,,,,,,,,,,,,,,4,8.35,9.45,10.55,11.65,0,1.1,0.7000000000000001,0.4,3.7,10,initial,36.05,301,341,380,420,0,9,9,9,9,0,,,,,,,2,0,2,0,0,15,15,21,,,,,,,,,,,,num_3,1.0639295000582933,num_3,0.4,1,0.55,1.0,21.01303,38.2055,return,3.8187026000814512,,,,,,,,,,,,,,,,,710,22,male,left_right_width,2024-05-27_13h29.02.137,exp1,2023.1.0,59.993184750254386,
,,,,,,,,,,,,,,,,4,8.65,9.55,10.45,11.35,0,0.9,0.5,0.4,3.1,10,initial,36.05,312,344,377,409,0,9,9,9,9,0,,,,,,,2,0,2,0,0,16,16,32,,,,,,,,,,,,num_3,0.9770918000722304,num_3,0.25,1,0.49999999999999994,1.2,19.10275,45.8466,return,4.496806700015441,,,,,,,,,,,,,,,,,710,22,male,left_right_width,2024-05-27_13h29.02.137,exp1,2023.1.0,59.993184750254386,
,,,,,,,,,,,,,,,,5,8.95,9.475,10,10.525,11.05,0.525,0.275,0.25,2.35,10,match,36.05,323,342,361,379,398,9,9,9,9,9,,,,,,,2,0,2,0,0,17,17,25,,,,,,,,,,,,num_4,1.1250287999864668,num_4,0.55,1.2,0.25000000000000006,0.7,9.55138,26.74385,return,4.854369299951941,,,,,,,,,,,,,,,,,710,22,male,left_right_width,2024-05-27_13h29.02.137,exp1,2023.1.0,59.993184750254386,
,,,,,,,,,,,,,,,,5,7.8,8.9,10,11.1,12.2,1.1,0.55,0.55,4.95,10,initial,36.05,281,321,361,400,440,9,9,9,9,9,,,,,,,2,0,2,0,0,18,18,34,,,,,,,,,,,,num_5,1.1805562999797985,num_5,0.5,0.7,0.5,0.85,19.10275,32.47468,return,3.014155200100504,,,,,,,,,,,,,,,,,710,22,male,left_right_width,2024-05-27_13h29.02.137,exp1,2023.1.0,59.993184750254386,
,,,,,,,,,,,,,,,,5,8.95,9.475,10,10.525,11.05,0.525,0.125,0.4,2.5,10,match,36.05,323,342,361,379,398,9,9,9,9,9,,,,,,,2,0,2,0,0,19,19,27,,,,,,,,,,,,num_4,1.274789199931547,num_4,0.2,0.6,0.6,0.8,22.9233,30.5644,return,4.368491499917582,,,,,,,,,,,,,,,,,710,22,male,left_right_width,2024-05-27_13h29.02.137,exp1,2023.1.0,59.993184750254386,
,,,,,,,,,,,,,,,,4,8.9,9.633333333333333,10.366666666666667,11.1,0,0.7333333333333334,0.4833333333333334,0.25,2.45,10,match,36.05,321,347,374,400,0,9,9,9,9,0,,,,,,,2,0,2,0,0,20,20,3,,,,,,,,,,,,num_4,1.1681420999811962,num_4,0.3,0.5,0.39999999999999997,0.7,15.2822,26.74385,return,5.179146500071511,,,,,,,,,,,,,,,,,710,22,male,left_right_width,2024-05-27_13h29.02.137,exp1,2023.1.0,59.993184750254386,
,,,,,,,,,,,,,,,,3,8.2,10,11.8,0,0,1.8,1.55,0.25,3.85,10,match,36.05,296,361,425,0,0,9,9,9,0,0,,,,,,,2,0,2,0,0,21,21,49,,,,,,,,,,,,num_3,1.0155484999995679,num_3,0.2,0.7,0.2,1.3,7.6411,49.66716,return,4.3830299999099225,,,,,,,,,,,,,,,,,710,22,male,left_right_width,2024-05-27_13h29.02.137,exp1,2023.1.0,59.993184750254386,
,,,,,,,,,,,,,,,,3,8.9,10,11.1,0,0,1.1,0.8500000000000001,0.25,2.45,10,initial,36.05,321,361,400,0,0,9,9,9,0,0,,,,,,,2,0,2,0,0,22,22,2,,,,,,,,,,,,num_3,1.047623599995859,num_3,0.3,0.8,0.10000000000000002,1.3,3.82055,49.66716,return,3.0356760999420658,,,,,,,,,,,,,,,,,710,22,male,left_right_width,2024-05-27_13h29.02.137,exp1,2023.1.0,59.993184750254386,
,,,,,,,,,,,,,,,,5,8.35,9.175,10,10.825,11.65,0.8250000000000001,0.275,0.55,3.85,10,match,36.05,301,331,361,390,420,9,9,9,9,9,,,,,,,2,0,2,0,0,23,23,18,,,,,,,,,,,,num_4,1.045414699940011,num_4,0.25,0.8,0.8000000000000002,1.0,30.5644,38.2055,return,7.69897360005416,,,,,,,,,,,,,,,,,710,22,male,left_right_width,2024-05-27_13h29.02.137,exp1,2023.1.0,59.993184750254386,
,,,,,,,,,,,,,,,,3,7.8,10,12.2,0,0,2.2,1.9500000000000002,0.25,4.65,10,match,36.05,281,361,440,0,0,9,9,9,0,0,,,,,,,2,0,2,0,0,24,24,37,,,,,,,,,,,,num_3,1.3270778000587597,num_3,0.4,0.7,0.20000000000000007,1.3,7.6411,49.66716,return,4.020273100002669,,,,,,,,,,,,,,,,,710,22,male,left_right_width,2024-05-27_13h29.02.137,exp1,2023.1.0,59.993184750254386,
,,,,,,,,,,,,,,,,4,8.9,9.633333333333333,10.366666666666667,11.1,0,0.7333333333333333,0.18333333333333326,0.55,2.75,10,match,36.05,321,347,374,400,0,9,9,9,9,0,,,,,,,2,0,2,0,0,25,25,1,,,,,,,,,,,,num_3,1.0226999999722466,num_3,0.3,1,0.8500000000000002,1.1,32.47468,42.02605,return,3.31578109995462,,,,,,,,,,,,,,,,,710,22,male,left_right_width,2024-05-27_13h29.02.137,exp1,2023.1.0,59.993184750254386,
,,,,,,,,,,,,,,,,4,9.1,9.7,10.3,10.9,0,0.6,0.04999999999999997,0.55,2.35,10,match,36.05,328,350,371,393,0,9,9,9,9,0,,,,,,,2,0,2,0,0,26,26,12,,,,,,,,,,,,num_3,0.929332600091584,num_3,0.2,1.3,1.1000000000000003,1.3,42.02605,49.66716,return,5.915828899946064,,,,,,,,,,,,,,,,,710,22,male,left_right_width,2024-05-27_13h29.02.137,exp1,2023.1.0,59.993184750254386,
,,,,,,,,,,,,,,,,5,8.65,9.325,10,10.675,11.35,0.675,0.275,0.4,3.1,10,match,36.05,312,336,361,385,409,9,9,9,9,9,,,,,,,2,0,2,0,0,27,27,33,,,,,,,,,,,,num_4,1.5796879000263289,num_4,0.3,1.3,1.0000000000000002,1.3,38.2055,49.66716,return,8.168724600109272,,,,,,,,,,,,,,,,,710,22,male,left_right_width,2024-05-27_13h29.02.137,exp1,2023.1.0,59.993184750254386,
,,,,,,,,,,,,,,,,4,8.65,9.55,10.45,11.35,0,0.9,0.35,0.55,3.25,10,initial,36.05,312,344,377,409,0,9,9,9,9,0,,,,,,,2,0,2,0,0,28,28,28,,,,,,,,,,,,num_4,1.2344291999470443,num_4,0.25,1.0,0.8000000000000002,1.0,30.5644,38.2055,return,3.1608366000000387,,,,,,,,,,,,,,,,,710,22,male,left_right_width,2024-05-27_13h29.02.137,exp1,2023.1.0,59.993184750254386,
,,,,,,,,,,,,,,,,3,7.800000000000001,10,12.2,0,0,2.1999999999999997,1.7999999999999998,0.4,4.8,10,match,36.05,281,361,440,0,0,9,9,9,0,0,,,,,,,2,0,2,0,0,29,29,39,,,,,,,,,,,,num_3,0.8845344000728801,num_3,0.3,0.7,0.3,1.75,11.46165,66.85963,return,8.044145899941213,,,,,,,,,,,,,,,,,710,22,male,left_right_width,2024-05-27_13h29.02.137,exp1,2023.1.0,59.993184750254386,
,,,,,,,,,,,,,,,,5,8.2,9.1,10,10.9,11.8,0.9,0.35,0.55,4.15,10,initial,36.05,296,328,361,393,425,9,9,9,9,9,,,,,,,2,0,2,0,0,30,30,46,,,,,,,,,,,,num_5,1.1904495999915525,num_5,0.25,0.7,0.6,0.8,22.9233,30.5644,return,3.7287510000169277,,,,,,,,,,,,,,,,,710,22,male,left_right_width,2024-05-27_13h29.02.137,exp1,2023.1.0,59.993184750254386,
,,,,,,,,,,,,,,,,5,7.8,8.9,10,11.1,12.2,1.1,0.8500000000000001,0.25,4.65,10,initial,36.05,281,321,361,400,440,9,9,9,9,9,,,,,,,2,0,2,0,0,31,31,36,,,,,,,,,,,,num_4,1.3830716999946162,num_4,0.4,1.0,0.20000000000000007,1.6,7.6411,61.12881,return,3.00758550001774,,,,,,,,,,,,,,,,,710,22,male,left_right_width,2024-05-27_13h29.02.137,exp1,2023.1.0,59.993184750254386,
,,,,,,,,,,,,,,,,4,8.95,9.65,10.35,11.05,0,0.7,0.1499999999999999,0.55,2.65,10,initial,36.05,323,348,373,398,0,9,9,9,9,0,,,,,,,2,0,2,0,0,32,32,23,,,,,,,,,,,,num_3,1.0567772999638692,num_3,0.25,0.8,0.8000000000000002,1.05,30.5644,40.11578,return,3.5085766999982297,,,,,,,,,,,,,,,,,710,22,male,left_right_width,2024-05-27_13h29.02.137,exp1,2023.1.0,59.993184750254386,
,,,,,,,,,,,,,,,,3,9.3,10,10.7,0,0,0.7,0.1499999999999999,0.55,1.95,10,initial,36.05,335,361,386,0,0,9,9,9,0,0,,,,,,,2,0,2,0,0,33,33,6,,,,,,,,,,,,num_2,0.9606260999571532,num_2,0.45,0.8,0.9500000000000004,1.2,36.29523,45.8466,return,2.834908499964513,,,,,,,,,,,,,,,,,710,22,male,left_right_width,2024-05-27_13h29.02.137,exp1,2023.1.0,59.993184750254386,
,,,,,,,,,,,,,,,,4,8.825,9.608333333333333,10.391666666666667,11.175,0,0.7833333333333333,0.5333333333333333,0.25,2.6,10,match,36.05,318,346,375,403,0,9,9,9,9,0,,,,,,,2,0,2,0,0,34,34,5,,,,,,,,,,,,num_3,2.0246638999087736,num_3,0.2,1.1,0.2,1.15,7.6411,43.93633,return,1.6497881000395864,,,,,,,,,,,,,,,,,710,22,male,left_right_width,2024-05-27_13h29.02.137,exp1,2023.1.0,59.993184750254386,
,,,,,,,,,,,,,,,,3,8.2,10,11.8,0,0,1.8,1.25,0.55,4.15,10,match,36.05,296,361,425,0,0,9,9,9,0,0,,,,,,,2,0,2,0,0,35,35,47,,,,,,,,,,,,num_3,2.332963899942115,num_3,0.4,0.8,0.9000000000000004,1.15,34.38495,43.93633,return,4.989762800047174,,,,,,,,,,,,,,,,,710,22,male,left_right_width,2024-05-27_13h29.02.137,exp1,2023.1.0,59.993184750254386,
,,,,,,,,,,,,,,,,5,8.65,9.325,10,10.675,11.35,0.675,0.125,0.55,3.25,10,match,36.05,312,336,361,385,409,9,9,9,9,9,,,,,,,2,0,2,0,0,36,36,29,,,,,,,,,,,,num_4,1.319158299942501,num_4,0.35,1.0,0.8000000000000002,1.0,30.5644,38.2055,return,2.9141154000535607,,,,,,,,,,,,,,,,,710,22,male,left_right_width,2024-05-27_13h29.02.137,exp1,2023.1.0,59.993184750254386,
,,,,,,,,,,,,,,,,4,8.35,9.45,10.55,11.65,0,1.1,0.8500000000000001,0.25,3.5500000000000003,10,initial,36.05,301,341,380,420,0,9,9,9,9,0,,,,,,,2,0,2,0,0,37,37,19,,,,,,,,,,,,num_3,1.267688799998723,num_3,0.5,0.8,0.25000000000000006,1.45,9.55138,55.39798,return,3.855851399945095,,,,,,,,,,,,,,,,,710,22,male,left_right_width,2024-05-27_13h29.02.137,exp1,2023.1.0,59.993184750254386,
,,,,,,,,,,,,,,,,4,8.95,9.65,10.35,11.05,0,0.7,0.44999999999999996,0.25,2.3499999999999996,10,initial,36.05,323,348,373,398,0,9,9,9,9,0,,,,,,,2,0,2,0,0,38,38,24,,,,,,,,,,,,num_4,0.9757518999977037,num_4,0.5,0.9,0.20000000000000007,1.2,7.6411,45.8466,return,3.474030200042762,,,,,,,,,,,,,,,,,710,22,male,left_right_width,2024-05-27_13h29.02.137,exp1,2023.1.0,59.993184750254386,
,,,,,,,,,,,,,,,,4,8.35,9.45,10.55,11.65,0,1.1,0.55,0.55,3.8500000000000005,10,initial,36.05,301,341,380,420,0,9,9,9,9,0,,,,,,,2,0,2,0,0,39,39,17,,,,,,,,,,,,num_3,1.3207743000239134,num_3,0.45,0.9,0.6000000000000001,1.25,22.9233,47.75688,return,5.182113499962725,,,,,,,,,,,,,,,,,710,22,male,left_right_width,2024-05-27_13h29.02.137,exp1,2023.1.0,59.993184750254386,
,,,,,,,,,,,,,,,,5,8.6,9.3,10,10.7,11.4,0.7,0.29999999999999993,0.4,3.1999999999999997,10,initial,36.05,310,335,361,386,411,9,9,9,9,9,,,,,,,2,0,2,0,0,40,40,44,,,,,,,,,,,,num_4,1.4041612000437453,num_4,0.5,1.2,0.20000000000000007,1.7,7.6411,64.94936,return,2.2697740000439808,,,,,,,,,,,,,,,,,710,22,male,left_right_width,2024-05-27_13h29.02.137,exp1,2023.1.0,59.993184750254386,
,,,,,,,,,,,,,,,,5,8.6,9.3,10,10.7,11.4,0.7,0.1499999999999999,0.55,3.3499999999999996,10,initial,36.05,310,335,361,386,411,9,9,9,9,9,,,,,,,2,0,2,0,0,41,41,40,,,,,,,,,,,,num_4,1.7329592000460252,num_4,0.2,0.4,0.7500000000000001,1.0,28.65413,38.2055,return,7.454624000005424,,,,,,,,,,,,,,,,,710,22,male,left_right_width,2024-05-27_13h29.02.137,exp1,2023.1.0,59.993184750254386,
,,,,,,,,,,,,,,,,3,8.9,10,11.1,0,0,1.1,0.7000000000000001,0.4,2.6000000000000005,10,initial,36.05,321,361,400,0,0,9,9,9,0,0,,,,,,,2,0,2,0,0,42,42,4,,,,,,,,,,,,num_3,0.9996380999218673,num_3,0.4,0.5,0.5,1.3,19.10275,49.66716,return,5.6116439999314025,,,,,,,,,,,,,,,,,710,22,male,left_right_width,2024-05-27_13h29.02.137,exp1,2023.1.0,59.993184750254386,
,,,,,,,,,,,,,,,,3,8.2,10,11.8,0,0,1.7999999999999998,1.4,0.4,4,10,match,36.05,296,361,425,0,0,9,9,9,0,0,,,,,,,2,0,2,0,0,43,43,51,,,,,,,,,,,,num_2,1.3463809000095353,num_2,0.45,1.0,0.45,3.3,17.19248,126.07816,return,5.803171299980022,,,,,,,,,,,,,,,,,710,22,male,left_right_width,2024-05-27_13h29.02.137,exp1,2023.1.0,59.993184750254386,
,,,,,,,,,,,,,,,,3,8.6,10,11.4,0,0,1.4,0.85,0.55,3.35,10,match,36.05,310,361,411,0,0,9,9,9,0,0,,,,,,,2,0,2,0,0,44,44,41,,,,,,,,,,,,num_3,0.93457959999796,num_3,0.55,0.6,0.25000000000000006,1.65,9.55138,63.03908,return,6.523407300002873,,,,,,,,,,,,,,,,,710,22,male,left_right_width,2024-05-27_13h29.02.137,exp1,2023.1.0,59.993184750254386,
,,,,,,,,,,,,,,,,3,8.525,10,11.475,0,0,1.475,1.225,0.25,3.2,10,match,36.05,307,361,414,0,0,9,9,9,0,0,,,,,,,2,0,2,0,0,45,45,45,,,,,,,,,,,,num_3,1.0284504999872297,num_3,0.55,1.2,0.30000000000000004,1.75,11.46165,66.85963,return,3.9628869000589475,,,,,,,,,,,,,,,,,710,22,male,left_right_width,2024-05-27_13h29.02.137,exp1,2023.1.0,59.993184750254386,
,,,,,,,,,,,,,,,,4,8.95,9.65,10.35,11.05,0,0.7,0.29999999999999993,0.4,2.5,10,initial,36.05,323,348,373,398,0,9,9,9,9,0,,,,,,,2,0,2,0,0,46,46,26,,,,,,,,,,,,num_3,1.0806461999891326,num_3,0.45,0.8,0.30000000000000004,1.2,11.46165,45.8466,return,2.6213629000121728,,,,,,,,,,,,,,,,,710,22,male,left_right_width,2024-05-27_13h29.02.137,exp1,2023.1.0,59.993184750254386,
,,,,,,,,,,,,,,,,4,9.1,9.7,10.3,10.9,0,0.5999999999999999,0.3499999999999999,0.25,2.05,10,match,36.05,328,350,371,393,0,9,9,9,9,0,,,,,,,2,0,2,0,0,47,47,14,,,,,,,,,,,,num_4,1.5751596000045538,num_4,0.3,0.6,0.15000000000000002,0.8,5.73083,30.5644,return,3.537064699921757,,,,,,,,,,,,,,,,,710,22,male,left_right_width,2024-05-27_13h29.02.137,exp1,2023.1.0,59.993184750254386,
,,,,,,,,,,,,,,,,3,9.1,10,10.9,0,0,0.9,0.65,0.25,2.05,10,initial,36.05,328,361,393,0,0,9,9,9,0,0,,,,,,,2,0,2,0,0,48,48,13,,,,,,,,,,,,num_2,1.1139999000588432,num_2,0.45,0.6,0.20000000000000007,1.6,7.6411,61.12881,return,3.2550480000209063,,,,,,,,,,,,,,,,,710,22,male,left_right_width,2024-05-27_13h29.02.137,exp1,2023.1.0,59.993184750254386,
,,,,,,,,,,,,,,,,3,9.3,10,10.7,0,0,0.7,0.44999999999999996,0.25,1.65,10,initial,36.05,335,361,386,0,0,9,9,9,0,0,,,,,,,2,0,2,0,0,49,49,7,,,,,,,,,,,,num_2,0.870942100067623,num_2,0.55,1.2,0.15000000000000008,1.6,5.73083,61.12881,return,2.1726019999478012,,,,,,,,,,,,,,,,,710,22,male,left_right_width,2024-05-27_13h29.02.137,exp1,2023.1.0,59.993184750254386,
,,,,,,,,,,,,,,,,5,7.8,8.9,10,11.1,12.2,1.1,0.7000000000000001,0.4,4.800000000000001,10,initial,36.05,281,321,361,400,440,9,9,9,9,9,,,,,,,2,0,2,0,0,50,50,38,,,,,,,,,,,,num_4,1.165928400005214,num_4,0.5,1.2,0.20000000000000007,1.9,7.6411,72.59046,return,3.53450830001384,,,,,,,,,,,,,,,,,710,22,male,left_right_width,2024-05-27_13h29.02.137,exp1,2023.1.0,59.993184750254386,
,,,,,,,,,,,,,,,,4,8.65,9.55,10.45,11.35,0,0.9,0.65,0.25,2.95,10,initial,36.05,312,344,377,409,0,9,9,9,9,0,,,,,,,2,0,2,0,0,51,51,30,,,,,,,,,,,,num_3,0.9197627999819815,num_3,0.3,0.4,0.15000000000000002,1.1,5.73083,42.02605,return,3.6600682000862435,,,,,,,,,,,,,,,,,710,22,male,left_right_width,2024-05-27_13h29.02.137,exp1,2023.1.0,59.993184750254386,
,,,,,,,,,,,,,,,,,,,,,,,,,,,,,,,,,,,,,,,,,,,,,2,0,2,0,,,,,,,,,,,,,,,,,,,,,,,,,,,,,1887.45198839996,1887.45198839996,1887.45198839996,,,,,,,,,,,,710,22,male,left_right_width,2024-05-27_13h29.02.137,exp1,2023.1.0,59.993184750254386,
,,,,,,,,,,,,,,,,5,8.65,9.325,10,10.675,11.35,0.675,0.125,0.55,3.25,10,match,36.05,312,336,361,385,409,9,9,9,9,9,,,,,,,3,0,3,0,0,0,0,29,,,,,,,,,,,,num_4,3.3811058999272063,num_4,0.5,0.7,0.8000000000000003,1.0,30.5644,38.2055,return,4.407820399967022,,,,,,,,,,,,,,,,,710,22,male,left_right_width,2024-05-27_13h29.02.137,exp1,2023.1.0,59.993184750254386,
,,,,,,,,,,,,,,,,3,8.9,10,11.1,0,0,1.1,0.7000000000000001,0.4,2.6000000000000005,10,initial,36.05,321,361,400,0,0,9,9,9,0,0,,,,,,,3,0,3,0,0,1,1,4,,,,,,,,,,,,num_2,1.3593707999680191,num_2,0.5,1.0,0.6500000000000001,1.7,24.83358,64.94936,return,4.53454869997222,,,,,,,,,,,,,,,,,710,22,male,left_right_width,2024-05-27_13h29.02.137,exp1,2023.1.0,59.993184750254386,
,,,,,,,,,,,,,,,,3,8.6,10,11.4,0,0,1.4,0.85,0.55,3.35,10,match,36.05,310,361,411,0,0,9,9,9,0,0,,,,,,,3,0,3,0,0,2,2,41,,,,,,,,,,,,num_2,1.2115017001051456,num_2,0.2,1.4,0.8500000000000002,2.0,32.47468,76.41101,return,4.554696200066246,,,,,,,,,,,,,,,,,710,22,male,left_right_width,2024-05-27_13h29.02.137,exp1,2023.1.0,59.993184750254386,
,,,,,,,,,,,,,,,,5,8.65,9.325,10,10.675,11.35,0.675,0.275,0.4,3.1,10,match,36.05,312,336,361,385,409,9,9,9,9,9,,,,,,,3,0,3,0,0,3,3,33,,,,,,,,,,,,num_4,1.0084820000920445,num_4,0.5,1.0,0.20000000000000007,1.4,7.6411,53.48771,return,3.3119625999825075,,,,,,,,,,,,,,,,,710,22,male,left_right_width,2024-05-27_13h29.02.137,exp1,2023.1.0,59.993184750254386,
,,,,,,,,,,,,,,,,3,8.2,10,11.8,0,0,1.7999999999999998,1.4,0.4,4,10,match,36.05,296,361,425,0,0,9,9,9,0,0,,,,,,,3,0,3,0,0,4,4,51,,,,,,,,,,,,num_3,2.7563641000306234,num_3,0.45,1.3,0.15000000000000008,1.65,5.73083,63.03908,return,2.796915499959141,,,,,,,,,,,,,,,,,710,22,male,left_right_width,2024-05-27_13h29.02.137,exp1,2023.1.0,59.993184750254386,
,,,,,,,,,,,,,,,,5,8.6,9.3,10,10.7,11.4,0.7,0.44999999999999996,0.25,3.05,10,initial,36.05,310,335,361,386,411,9,9,9,9,9,,,,,,,3,0,3,0,0,5,5,42,,,,,,,,,,,,num_4,0.8558103999821469,num_4,0.2,1.0,0.25,1.0,9.55138,38.2055,return,2.5954689000500366,,,,,,,,,,,,,,,,,710,22,male,left_right_width,2024-05-27_13h29.02.137,exp1,2023.1.0,59.993184750254386,
,,,,,,,,,,,,,,,,3,9.3,10,10.7,0,0,0.7,0.44999999999999996,0.25,1.65,10,initial,36.05,335,361,386,0,0,9,9,9,0,0,,,,,,,3,0,3,0,0,6,6,7,,,,,,,,,,,,num_2,1.0914401999907568,num_2,0.25,1.6,0.49999999999999994,1.6,19.10275,61.12881,return,3.0617959999945015,,,,,,,,,,,,,,,,,710,22,male,left_right_width,2024-05-27_13h29.02.137,exp1,2023.1.0,59.993184750254386,
,,,,,,,,,,,,,,,,3,9.1,10,10.9,0,0,0.9,0.5,0.4,2.2,10,initial,36.05,328,361,393,0,0,9,9,9,0,0,,,,,,,3,0,3,0,0,7,7,15,,,,,,,,,,,,num_2,1.4555117000127211,num_2,0.35,0.8,0.7000000000000001,1.7,26.74385,64.94936,return,8.15637440001592,,,,,,,,,,,,,,,,,710,22,male,left_right_width,2024-05-27_13h29.02.137,exp1,2023.1.0,59.993184750254386,
,,,,,,,,,,,,,,,,4,8.95,9.65,10.35,11.05,0,0.7,0.44999999999999996,0.25,2.3499999999999996,10,initial,36.05,323,348,373,398,0,9,9,9,9,0,,,,,,,3,0,3,0,0,8,8,24,,,,,,,,,,,,num_3,0.9989311000099406,num_3,0.25,0.4,0.15000000000000002,1.05,5.73083,40.11578,return,3.145646700053476,,,,,,,,,,,,,,,,,710,22,male,left_right_width,2024-05-27_13h29.02.137,exp1,2023.1.0,59.993184750254386,
,,,,,,,,,,,,,,,,5,8.6,9.3,10,10.7,11.4,0.7,0.1499999999999999,0.55,3.3499999999999996,10,initial,36.05,310,335,361,386,411,9,9,9,9,9,,,,,,,3,0,3,0,0,9,9,40,,,,,,,,,,,,num_5,1.2094741000328213,num_5,0.5,0.6,0.55,0.85,21.01303,32.47468,return,6.743513299967162,,,,,,,,,,,,,,,,,710,22,male,left_right_width,2024-05-27_13h29.02.137,exp1,2023.1.0,59.993184750254386,
,,,,,,,,,,,,,,,,5,8.95,9.475,10,10.525,11.05,0.525,0.125,0.4,2.5,10,match,36.05,323,342,361,379,398,9,9,9,9,9,,,,,,,3,0,3,0,0,10,10,27,,,,,,,,,,,,num_4,1.1175851000007242,num_4,0.35,0.5,0.49999999999999994,0.7,19.10275,26.74385,return,2.9541914999717847,,,,,,,,,,,,,,,,,710,22,male,left_right_width,2024-05-27_13h29.02.137,exp1,2023.1.0,59.993184750254386,
,,,,,,,,,,,,,,,,3,8.2,10,11.8,0,0,1.8,1.25,0.55,4.15,10,match,36.05,296,361,425,0,0,9,9,9,0,0,,,,,,,3,0,3,0,0,11,11,47,,,,,,,,,,,,num_3,1.4458264000713825,num_3,0.45,1.3,0.6000000000000001,1.75,22.9233,66.85963,return,3.1105648000957444,,,,,,,,,,,,,,,,,710,22,male,left_right_width,2024-05-27_13h29.02.137,exp1,2023.1.0,59.993184750254386,
,,,,,,,,,,,,,,,,5,8.2,9.1,10,10.9,11.8,0.9,0.5,0.4,4,10,initial,36.05,296,328,361,393,425,9,9,9,9,9,,,,,,,3,0,3,0,0,12,12,50,,,,,,,,,,,,num_5,1.349038099986501,num_5,0.45,0.5,0.35000000000000003,1.1,13.37193,42.02605,return,3.9031799000222236,,,,,,,,,,,,,,,,,710,22,male,left_right_width,2024-05-27_13h29.02.137,exp1,2023.1.0,59.993184750254386,
,,,,,,,,,,,,,,,,3,8.2,10,11.8,0,0,1.8,1.55,0.25,3.85,10,match,36.05,296,361,425,0,0,9,9,9,0,0,,,,,,,3,0,3,0,0,13,13,49,,,,,,,,,,,,num_3,1.3184424999635667,num_3,0.3,1,0.15000000000000002,1.65,5.73083,63.03908,return,3.3727771000703797,,,,,,,,,,,,,,,,,710,22,male,left_right_width,2024-05-27_13h29.02.137,exp1,2023.1.0,59.993184750254386,
,,,,,,,,,,,,,,,,5,8.65,9.325,10,10.675,11.35,0.675,0.42500000000000004,0.25,2.95,10,match,36.05,312,336,361,385,409,9,9,9,9,9,,,,,,,3,0,3,0,0,14,14,31,,,,,,,,,,,,num_5,1.3631928999675438,num_5,0.25,0.6,0.10000000000000002,0.95,3.82055,36.29523,return,2.7908762000733986,,,,,,,,,,,,,,,,,710,22,male,left_right_width,2024-05-27_13h29.02.137,exp1,2023.1.0,59.993184750254386,
,,,,,,,,,,,,,,,,4,8.35,9.45,10.55,11.65,0,1.1,0.55,0.55,3.8500000000000005,10,initial,36.05,301,341,380,420,0,9,9,9,9,0,,,,,,,3,0,3,0,0,15,15,17,,,,,,,,,,,,num_3,1.2886359000112861,num_3,0.25,1,0.15000000000000002,1.55,5.73083,59.21853,return,3.822106400039047,,,,,,,,,,,,,,,,,710,22,male,left_right_width,2024-05-27_13h29.02.137,exp1,2023.1.0,59.993184750254386,
,,,,,,,,,,,,,,,,3,7.8,10,12.2,0,0,2.2,1.65,0.55,4.95,10,match,36.05,281,361,440,0,0,9,9,9,0,0,,,,,,,3,0,3,0,0,16,16,35,,,,,,,,,,,,num_3,1.1286474999506027,num_3,0.35,0.4,0.5499999999999999,1.05,21.01303,40.11578,return,6.5628726000431925,,,,,,,,,,,,,,,,,710,22,male,left_right_width,2024-05-27_13h29.02.137,exp1,2023.1.0,59.993184750254386,
,,,,,,,,,,,,,,,,4,8.65,9.55,10.45,11.35,0,0.9,0.5,0.4,3.1,10,initial,36.05,312,344,377,409,0,9,9,9,9,0,,,,,,,3,0,3,0,0,17,17,32,,,,,,,,,,,,num_4,1.632881100056693,num_4,0.25,0.8,0.3,0.9,11.46165,34.38495,return,2.4076808999525383,,,,,,,,,,,,,,,,,710,22,male,left_right_width,2024-05-27_13h29.02.137,exp1,2023.1.0,59.993184750254386,
,,,,,,,,,,,,,,,,5,7.8,8.9,10,11.1,12.2,1.1,0.8500000000000001,0.25,4.65,10,initial,36.05,281,321,361,400,440,9,9,9,9,9,,,,,,,3,0,3,0,0,18,18,36,,,,,,,,,,,,num_4,0.9977213999954984,num_4,0.5,0.9,0.20000000000000007,1.4,7.6411,53.48771,return,3.2435452999779955,,,,,,,,,,,,,,,,,710,22,male,left_right_width,2024-05-27_13h29.02.137,exp1,2023.1.0,59.993184750254386,
,,,,,,,,,,,,,,,,5,8.6,9.3,10,10.7,11.4,0.7,0.29999999999999993,0.4,3.1999999999999997,10,initial,36.05,310,335,361,386,411,9,9,9,9,9,,,,,,,3,0,3,0,0,19,19,44,,,,,,,,,,,,num_4,1.027163099963218,num_4,0.25,1.1,0.35,0.8,13.37193,30.5644,return,3.993138000019826,,,,,,,,,,,,,,,,,710,22,male,left_right_width,2024-05-27_13h29.02.137,exp1,2023.1.0,59.993184750254386,
,,,,,,,,,,,,,,,,3,8.9,10,11.1,0,0,1.1,0.8500000000000001,0.25,2.45,10,initial,36.05,321,361,400,0,0,9,9,9,0,0,,,,,,,3,0,3,0,0,20,20,2,,,,,,,,,,,,num_3,1.0268129999749362,num_3,0.4,0.6,0.20000000000000007,1.15,7.6411,43.93633,return,4.0667741999495775,,,,,,,,,,,,,,,,,710,22,male,left_right_width,2024-05-27_13h29.02.137,exp1,2023.1.0,59.993184750254386,
,,,,,,,,,,,,,,,,5,8.95,9.475,10,10.525,11.05,0.525,0.275,0.25,2.35,10,match,36.05,323,342,361,379,398,9,9,9,9,9,,,,,,,3,0,3,0,0,21,21,25,,,,,,,,,,,,num_5,1.384490399970673,num_5,0.45,0.5,0.20000000000000007,0.85,7.6411,32.47468,return,4.639416899997741,,,,,,,,,,,,,,,,,710,22,male,left_right_width,2024-05-27_13h29.02.137,exp1,2023.1.0,59.993184750254386,
,,,,,,,,,,,,,,,,4,8.95,9.65,10.35,11.05,0,0.7,0.29999999999999993,0.4,2.5,10,initial,36.05,323,348,373,398,0,9,9,9,9,0,,,,,,,3,0,3,0,0,22,22,26,,,,,,,,,,,,num_3,1.022033300017938,num_3,0.4,0.6,0.7500000000000002,0.95,28.65413,36.29523,return,4.978826600010507,,,,,,,,,,,,,,,,,710,22,male,left_right_width,2024-05-27_13h29.02.137,exp1,2023.1.0,59.993184750254386,
,,,,,,,,,,,,,,,,5,7.8,8.9,10,11.1,12.2,1.1,0.7000000000000001,0.4,4.800000000000001,10,initial,36.05,281,321,361,400,440,9,9,9,9,9,,,,,,,3,0,3,0,0,23,23,38,,,,,,,,,,,,num_5,1.1454580998979509,num_5,0.5,1.1,0.25000000000000006,0.8,9.55138,30.5644,return,3.2839467000449076,,,,,,,,,,,,,,,,,710,22,male,left_right_width,2024-05-27_13h29.02.137,exp1,2023.1.0,59.993184750254386,
,,,,,,,,,,,,,,,,3,7.8,10,12.2,0,0,2.2,1.9500000000000002,0.25,4.65,10,match,36.05,281,361,440,0,0,9,9,9,0,0,,,,,,,3,0,3,0,0,24,24,37,,,,,,,,,,,,num_3,0.9193785999668762,num_3,0.25,0.3,0.2,1.4,7.6411,53.48771,return,5.6009637999814,,,,,,,,,,,,,,,,,710,22,male,left_right_width,2024-05-27_13h29.02.137,exp1,2023.1.0,59.993184750254386,
,,,,,,,,,,,,,,,,5,8.35,9.175,10,10.825,11.65,0.825,0.575,0.25,3.55,10,match,36.05,301,331,361,390,420,9,9,9,9,9,,,,,,,3,0,3,0,0,25,25,20,,,,,,,,,,,,num_5,1.8437537999125198,num_5,0.55,1.1,0.10000000000000007,1.25,3.82055,47.75688,return,3.3946389000630006,,,,,,,,,,,,,,,,,710,22,male,left_right_width,2024-05-27_13h29.02.137,exp1,2023.1.0,59.993184750254386,
,,,,,,,,,,,,,,,,3,8.6,10,11.4,0,0,1.4,1.15,0.25,3.05,10,match,36.05,310,361,411,0,0,9,9,9,0,0,,,,,,,3,0,3,0,0,26,26,43,,,,,,,,,,,,num_3,1.128633699961938,num_3,0.2,1.3,0.10000000000000002,1.55,3.82055,59.21853,return,1.9453107999870554,,,,,,,,,,,,,,,,,710,22,male,left_right_width,2024-05-27_13h29.02.137,exp1,2023.1.0,59.993184750254386,
,,,,,,,,,,,,,,,,5,8.2,9.1,10,10.9,11.8,0.9,0.35,0.55,4.15,10,initial,36.05,296,328,361,393,425,9,9,9,9,9,,,,,,,3,0,3,0,0,27,27,46,,,,,,,,,,,,num_5,1.3700338000198826,num_5,0.4,0.8,0.7500000000000002,0.9,28.65413,34.38495,return,3.1362073000054806,,,,,,,,,,,,,,,,,710,22,male,left_right_width,2024-05-27_13h29.02.137,exp1,2023.1.0,59.993184750254386,
,,,,,,,,,,,,,,,,4,8.35,9.45,10.55,11.65,0,1.1,0.7000000000000001,0.4,3.7,10,initial,36.05,301,341,380,420,0,9,9,9,9,0,,,,,,,3,0,3,0,0,28,28,21,,,,,,,,,,,,num_5,1.0683452000375837,num_5,0.4,0.9,0.6000000000000001,0.9,22.9233,34.38495,return,2.560488799936138,,,,,,,,,,,,,,,,,710,22,male,left_right_width,2024-05-27_13h29.02.137,exp1,2023.1.0,59.993184750254386,
,,,,,,,,,,,,,,,,4,8.65,9.55,10.45,11.35,0,0.9,0.35,0.55,3.25,10,initial,36.05,312,344,377,409,0,9,9,9,9,0,,,,,,,3,0,3,0,0,29,29,28,,,,,,,,,,,,num_3,1.2442739999387413,num_3,0.2,1.1,0.7000000000000001,0.85,26.74385,32.47468,return,3.6543889000313357,,,,,,,,,,,,,,,,,710,22,male,left_right_width,2024-05-27_13h29.02.137,exp1,2023.1.0,59.993184750254386,
,,,,,,,,,,,,,,,,4,8.9,9.633333333333333,10.366666666666667,11.1,0,0.7333333333333334,0.4833333333333334,0.25,2.45,10,match,36.05,321,347,374,400,0,9,9,9,9,0,,,,,,,3,0,3,0,0,30,30,3,,,,,,,,,,,,num_4,1.215952099999413,num_4,0.35,0.6,0.2,1.0,7.6411,38.2055,return,2.2830523001030087,,,,,,,,,,,,,,,,,710,22,male,left_right_width,2024-05-27_13h29.02.137,exp1,2023.1.0,59.993184750254386,
,,,,,,,,,,,,,,,,3,9.3,10,10.7,0,0,0.7,0.1499999999999999,0.55,1.95,10,initial,36.05,335,361,386,0,0,9,9,9,0,0,,,,,,,3,0,3,0,0,31,31,6,,,,,,,,,,,,num_1,1.0278561000013724,num_1,0.45,9999,0.45,9999,17.19248,382016.8345,return,2.4901673001004383,,,,,,,,,,,,,,,,,710,22,male,left_right_width,2024-05-27_13h29.02.137,exp1,2023.1.0,59.993184750254386,
,,,,,,,,,,,,,,,,4,9.1,9.7,10.3,10.9,0,0.6,0.04999999999999997,0.55,2.35,10,match,36.05,328,350,371,393,0,9,9,9,9,0,,,,,,,3,0,3,0,0,32,32,12,,,,,,,,,,,,num_2,1.503121200017631,num_2,0.25,1.4,0.8000000000000002,0.9,30.5644,34.38495,return,5.947946600033902,,,,,,,,,,,,,,,,,710,22,male,left_right_width,2024-05-27_13h29.02.137,exp1,2023.1.0,59.993184750254386,
,,,,,,,,,,,,,,,,3,7.800000000000001,10,12.2,0,0,2.1999999999999997,1.7999999999999998,0.4,4.8,10,match,36.05,281,361,440,0,0,9,9,9,0,0,,,,,,,3,0,3,0,0,33,33,39,,,,,,,,,,,,num_3,1.1323552000103518,num_3,0.2,0.7,0.2,2.15,7.6411,82.14183,return,6.017727499944158,,,,,,,,,,,,,,,,,710,22,male,left_right_width,2024-05-27_13h29.02.137,exp1,2023.1.0,59.993184750254386,
,,,,,,,,,,,,,,,,5,8.35,9.175,10,10.825,11.65,0.8250000000000001,0.275,0.55,3.85,10,match,36.05,301,331,361,390,420,9,9,9,9,9,,,,,,,3,0,3,0,0,34,34,18,,,,,,,,,,,,num_5,1.5757687999866903,num_5,0.3,1.3,0.65,0.85,24.83358,32.47468,return,5.302973599988036,,,,,,,,,,,,,,,,,710,22,male,left_right_width,2024-05-27_13h29.02.137,exp1,2023.1.0,59.993184750254386,
,,,,,,,,,,,,,,,,4,9.1,9.7,10.3,10.9,0,0.5999999999999999,0.3499999999999999,0.25,2.05,10,match,36.05,328,350,371,393,0,9,9,9,9,0,,,,,,,3,0,3,0,0,35,35,14,,,,,,,,,,,,num_4,0.9674664000049233,num_4,0.35,1.2,0.15000000000000002,1.0,5.73083,38.2055,return,4.746715200017206,,,,,,,,,,,,,,,,,710,22,male,left_right_width,2024-05-27_13h29.02.137,exp1,2023.1.0,59.993184750254386,
,,,,,,,,,,,,,,,,5,7.8,8.9,10,11.1,12.2,1.1,0.55,0.55,4.95,10,initial,36.05,281,321,361,400,440,9,9,9,9,9,,,,,,,3,0,3,0,0,36,36,34,,,,,,,,,,,,num_4,1.0994728000368923,num_4,0.5,1.1,0.6000000000000001,0.9,22.9233,34.38495,return,3.1133377000223845,,,,,,,,,,,,,,,,,710,22,male,left_right_width,2024-05-27_13h29.02.137,exp1,2023.1.0,59.993184750254386,
,,,,,,,,,,,,,,,,3,8.525,10,11.475,0,0,1.475,1.225,0.25,3.2,10,match,36.05,307,361,414,0,0,9,9,9,0,0,,,,,,,3,0,3,0,0,37,37,45,,,,,,,,,,,,num_3,1.3228615000844002,num_3,0.35,1.3,0.15000000000000002,1.55,5.73083,59.21853,return,2.6583837000653148,,,,,,,,,,,,,,,,,710,22,male,left_right_width,2024-05-27_13h29.02.137,exp1,2023.1.0,59.993184750254386,
,,,,,,,,,,,,,,,,4,9.1,9.7,10.3,10.9,0,0.6000000000000001,0.20000000000000004,0.4,2.2,10,match,36.05,328,350,371,393,0,9,9,9,9,0,,,,,,,3,0,3,0,0,38,38,16,,,,,,,,,,,,num_3,1.7283690999029204,num_3,0.4,0.7,0.6500000000000001,1.05,24.83358,40.11578,return,5.6680001999484375,,,,,,,,,,,,,,,,,710,22,male,left_right_width,2024-05-27_13h29.02.137,exp1,2023.1.0,59.993184750254386,
,,,,,,,,,,,,,,,,4,8.825,9.608333333333333,10.391666666666667,11.175,0,0.7833333333333333,0.5333333333333333,0.25,2.6,10,match,36.05,318,346,375,403,0,9,9,9,9,0,,,,,,,3,0,3,0,0,39,39,5,,,,,,,,,,,,num_5,1.4776537000434473,num_5,0.2,0.6,0.15000000000000002,0.65,5.73083,24.83358,return,1.8763572999741882,,,,,,,,,,,,,,,,,710,22,male,left_right_width,2024-05-27_13h29.02.137,exp1,2023.1.0,59.993184750254386,
,,,,,,,,,,,,,,,,4,8.95,9.65,10.35,11.05,0,0.7,0.1499999999999999,0.55,2.65,10,initial,36.05,323,348,373,398,0,9,9,9,9,0,,,,,,,3,0,3,0,0,40,40,23,,,,,,,,,,,,num_3,1.4394382999744266,num_3,0.35,1.3,0.9000000000000002,1.05,34.38495,40.11578,return,7.984632199979387,,,,,,,,,,,,,,,,,710,22,male,left_right_width,2024-05-27_13h29.02.137,exp1,2023.1.0,59.993184750254386,
,,,,,,,,,,,,,,,,5,8.275,9.1375,10,10.8625,11.725,0.8625,0.6125,0.25,3.7,10,match,36.05,298,329,361,392,423,9,9,9,9,9,,,,,,,3,0,3,0,0,41,41,22,,,,,,,,,,,,num_5,1.3878328000428155,num_5,0.5,1.2,0.15000000000000008,1.0,5.73083,38.2055,return,2.9785103000467643,,,,,,,,,,,,,,,,,710,22,male,left_right_width,2024-05-27_13h29.02.137,exp1,2023.1.0,59.993184750254386,
,,,,,,,,,,,,,,,,4,9.3,9.766666666666667,10.233333333333333,10.7,0,0.4666666666666667,0.21666666666666665,0.25,1.65,10,match,36.05,335,352,369,386,0,9,9,9,9,0,,,,,,,3,0,3,0,0,42,42,8,,,,,,,,,,,,num_3,1.2459492000052705,num_3,0.2,0.8,0.15000000000000002,0.95,5.73083,36.29523,return,3.3185093000065535,,,,,,,,,,,,,,,,,710,22,male,left_right_width,2024-05-27_13h29.02.137,exp1,2023.1.0,59.993184750254386,
,,,,,,,,,,,,,,,,4,9.3,9.766666666666667,10.233333333333333,10.7,0,0.4666666666666667,0.06666666666666665,0.4,1.8,10,match,36.05,335,352,369,386,0,9,9,9,9,0,,,,,,,3,0,3,0,0,43,43,10,,,,,,,,,,,,num_3,1.2563210000516847,num_3,0.5,1.3,0.7000000000000002,0.9,26.74385,34.38495,return,3.4411890999181196,,,,,,,,,,,,,,,,,710,22,male,left_right_width,2024-05-27_13h29.02.137,exp1,2023.1.0,59.993184750254386,
,,,,,,,,,,,,,,,,4,8.9,9.633333333333333,10.366666666666667,11.1,0,0.7333333333333333,0.18333333333333326,0.55,2.75,10,match,36.05,321,347,374,400,0,9,9,9,9,0,,,,,,,3,0,3,0,0,44,44,1,,,,,,,,,,,,num_3,0.9309060999657959,num_3,0.5,1,0.6000000000000001,0.7,22.9233,26.74385,return,3.3838246999075636,,,,,,,,,,,,,,,,,710,22,male,left_right_width,2024-05-27_13h29.02.137,exp1,2023.1.0,59.993184750254386,
,,,,,,,,,,,,,,,,4,8.35,9.45,10.55,11.65,0,1.1,0.8500000000000001,0.25,3.5500000000000003,10,initial,36.05,301,341,380,420,0,9,9,9,9,0,,,,,,,3,0,3,0,0,45,45,19,,,,,,,,,,,,num_5,1.2628161000320688,num_5,0.25,0.4,0.15000000000000002,1.0,5.73083,38.2055,return,3.354704099940136,,,,,,,,,,,,,,,,,710,22,male,left_right_width,2024-05-27_13h29.02.137,exp1,2023.1.0,59.993184750254386,
,,,,,,,,,,,,,,,,4,8.65,9.55,10.45,11.35,0,0.9,0.65,0.25,2.95,10,initial,36.05,312,344,377,409,0,9,9,9,9,0,,,,,,,3,0,3,0,0,46,46,30,,,,,,,,,,,,num_3,0.9561170999659225,num_3,0.45,0.5,0.15000000000000008,1.1,5.73083,42.02605,return,4.081481699948199,,,,,,,,,,,,,,,,,710,22,male,left_right_width,2024-05-27_13h29.02.137,exp1,2023.1.0,59.993184750254386,
,,,,,,,,,,,,,,,,3,9.3,10,10.7,0,0,0.7,0.29999999999999993,0.4,1.8,10,initial,36.05,335,361,386,0,0,9,9,9,0,0,,,,,,,3,0,3,0,0,47,47,9,,,,,,,,,,,,num_3,0.9803009999450296,num_3,0.3,0.5,0.3,1.25,11.46165,47.75688,return,6.789516400080174,,,,,,,,,,,,,,,,,710,22,male,left_right_width,2024-05-27_13h29.02.137,exp1,2023.1.0,59.993184750254386,
,,,,,,,,,,,,,,,,3,9.1,10,10.9,0,0,0.9,0.35,0.55,2.35,10,initial,36.05,328,361,393,0,0,9,9,9,0,0,,,,,,,3,0,3,0,0,48,48,11,,,,,,,,,,,,num_3,1.013746100012213,num_3,0.25,0.4,0.8500000000000002,1.2,32.47468,45.8466,return,6.0381825000513345,,,,,,,,,,,,,,,,,710,22,male,left_right_width,2024-05-27_13h29.02.137,exp1,2023.1.0,59.993184750254386,
,,,,,,,,,,,,,,,,5,8.2,9.1,10,10.9,11.8,0.9,0.65,0.25,3.85,10,initial,36.05,296,328,361,393,425,9,9,9,9,9,,,,,,,3,0,3,0,0,49,49,48,,,,,,,,,,,,num_3,1.2720072000520304,num_3,0.2,1.2,0.2,1.8,7.6411,68.76991,return,3.3303637999342754,,,,,,,,,,,,,,,,,710,22,male,left_right_width,2024-05-27_13h29.02.137,exp1,2023.1.0,59.993184750254386,
,,,,,,,,,,,,,,,,3,8.9,10,11.1,0,0,1.1,0.55,0.55,2.75,10,initial,36.05,321,361,400,0,0,9,9,9,0,0,,,,,,,3,0,3,0,0,50,50,0,,,,,,,,,,,,num_3,1.1257840999169275,num_3,0.4,0.8,0.7500000000000002,1.1,28.65413,42.02605,return,3.332042400026694,,,,,,,,,,,,,,,,,710,22,male,left_right_width,2024-05-27_13h29.02.137,exp1,2023.1.0,59.993184750254386,
,,,,,,,,,,,,,,,,3,9.1,10,10.9,0,0,0.9,0.65,0.25,2.05,10,initial,36.05,328,361,393,0,0,9,9,9,0,0,,,,,,,3,0,3,0,0,51,51,13,,,,,,,,,,,,num_2,0.975332000060007,num_2,0.2,1.4,0.15000000000000002,1.9,5.73083,72.59046,return,3.8600894999690354,,,,,,,,,,,,,,,,,710,22,male,left_right_width,2024-05-27_13h29.02.137,exp1,2023.1.0,59.993184750254386,
,,,,,,,,,,,,,,,,,,,,,,,,,,,,,,,,,,,,,,,,,,,,,3,0,3,0,,,,,,,,,,,,,,,,,,,,,,,,,,,,,2325.9189882999053,2325.9189882999053,2325.9189882999053,,,,,,,,,,,,710,22,male,left_right_width,2024-05-27_13h29.02.137,exp1,2023.1.0,59.993184750254386,
,,,,,,,,,,,,,,,,5,8.2,9.1,10,10.9,11.8,0.9,0.5,0.4,4,10,initial,36.05,296,328,361,393,425,9,9,9,9,9,,,,,,,4,0,4,0,0,0,0,50,,,,,,,,,,,,num_3,1.1184385999804363,num_3,0.45,1.3,0.35000000000000003,1.6,13.37193,61.12881,return,2.9938608000520617,,,,,,,,,,,,,,,,,710,22,male,left_right_width,2024-05-27_13h29.02.137,exp1,2023.1.0,59.993184750254386,
,,,,,,,,,,,,,,,,4,9.3,9.766666666666667,10.233333333333333,10.7,0,0.4666666666666667,0.21666666666666665,0.25,1.65,10,match,36.05,335,352,369,386,0,9,9,9,9,0,,,,,,,4,0,4,0,0,1,1,8,,,,,,,,,,,,num_4,1.1163322000065818,num_4,0.25,0.9,0.15000000000000002,0.9,5.73083,34.38495,return,10.062598699936643,,,,,,,,,,,,,,,,,710,22,male,left_right_width,2024-05-27_13h29.02.137,exp1,2023.1.0,59.993184750254386,
,,,,,,,,,,,,,,,,3,9.1,10,10.9,0,0,0.9,0.65,0.25,2.05,10,initial,36.05,328,361,393,0,0,9,9,9,0,0,,,,,,,4,0,4,0,0,2,2,13,,,,,,,,,,,,num_2,1.22055620001629,num_2,0.2,1.2,0.2,1.2,7.6411,45.8466,return,1.7745549000101164,,,,,,,,,,,,,,,,,710,22,male,left_right_width,2024-05-27_13h29.02.137,exp1,2023.1.0,59.993184750254386,
,,,,,,,,,,,,,,,,5,8.95,9.475,10,10.525,11.05,0.525,0.125,0.4,2.5,10,match,36.05,323,342,361,379,398,9,9,9,9,9,,,,,,,4,0,4,0,0,3,3,27,,,,,,,,,,,,num_4,1.112137799966149,num_4,0.4,0.8,0.55,0.8,21.01303,30.5644,return,2.3566919000586495,,,,,,,,,,,,,,,,,710,22,male,left_right_width,2024-05-27_13h29.02.137,exp1,2023.1.0,59.993184750254386,
,,,,,,,,,,,,,,,,5,8.65,9.325,10,10.675,11.35,0.675,0.275,0.4,3.1,10,match,36.05,312,336,361,385,409,9,9,9,9,9,,,,,,,4,0,4,0,0,4,4,33,,,,,,,,,,,,num_4,1.1389717001002282,num_4,0.3,0.6,0.39999999999999997,0.6,15.2822,22.9233,return,1.6323860000120476,,,,,,,,,,,,,,,,,710,22,male,left_right_width,2024-05-27_13h29.02.137,exp1,2023.1.0,59.993184750254386,
,,,,,,,,,,,,,,,,4,8.35,9.45,10.55,11.65,0,1.1,0.8500000000000001,0.25,3.5500000000000003,10,initial,36.05,301,341,380,420,0,9,9,9,9,0,,,,,,,4,0,4,0,0,5,5,19,,,,,,,,,,,,num_4,1.4825992999831215,num_4,0.2,1.0,0.2,1.0,7.6411,38.2055,return,1.2464092000154778,,,,,,,,,,,,,,,,,710,22,male,left_right_width,2024-05-27_13h29.02.137,exp1,2023.1.0,59.993184750254386,
,,,,,,,,,,,,,,,,5,8.65,9.325,10,10.675,11.35,0.675,0.42500000000000004,0.25,2.95,10,match,36.05,312,336,361,385,409,9,9,9,9,9,,,,,,,4,0,4,0,0,6,6,31,,,,,,,,,,,,num_4,1.1207207000115886,num_4,0.3,0.3,0.3,0.1,11.46165,3.82055,return,3.4818471999606118,,,,,,,,,,,,,,,,,710,22,male,left_right_width,2024-05-27_13h29.02.137,exp1,2023.1.0,59.993184750254386,
,,,,,,,,,,,,,,,,5,8.35,9.175,10,10.825,11.65,0.8250000000000001,0.275,0.55,3.85,10,match,36.05,301,331,361,390,420,9,9,9,9,9,,,,,,,4,0,4,0,0,7,7,18,,,,,,,,,,,,num_4,1.1401068000122905,num_4,0.3,0.6,0.39999999999999997,0.6,15.2822,22.9233,return,1.892344299936667,,,,,,,,,,,,,,,,,710,22,male,left_right_width,2024-05-27_13h29.02.137,exp1,2023.1.0,59.993184750254386,
,,,,,,,,,,,,,,,,5,8.35,9.175,10,10.825,11.65,0.825,0.575,0.25,3.55,10,match,36.05,301,331,361,390,420,9,9,9,9,9,,,,,,,4,0,4,0,0,8,8,20,,,,,,,,,,,,num_3,1.2015746000688523,num_3,0.3,0.9,0.15000000000000002,1.2,5.73083,45.8466,return,2.413562300032936,,,,,,,,,,,,,,,,,710,22,male,left_right_width,2024-05-27_13h29.02.137,exp1,2023.1.0,59.993184750254386,
,,,,,,,,,,,,,,,,5,7.8,8.9,10,11.1,12.2,1.1,0.55,0.55,4.95,10,initial,36.05,281,321,361,400,440,9,9,9,9,9,,,,,,,4,0,4,0,0,9,9,34,,,,,,,,,,,,num_4,1.1594566999701783,num_4,0.25,0.4,0.39999999999999997,0.7,15.2822,26.74385,return,6.003473300021142,,,,,,,,,,,,,,,,,710,22,male,left_right_width,2024-05-27_13h29.02.137,exp1,2023.1.0,59.993184750254386,
,,,,,,,,,,,,,,,,3,7.8,10,12.2,0,0,2.2,1.9500000000000002,0.25,4.65,10,match,36.05,281,361,440,0,0,9,9,9,0,0,,,,,,,4,0,4,0,0,10,10,37,,,,,,,,,,,,num_3,1.1130323999095708,num_3,0.45,1,0.15000000000000008,1.5,5.73083,57.30826,return,3.140988799976185,,,,,,,,,,,,,,,,,710,22,male,left_right_width,2024-05-27_13h29.02.137,exp1,2023.1.0,59.993184750254386,
,,,,,,,,,,,,,,,,3,7.8,10,12.2,0,0,2.2,1.65,0.55,4.95,10,match,36.05,281,361,440,0,0,9,9,9,0,0,,,,,,,4,0,4,0,0,11,11,35,,,,,,,,,,,,num_3,1.162463100044988,num_3,0.2,0.5,0.44999999999999996,1.25,17.19248,47.75688,return,6.81059639994055,,,,,,,,,,,,,,,,,710,22,male,left_right_width,2024-05-27_13h29.02.137,exp1,2023.1.0,59.993184750254386,
,,,,,,,,,,,,,,,,3,8.9,10,11.1,0,0,1.1,0.8500000000000001,0.25,2.45,10,initial,36.05,321,361,400,0,0,9,9,9,0,0,,,,,,,4,0,4,0,0,12,12,2,,,,,,,,,,,,num_3,2.3126128000440076,num_3,0.25,0.3,0.2,1.35,7.6411,51.57743,return,6.363129700068384,,,,,,,,,,,,,,,,,710,22,male,left_right_width,2024-05-27_13h29.02.137,exp1,2023.1.0,59.993184750254386,
,,,,,,,,,,,,,,,,3,8.2,10,11.8,0,0,1.7999999999999998,1.4,0.4,4,10,match,36.05,296,361,425,0,0,9,9,9,0,0,,,,,,,4,0,4,0,0,13,13,51,,,,,,,,,,,,num_3,1.150785299949348,num_3,0.45,1.1,0.30000000000000004,1.35,11.46165,51.57743,return,2.300654700025916,,,,,,,,,,,,,,,,,710,22,male,left_right_width,2024-05-27_13h29.02.137,exp1,2023.1.0,59.993184750254386,
,,,,,,,,,,,,,,,,3,8.6,10,11.4,0,0,1.4,0.85,0.55,3.35,10,match,36.05,310,361,411,0,0,9,9,9,0,0,,,,,,,4,0,4,0,0,14,14,41,,,,,,,,,,,,num_2,1.039706900017336,num_2,0.35,0.4,0.7500000000000001,2.2,28.65413,84.05211,return,4.6880379000213,,,,,,,,,,,,,,,,,710,22,male,left_right_width,2024-05-27_13h29.02.137,exp1,2023.1.0,59.993184750254386,
,,,,,,,,,,,,,,,,3,9.1,10,10.9,0,0,0.9,0.35,0.55,2.35,10,initial,36.05,328,361,393,0,0,9,9,9,0,0,,,,,,,4,0,4,0,0,15,15,11,,,,,,,,,,,,num_2,1.021856400067918,num_2,0.35,0.6,0.6,1.3,22.9233,49.66716,return,4.078797499998473,,,,,,,,,,,,,,,,,710,22,male,left_right_width,2024-05-27_13h29.02.137,exp1,2023.1.0,59.993184750254386,
,,,,,,,,,,,,,,,,4,8.65,9.55,10.45,11.35,0,0.9,0.5,0.4,3.1,10,initial,36.05,312,344,377,409,0,9,9,9,9,0,,,,,,,4,0,4,0,0,16,16,32,,,,,,,,,,,,num_2,1.3318770000478253,num_2,0.25,0.6,0.5499999999999999,1.4,21.01303,53.48771,return,3.1178620000137016,,,,,,,,,,,,,,,,,710,22,male,left_right_width,2024-05-27_13h29.02.137,exp1,2023.1.0,59.993184750254386,
,,,,,,,,,,,,,,,,5,8.2,9.1,10,10.9,11.8,0.9,0.35,0.55,4.15,10,initial,36.05,296,328,361,393,425,9,9,9,9,9,,,,,,,4,0,4,0,0,17,17,46,,,,,,,,,,,,num_3,1.161127100000158,num_3,0.45,1.2,0.7000000000000002,1.6,26.74385,61.12881,return,4.999723999993876,,,,,,,,,,,,,,,,,710,22,male,left_right_width,2024-05-27_13h29.02.137,exp1,2023.1.0,59.993184750254386,
,,,,,,,,,,,,,,,,4,8.95,9.65,10.35,11.05,0,0.7,0.29999999999999993,0.4,2.5,10,initial,36.05,323,348,373,398,0,9,9,9,9,0,,,,,,,4,0,4,0,0,18,18,26,,,,,,,,,,,,num_4,1.1906440000748262,num_4,0.55,1.0,0.55,0.9,21.01303,34.38495,return,3.71820480003953,,,,,,,,,,,,,,,,,710,22,male,left_right_width,2024-05-27_13h29.02.137,exp1,2023.1.0,59.993184750254386,
,,,,,,,,,,,,,,,,4,9.1,9.7,10.3,10.9,0,0.5999999999999999,0.3499999999999999,0.25,2.05,10,match,36.05,328,350,371,393,0,9,9,9,9,0,,,,,,,4,0,4,0,0,19,19,14,,,,,,,,,,,,num_4,1.1724908000323921,num_4,0.4,0.9,0.25000000000000006,0.9,9.55138,34.38495,return,1.8601071999873966,,,,,,,,,,,,,,,,,710,22,male,left_right_width,2024-05-27_13h29.02.137,exp1,2023.1.0,59.993184750254386,
,,,,,,,,,,,,,,,,5,8.2,9.1,10,10.9,11.8,0.9,0.65,0.25,3.85,10,initial,36.05,296,328,361,393,425,9,9,9,9,9,,,,,,,4,0,4,0,0,20,20,48,,,,,,,,,,,,num_5,1.2074512999970466,num_5,0.25,0.9,0.10000000000000002,0.9,3.82055,34.38495,return,1.7659077000571415,,,,,,,,,,,,,,,,,710,22,male,left_right_width,2024-05-27_13h29.02.137,exp1,2023.1.0,59.993184750254386,
,,,,,,,,,,,,,,,,4,9.1,9.7,10.3,10.9,0,0.6000000000000001,0.20000000000000004,0.4,2.2,10,match,36.05,328,350,371,393,0,9,9,9,9,0,,,,,,,4,0,4,0,0,21,21,16,,,,,,,,,,,,num_3,1.179098599939607,num_3,0.5,1.3,0.8500000000000003,1.1,32.47468,42.02605,return,4.309693300048821,,,,,,,,,,,,,,,,,710,22,male,left_right_width,2024-05-27_13h29.02.137,exp1,2023.1.0,59.993184750254386,
,,,,,,,,,,,,,,,,5,8.95,9.475,10,10.525,11.05,0.525,0.275,0.25,2.35,10,match,36.05,323,342,361,379,398,9,9,9,9,9,,,,,,,4,0,4,0,0,22,22,25,,,,,,,,,,,,num_5,1.4151673999149352,num_5,0.55,0.6,0.15000000000000008,0.8,5.73083,30.5644,return,3.526824999949895,,,,,,,,,,,,,,,,,710,22,male,left_right_width,2024-05-27_13h29.02.137,exp1,2023.1.0,59.993184750254386,
,,,,,,,,,,,,,,,,4,8.65,9.55,10.45,11.35,0,0.9,0.35,0.55,3.25,10,initial,36.05,312,344,377,409,0,9,9,9,9,0,,,,,,,4,0,4,0,0,23,23,28,,,,,,,,,,,,num_4,1.4250104000093415,num_4,0.5,0.9,0.7000000000000002,0.9,26.74385,34.38495,return,1.6383751999819651,,,,,,,,,,,,,,,,,710,22,male,left_right_width,2024-05-27_13h29.02.137,exp1,2023.1.0,59.993184750254386,
,,,,,,,,,,,,,,,,3,7.800000000000001,10,12.2,0,0,2.1999999999999997,1.7999999999999998,0.4,4.8,10,match,36.05,281,361,440,0,0,9,9,9,0,0,,,,,,,4,0,4,0,0,24,24,39,,,,,,,,,,,,num_3,1.1011294999625534,num_3,0.25,0.8,0.2,1.4,7.6411,53.48771,return,4.251205299980938,,,,,,,,,,,,,,,,,710,22,male,left_right_width,2024-05-27_13h29.02.137,exp1,2023.1.0,59.993184750254386,
,,,,,,,,,,,,,,,,5,7.8,8.9,10,11.1,12.2,1.1,0.7000000000000001,0.4,4.800000000000001,10,initial,36.05,281,321,361,400,440,9,9,9,9,9,,,,,,,4,0,4,0,0,25,25,38,,,,,,,,,,,,num_5,1.1905455000232905,num_5,0.55,0.8,0.20000000000000007,1.15,7.6411,43.93633,return,7.362909800023772,,,,,,,,,,,,,,,,,710,22,male,left_right_width,2024-05-27_13h29.02.137,exp1,2023.1.0,59.993184750254386,
,,,,,,,,,,,,,,,,4,9.1,9.7,10.3,10.9,0,0.6,0.04999999999999997,0.55,2.35,10,match,36.05,328,350,371,393,0,9,9,9,9,0,,,,,,,4,0,4,0,0,26,26,12,,,,,,,,,,,,num_3,1.1199716000119224,num_3,0.5,1,1.1000000000000005,1.2,42.02605,45.8466,return,8.41761680005584,,,,,,,,,,,,,,,,,710,22,male,left_right_width,2024-05-27_13h29.02.137,exp1,2023.1.0,59.993184750254386,
,,,,,,,,,,,,,,,,3,8.2,10,11.8,0,0,1.8,1.55,0.25,3.85,10,match,36.05,296,361,425,0,0,9,9,9,0,0,,,,,,,4,0,4,0,0,27,27,49,,,,,,,,,,,,num_3,1.02891140000429,num_3,0.25,0.7,0.15000000000000002,1.4,5.73083,53.48771,return,4.274388799909502,,,,,,,,,,,,,,,,,710,22,male,left_right_width,2024-05-27_13h29.02.137,exp1,2023.1.0,59.993184750254386,
,,,,,,,,,,,,,,,,3,8.525,10,11.475,0,0,1.475,1.225,0.25,3.2,10,match,36.05,307,361,414,0,0,9,9,9,0,0,,,,,,,4,0,4,0,0,28,28,45,,,,,,,,,,,,num_3,1.1362381000071764,num_3,0.25,1.3,0.15000000000000002,1.6,5.73083,61.12881,return,2.241364000015892,,,,,,,,,,,,,,,,,710,22,male,left_right_width,2024-05-27_13h29.02.137,exp1,2023.1.0,59.993184750254386,
,,,,,,,,,,,,,,,,5,8.6,9.3,10,10.7,11.4,0.7,0.1499999999999999,0.55,3.3499999999999996,10,initial,36.05,310,335,361,386,411,9,9,9,9,9,,,,,,,4,0,4,0,0,29,29,40,,,,,,,,,,,,num_3,1.2206897999858484,num_3,0.4,0.7,0.9500000000000004,1.15,36.29523,43.93633,return,5.3761243999470025,,,,,,,,,,,,,,,,,710,22,male,left_right_width,2024-05-27_13h29.02.137,exp1,2023.1.0,59.993184750254386,
,,,,,,,,,,,,,,,,4,8.9,9.633333333333333,10.366666666666667,11.1,0,0.7333333333333333,0.18333333333333326,0.55,2.75,10,match,36.05,321,347,374,400,0,9,9,9,9,0,,,,,,,4,0,4,0,0,30,30,1,,,,,,,,,,,,num_3,1.263626000029035,num_3,0.25,0.9,1.2500000000000004,1.45,47.75688,55.39798,return,5.257525200024247,,,,,,,,,,,,,,,,,710,22,male,left_right_width,2024-05-27_13h29.02.137,exp1,2023.1.0,59.993184750254386,
,,,,,,,,,,,,,,,,4,9.3,9.766666666666667,10.233333333333333,10.7,0,0.4666666666666667,0.06666666666666665,0.4,1.8,10,match,36.05,335,352,369,386,0,9,9,9,9,0,,,,,,,4,0,4,0,0,31,31,10,,,,,,,,,,,,num_3,1.329065699945204,num_3,0.5,1.3,0.55,1.0,21.01303,38.2055,return,8.249960199929774,,,,,,,,,,,,,,,,,710,22,male,left_right_width,2024-05-27_13h29.02.137,exp1,2023.1.0,59.993184750254386,
,,,,,,,,,,,,,,,,4,8.825,9.608333333333333,10.391666666666667,11.175,0,0.7833333333333333,0.5333333333333333,0.25,2.6,10,match,36.05,318,346,375,403,0,9,9,9,9,0,,,,,,,4,0,4,0,0,32,32,5,,,,,,,,,,,,num_4,1.3102780000772327,num_4,0.55,1.1,0.15000000000000008,1.1,5.73083,42.02605,return,2.6274326000129804,,,,,,,,,,,,,,,,,710,22,male,left_right_width,2024-05-27_13h29.02.137,exp1,2023.1.0,59.993184750254386,
,,,,,,,,,,,,,,,,5,8.275,9.1375,10,10.8625,11.725,0.8625,0.6125,0.25,3.7,10,match,36.05,298,329,361,392,423,9,9,9,9,9,,,,,,,4,0,4,0,0,33,33,22,,,,,,,,,,,,num_5,1.040515000000596,num_5,0.5,1.3,0.20000000000000007,1.3,7.6411,49.66716,return,1.8890512000070885,,,,,,,,,,,,,,,,,710,22,male,left_right_width,2024-05-27_13h29.02.137,exp1,2023.1.0,59.993184750254386,
,,,,,,,,,,,,,,,,3,8.9,10,11.1,0,0,1.1,0.55,0.55,2.75,10,initial,36.05,321,361,400,0,0,9,9,9,0,0,,,,,,,4,0,4,0,0,34,34,0,,,,,,,,,,,,num_3,1.073040800052695,num_3,0.3,0.9,0.49999999999999994,0.9,19.10275,34.38495,return,2.0690920000197366,,,,,,,,,,,,,,,,,710,22,male,left_right_width,2024-05-27_13h29.02.137,exp1,2023.1.0,59.993184750254386,
,,,,,,,,,,,,,,,,3,9.3,10,10.7,0,0,0.7,0.44999999999999996,0.25,1.65,10,initial,36.05,335,361,386,0,0,9,9,9,0,0,,,,,,,4,0,4,0,0,35,35,7,,,,,,,,,,,,num_4,1.2547100000083447,num_4,0.35,1.2,0.2,0.9,7.6411,34.38495,return,2.0823008000152186,,,,,,,,,,,,,,,,,710,22,male,left_right_width,2024-05-27_13h29.02.137,exp1,2023.1.0,59.993184750254386,
,,,,,,,,,,,,,,,,4,8.65,9.55,10.45,11.35,0,0.9,0.65,0.25,2.95,10,initial,36.05,312,344,377,409,0,9,9,9,9,0,,,,,,,4,0,4,0,0,36,36,30,,,,,,,,,,,,num_4,1.3081581000005826,num_4,0.5,1.0,0.15000000000000008,1.1,5.73083,42.02605,return,3.286554199992679,,,,,,,,,,,,,,,,,710,22,male,left_right_width,2024-05-27_13h29.02.137,exp1,2023.1.0,59.993184750254386,
,,,,,,,,,,,,,,,,5,8.65,9.325,10,10.675,11.35,0.675,0.125,0.55,3.25,10,match,36.05,312,336,361,385,409,9,9,9,9,9,,,,,,,4,0,4,0,0,37,37,29,,,,,,,,,,,,num_4,1.0312593000708148,num_4,0.3,0.6,0.65,0.8,24.83358,30.5644,return,2.733064700034447,,,,,,,,,,,,,,,,,710,22,male,left_right_width,2024-05-27_13h29.02.137,exp1,2023.1.0,59.993184750254386,
,,,,,,,,,,,,,,,,4,8.35,9.45,10.55,11.65,0,1.1,0.7000000000000001,0.4,3.7,10,initial,36.05,301,341,380,420,0,9,9,9,9,0,,,,,,,4,0,4,0,0,38,38,21,,,,,,,,,,,,num_5,1.225444499985315,num_5,0.5,1.3,0.6000000000000001,0.95,22.9233,36.29523,return,2.8510681999614462,,,,,,,,,,,,,,,,,710,22,male,left_right_width,2024-05-27_13h29.02.137,exp1,2023.1.0,59.993184750254386,
,,,,,,,,,,,,,,,,5,8.6,9.3,10,10.7,11.4,0.7,0.44999999999999996,0.25,3.05,10,initial,36.05,310,335,361,386,411,9,9,9,9,9,,,,,,,4,0,4,0,0,39,39,42,,,,,,,,,,,,num_5,1.0619831000221893,num_5,0.45,1.2,0.25000000000000006,0.75,9.55138,28.65413,return,5.350913000060245,,,,,,,,,,,,,,,,,710,22,male,left_right_width,2024-05-27_13h29.02.137,exp1,2023.1.0,59.993184750254386,
,,,,,,,,,,,,,,,,5,8.6,9.3,10,10.7,11.4,0.7,0.29999999999999993,0.4,3.1999999999999997,10,initial,36.05,310,335,361,386,411,9,9,9,9,9,,,,,,,4,0,4,0,0,40,40,44,,,,,,,,,,,,num_6,1.1432975999778137,num_6,0.2,0.5,0.2,0.7,7.6411,26.74385,return,2.32809389999602,,,,,,,,,,,,,,,,,710,22,male,left_right_width,2024-05-27_13h29.02.137,exp1,2023.1.0,59.993184750254386,
,,,,,,,,,,,,,,,,3,8.6,10,11.4,0,0,1.4,1.15,0.25,3.05,10,match,36.05,310,361,411,0,0,9,9,9,0,0,,,,,,,4,0,4,0,0,41,41,43,,,,,,,,,,,,num_3,1.0212057000026107,num_3,0.3,0.8,0.2,1.4,7.6411,53.48771,return,3.8901604999555275,,,,,,,,,,,,,,,,,710,22,male,left_right_width,2024-05-27_13h29.02.137,exp1,2023.1.0,59.993184750254386,
,,,,,,,,,,,,,,,,3,9.3,10,10.7,0,0,0.7,0.29999999999999993,0.4,1.8,10,initial,36.05,335,361,386,0,0,9,9,9,0,0,,,,,,,4,0,4,0,0,42,42,9,,,,,,,,,,,,num_3,1.0159628000110388,num_3,0.2,1.3,0.25,1.3,9.55138,49.66716,return,1.837859700084664,,,,,,,,,,,,,,,,,710,22,male,left_right_width,2024-05-27_13h29.02.137,exp1,2023.1.0,59.993184750254386,
,,,,,,,,,,,,,,,,3,9.1,10,10.9,0,0,0.9,0.5,0.4,2.2,10,initial,36.05,328,361,393,0,0,9,9,9,0,0,,,,,,,4,0,4,0,0,43,43,15,,,,,,,,,,,,num_2,0.9139150000410154,num_2,0.2,1.2,0.49999999999999994,1.5,19.10275,57.30826,return,5.020546700106934,,,,,,,,,,,,,,,,,710,22,male,left_right_width,2024-05-27_13h29.02.137,exp1,2023.1.0,59.993184750254386,
,,,,,,,,,,,,,,,,4,8.35,9.45,10.55,11.65,0,1.1,0.55,0.55,3.8500000000000005,10,initial,36.05,301,341,380,420,0,9,9,9,9,0,,,,,,,4,0,4,0,0,44,44,17,,,,,,,,,,,,num_3,0.9345597999636084,num_3,0.45,1,0.4,1.4,15.2822,53.48771,return,3.7757966000353917,,,,,,,,,,,,,,,,,710,22,male,left_right_width,2024-05-27_13h29.02.137,exp1,2023.1.0,59.993184750254386,
,,,,,,,,,,,,,,,,3,9.3,10,10.7,0,0,0.7,0.1499999999999999,0.55,1.95,10,initial,36.05,335,361,386,0,0,9,9,9,0,0,,,,,,,4,0,4,0,0,45,45,6,,,,,,,,,,,,num_2,0.8929187000030652,num_2,0.5,0.6,0.7500000000000002,0.9,28.65413,34.38495,return,3.187727600103244,,,,,,,,,,,,,,,,,710,22,male,left_right_width,2024-05-27_13h29.02.137,exp1,2023.1.0,59.993184750254386,
,,,,,,,,,,,,,,,,4,8.95,9.65,10.35,11.05,0,0.7,0.1499999999999999,0.55,2.65,10,initial,36.05,323,348,373,398,0,9,9,9,9,0,,,,,,,4,0,4,0,0,46,46,23,,,,,,,,,,,,num_3,0.9394844999769703,num_3,0.4,0.9,0.7500000000000002,0.9,28.65413,34.38495,return,2.302777100005187,,,,,,,,,,,,,,,,,710,22,male,left_right_width,2024-05-27_13h29.02.137,exp1,2023.1.0,59.993184750254386,
,,,,,,,,,,,,,,,,3,8.2,10,11.8,0,0,1.8,1.25,0.55,4.15,10,match,36.05,296,361,425,0,0,9,9,9,0,0,,,,,,,4,0,4,0,0,47,47,47,,,,,,,,,,,,num_2,2.2967740999301895,num_2,0.25,1.0,1.0000000000000002,1.5,38.2055,57.30826,return,4.61574889998883,,,,,,,,,,,,,,,,,710,22,male,left_right_width,2024-05-27_13h29.02.137,exp1,2023.1.0,59.993184750254386,
,,,,,,,,,,,,,,,,4,8.95,9.65,10.35,11.05,0,0.7,0.44999999999999996,0.25,2.3499999999999996,10,initial,36.05,323,348,373,398,0,9,9,9,9,0,,,,,,,4,0,4,0,0,48,48,24,,,,,,,,,,,,num_4,1.5684241999406368,num_4,0.4,0.5,1.3000000000000007,0.3,49.66716,11.46165,return,9.665289500029758,,,,,,,,,,,,,,,,,710,22,male,left_right_width,2024-05-27_13h29.02.137,exp1,2023.1.0,59.993184750254386,
,,,,,,,,,,,,,,,,4,8.9,9.633333333333333,10.366666666666667,11.1,0,0.7333333333333334,0.4833333333333334,0.25,2.45,10,match,36.05,321,347,374,400,0,9,9,9,9,0,,,,,,,4,0,4,0,0,49,49,3,,,,,,,,,,,,num_3,1.1675759999779984,num_3,0.5,0.9,0.10000000000000007,1.3,3.82055,49.66716,return,2.889340699999593,,,,,,,,,,,,,,,,,710,22,male,left_right_width,2024-05-27_13h29.02.137,exp1,2023.1.0,59.993184750254386,
,,,,,,,,,,,,,,,,3,8.9,10,11.1,0,0,1.1,0.7000000000000001,0.4,2.6000000000000005,10,initial,36.05,321,361,400,0,0,9,9,9,0,0,,,,,,,4,0,4,0,0,50,50,4,,,,,,,,,,,,num_2,0.8444361999863759,num_2,0.2,1.0,0.39999999999999997,2.0,15.2822,76.41101,return,3.9876490000169724,,,,,,,,,,,,,,,,,710,22,male,left_right_width,2024-05-27_13h29.02.137,exp1,2023.1.0,59.993184750254386,
,,,,,,,,,,,,,,,,5,7.8,8.9,10,11.1,12.2,1.1,0.8500000000000001,0.25,4.65,10,initial,36.05,281,321,361,400,440,9,9,9,9,9,,,,,,,4,0,4,0,0,51,51,36,,,,,,,,,,,,num_4,0.9781386000104249,num_4,0.2,0.9,0.10000000000000002,1.3,3.82055,49.66716,return,3.316266299923882,,,,,,,,,,,,,,,,,710,22,male,left_right_width,2024-05-27_13h29.02.137,exp1,2023.1.0,59.993184750254386,
,,,,,,,,,,,,,,,,,,,,,,,,,,,,,,,,,,,,,,,,,,,,,4,0,4,0,,,,,,,,,,,,,,,,,,,,,,,,,,,,,2815.335755600012,2815.335755600012,2815.335755600012,,,,,,,,,,,,710,22,male,left_right_width,2024-05-27_13h29.02.137,exp1,2023.1.0,59.993184750254386,
,,,,,,,,,,,,,,,,4,8.9,9.633333333333333,10.366666666666667,11.1,0,0.7333333333333334,0.4833333333333334,0.25,2.45,10,match,36.05,321,347,374,400,0,9,9,9,9,0,,,,,,,5,0,5,0,0,0,0,3,,,,,,,,,,,,num_3,0.9849858999950811,num_3,0.25,0.8,0.10000000000000002,1.3,3.82055,49.66716,return,3.2761317000258714,,,,,,,,,,,,,,,,,710,22,male,left_right_width,2024-05-27_13h29.02.137,exp1,2023.1.0,59.993184750254386,
,,,,,,,,,,,,,,,,3,8.6,10,11.4,0,0,1.4,1.15,0.25,3.05,10,match,36.05,310,361,411,0,0,9,9,9,0,0,,,,,,,5,0,5,0,0,1,1,43,,,,,,,,,,,,num_3,1.109116300009191,num_3,0.45,0.5,0.20000000000000007,1.2,7.6411,45.8466,return,3.331954599940218,,,,,,,,,,,,,,,,,710,22,male,left_right_width,2024-05-27_13h29.02.137,exp1,2023.1.0,59.993184750254386,
,,,,,,,,,,,,,,,,4,8.825,9.608333333333333,10.391666666666667,11.175,0,0.7833333333333333,0.5333333333333333,0.25,2.6,10,match,36.05,318,346,375,403,0,9,9,9,9,0,,,,,,,5,0,5,0,0,2,2,5,,,,,,,,,,,,num_4,1.732716599944979,num_4,0.3,0.6,0.15000000000000002,1.0,5.73083,38.2055,return,1.6073890998959541,,,,,,,,,,,,,,,,,710,22,male,left_right_width,2024-05-27_13h29.02.137,exp1,2023.1.0,59.993184750254386,
,,,,,,,,,,,,,,,,3,8.6,10,11.4,0,0,1.4,0.85,0.55,3.35,10,match,36.05,310,361,411,0,0,9,9,9,0,0,,,,,,,5,0,5,0,0,3,3,41,,,,,,,,,,,,num_3,0.7954655000939965,num_3,0.5,0.8,0.9000000000000004,1.25,34.38495,47.75688,return,2.74659039999824,,,,,,,,,,,,,,,,,710,22,male,left_right_width,2024-05-27_13h29.02.137,exp1,2023.1.0,59.993184750254386,
