amount_p,posx1_p,posx2_p,posx3_p,posx4_p,posx5_p,center_to_center_p,edge_to_edge_p,w_p,stim_lengt_p,eccentricity_p,line1_p,line2_p,line3_p,line4_p,line5_p,amount,posx1,posx2,posx3,posx4,posx5,center_to_center,edge_to_edge,w,stim_length,eccentricity,trial_type,deg_to_pix_index,posx1_in_pix,posx2_in_pix,posx3_in_pix,posx4_in_pix,posx5_in_pix,line1,line2,line3,line4,line5,posx,setsize_cobdi,trials.thisRepN,trials.thisTrialN,trials.thisN,trials.thisIndex,blocks.thisRepN,blocks.thisTrialN,blocks.thisN,blocks.thisIndex,loop.thisRepN,loop.thisTrialN,loop.thisN,loop.thisIndex,first.thisRepN,first.thisTrialN,first.thisN,first.thisIndex,second.thisRepN,second.thisTrialN,second.thisN,second.thisIndex,key_resp_3.started,key_resp_3.keys,key_resp_3.rt,key_resp.keys,key_resp.rt,response,starting_width_deg,starting_space_deg,response_width_degree,response_spacing_degree,response_width_pixel,response_spacing_pixel,next_5.keys,next_5.rt,key_resp_4.keys,key_resp_4.rt,text_3.started,text_4.started,key_resp_2.started,text_2.started,key_resp_2.keys,key_resp_2.rt,adjusting.started,next.keys,next.rt,text_control2.started,key_resp.started,key_resp.corr,text_bye.started,text_bye.stopped,participant,age,gender,resp_group,date,expName,psychopyVersion,frameRate,
,,,,,,,,,,,,,,,,,,,,,,,,,,,,,,,,,,,,,,,,,,,,,,,,,,,,,,,,,,,,,32.41509769996628,c,122.22854030004237,,,,,,,,,,,,,,,,,,,,,,,,,,,,711,23,female,up_down_width,2024-05-29_14h39.08.677,exp1,2023.1.0,60.00085200461607,
3,9.5,10,10.5,0,0,0.5,0.4,0.1,1.1,10,9,9,9,0,0,,,,,,,,,,,,,,,,,,,,,,,,,,0,0,0,0,,,,,,,,,,,,,,,,,,,,num_3,5.2494030999951065,num_3,0.2,1.1,0.10000000000000002,1.1,3.82055,42.02605,return,12.951577299972996,,,,,,,,,,,,,,,,,711,23,female,up_down_width,2024-05-29_14h39.08.677,exp1,2023.1.0,60.00085200461607,
5,9,9.5,10,10.5,11,0.5,0.09999999999999998,0.4,2.4,10,9,9,9,9,9,,,,,,,,,,,,,,,,,,,,,,,,,,0,1,1,8,,,,,,,,,,,,,,,,,,,,num_4,2.906343700014986,num_4,0.25,1.3,0.39999999999999997,0.9,15.2822,34.38495,return,7.47663679998368,,,,,,,,,,,,,,,,,711,23,female,up_down_width,2024-05-29_14h39.08.677,exp1,2023.1.0,60.00085200461607,
4,8.65,9.55,10.45,11.35,0,0.9,0.5,0.4,3.1,10,9,9,9,9,0,,,,,,,,,,,,,,,,,,,,,,,,,,0,2,2,5,,,,,,,,,,,,,,,,,,,,num_4,1.7929922000039369,num_4,0.25,0.5,0.35,0.6,13.37193,22.9233,return,4.632166799972765,,,,,,,,,,,,,,,,,711,23,female,up_down_width,2024-05-29_14h39.08.677,exp1,2023.1.0,60.00085200461607,
4,9.5,9.833333333333334,10.166666666666666,10.5,0,0.33333333333333337,0.23333333333333336,0.1,1.1,10,9,9,9,9,0,,,,,,,,,,,,,,,,,,,,,,,,,,0,3,3,3,,,,,,,,,,,,,,,,,,,,num_4,1.89950229995884,num_4,0.3,0.5,0.05000000000000002,0.5,1.91028,19.10275,return,6.4786067000823095,,,,,,,,,,,,,,,,,711,23,female,up_down_width,2024-05-29_14h39.08.677,exp1,2023.1.0,60.00085200461607,
3,9,10,11,0,0,1,0.9,0.1,2.1,10,9,9,9,0,0,,,,,,,,,,,,,,,,,,,,,,,,,,0,4,4,1,,,,,,,,,,,,,,,,,,,,num_3,1.6034630000358447,num_3,0.25,1.1,0.05000000000000002,1.1,1.91028,42.02605,return,7.601782000041567,,,,,,,,,,,,,,,,,711,23,female,up_down_width,2024-05-29_14h39.08.677,exp1,2023.1.0,60.00085200461607,
5,8.6,9.3,10,10.7,11.4,0.7,0.29999999999999993,0.4,3.1999999999999997,10,9,9,9,9,9,,,,,,,,,,,,,,,,,,,,,,,,,,0,5,5,7,,,,,,,,,,,,,,,,,,,,num_4,2.212068499997258,num_4,0.55,0.6,0.30000000000000004,0.8,11.46165,30.5644,return,6.231242200010456,,,,,,,,,,,,,,,,,711,23,female,up_down_width,2024-05-29_14h39.08.677,exp1,2023.1.0,60.00085200461607,
3,8.2,10,11.8,0,0,1.7999999999999998,1.4,0.4,4,10,9,9,9,0,0,,,,,,,,,,,,,,,,,,,,,,,,,,0,6,6,2,,,,,,,,,,,,,,,,,,,,num_3,1.4592004000442103,num_3,0.35,1.2,0.35,1.55,13.37193,59.21853,return,4.198183299973607,,,,,,,,,,,,,,,,,711,23,female,up_down_width,2024-05-29_14h39.08.677,exp1,2023.1.0,60.00085200461607,
4,9.25,9.75,10.25,10.75,0,0.5,0.25,0.25,1.75,10,9,9,9,9,0,,,,,,,,,,,,,,,,,,,,,,,,,,0,7,7,4,,,,,,,,,,,,,,,,,,,,num_4,2.1160704999929294,num_4,0.3,0.4,0.3,0.7,11.46165,26.74385,return,7.464379700017162,,,,,,,,,,,,,,,,,711,23,female,up_down_width,2024-05-29_14h39.08.677,exp1,2023.1.0,60.00085200461607,
5,9.25,9.625,10,10.375,10.75,0.375,0.125,0.25,1.75,10,9,9,9,9,9,,,,,,,,,,,,,,,,,,,,,,,,,,0,8,8,6,,,,,,,,,,,,,,,,,,,,num_5,1.8178284000605345,num_5,0.45,0.8,0.25000000000000006,0.65,9.55138,24.83358,return,4.415928500005975,,,,,,,,,,,,,,,,,711,23,female,up_down_width,2024-05-29_14h39.08.677,exp1,2023.1.0,60.00085200461607,
,,,,,,,,,,,,,,,,,,,,,,,,,,,,,,,,,,,,,,,,,,,,,,,,,,,,,,,,,,,,,,,,,,,,,,,,,,,c,83.63093029998709,,,,,,,,,,,,,,,711,23,female,up_down_width,2024-05-29_14h39.08.677,exp1,2023.1.0,60.00085200461607,
,,,,,,,,,,,,,,,,5,8.2,9.1,10,10.9,11.8,0.9,0.5,0.4,4,10,initial,36.05,296,328,361,393,425,9,9,9,9,9,,,,,,,0,0,0,0,0,0,0,50,,,,,,,,,,,,num_4,2.3573057999601588,num_4,0.35,0.4,0.35,0.6,13.37193,22.9233,return,4.541910899919458,,,,,,,,,,,,,,,,,711,23,female,up_down_width,2024-05-29_14h39.08.677,exp1,2023.1.0,60.00085200461607,
,,,,,,,,,,,,,,,,5,7.8,8.9,10,11.1,12.2,1.1,0.8500000000000001,0.25,4.65,10,initial,36.05,281,321,361,400,440,9,9,9,9,9,,,,,,,0,0,0,0,0,1,1,36,,,,,,,,,,,,num_4,1.320694199996069,num_4,0.25,1.3,0.3,1.1,11.46165,42.02605,return,3.7436763000441715,,,,,,,,,,,,,,,,,711,23,female,up_down_width,2024-05-29_14h39.08.677,exp1,2023.1.0,60.00085200461607,
,,,,,,,,,,,,,,,,5,8.6,9.3,10,10.7,11.4,0.7,0.29999999999999993,0.4,3.1999999999999997,10,initial,36.05,310,335,361,386,411,9,9,9,9,9,,,,,,,0,0,0,0,0,2,2,44,,,,,,,,,,,,num_5,1.5187429999932647,num_5,0.3,0.8,0.35,0.7,13.37193,26.74385,return,3.5518508000532165,,,,,,,,,,,,,,,,,711,23,female,up_down_width,2024-05-29_14h39.08.677,exp1,2023.1.0,60.00085200461607,
,,,,,,,,,,,,,,,,4,9.1,9.7,10.3,10.9,0,0.6000000000000001,0.20000000000000004,0.4,2.2,10,match,36.05,328,350,371,393,0,9,9,9,9,0,,,,,,,0,0,0,0,0,3,3,16,,,,,,,,,,,,num_5,3.2363237000536174,num_5,0.55,1.2,0.35000000000000003,0.95,13.37193,36.29523,return,5.358360499958508,,,,,,,,,,,,,,,,,711,23,female,up_down_width,2024-05-29_14h39.08.677,exp1,2023.1.0,60.00085200461607,
,,,,,,,,,,,,,,,,5,7.8,8.9,10,11.1,12.2,1.1,0.7000000000000001,0.4,4.800000000000001,10,initial,36.05,281,321,361,400,440,9,9,9,9,9,,,,,,,0,0,0,0,0,4,4,38,,,,,,,,,,,,num_5,1.276173199992627,num_5,0.25,0.7,0.35,0.75,13.37193,28.65413,return,2.695304600056261,,,,,,,,,,,,,,,,,711,23,female,up_down_width,2024-05-29_14h39.08.677,exp1,2023.1.0,60.00085200461607,
,,,,,,,,,,,,,,,,3,9.1,10,10.9,0,0,0.9,0.35,0.55,2.35,10,initial,36.05,328,361,393,0,0,9,9,9,0,0,,,,,,,0,0,0,0,0,5,5,11,,,,,,,,,,,,num_4,2.0615669999970123,num_4,0.25,0.7,0.39999999999999997,0.7,15.2822,26.74385,return,2.7301218999782577,,,,,,,,,,,,,,,,,711,23,female,up_down_width,2024-05-29_14h39.08.677,exp1,2023.1.0,60.00085200461607,
,,,,,,,,,,,,,,,,3,7.8,10,12.2,0,0,2.2,1.65,0.55,4.95,10,match,36.05,281,361,440,0,0,9,9,9,0,0,,,,,,,0,0,0,0,0,6,6,35,,,,,,,,,,,,num_3,1.6802617000648752,num_3,0.4,1.1,0.5,1.55,19.10275,59.21853,return,5.175596300046891,,,,,,,,,,,,,,,,,711,23,female,up_down_width,2024-05-29_14h39.08.677,exp1,2023.1.0,60.00085200461607,
,,,,,,,,,,,,,,,,3,8.2,10,11.8,0,0,1.8,1.55,0.25,3.85,10,match,36.05,296,361,425,0,0,9,9,9,0,0,,,,,,,0,0,0,0,0,7,7,49,,,,,,,,,,,,num_3,1.2360789000522345,num_3,0.4,0.9,0.20000000000000007,1.15,7.6411,43.93633,return,4.577242800034583,,,,,,,,,,,,,,,,,711,23,female,up_down_width,2024-05-29_14h39.08.677,exp1,2023.1.0,60.00085200461607,
,,,,,,,,,,,,,,,,4,8.825,9.608333333333333,10.391666666666667,11.175,0,0.7833333333333333,0.5333333333333333,0.25,2.6,10,match,36.05,318,346,375,403,0,9,9,9,9,0,,,,,,,0,0,0,0,0,8,8,5,,,,,,,,,,,,num_4,1.0030351999448612,num_4,0.35,1.1,0.25,1.1,9.55138,42.02605,return,5.0854778999928385,,,,,,,,,,,,,,,,,711,23,female,up_down_width,2024-05-29_14h39.08.677,exp1,2023.1.0,60.00085200461607,
,,,,,,,,,,,,,,,,3,9.3,10,10.7,0,0,0.7,0.29999999999999993,0.4,1.8,10,initial,36.05,335,361,386,0,0,9,9,9,0,0,,,,,,,0,0,0,0,0,9,9,9,,,,,,,,,,,,num_3,1.193521699984558,num_3,0.2,0.9,0.3,0.9,11.46165,34.38495,return,6.515244200010784,,,,,,,,,,,,,,,,,711,23,female,up_down_width,2024-05-29_14h39.08.677,exp1,2023.1.0,60.00085200461607,
,,,,,,,,,,,,,,,,3,9.3,10,10.7,0,0,0.7,0.44999999999999996,0.25,1.65,10,initial,36.05,335,361,386,0,0,9,9,9,0,0,,,,,,,0,0,0,0,0,10,10,7,,,,,,,,,,,,num_3,1.8340147000271827,num_3,0.55,0.9,0.30000000000000004,0.9,11.46165,34.38495,return,5.94989019993227,,,,,,,,,,,,,,,,,711,23,female,up_down_width,2024-05-29_14h39.08.677,exp1,2023.1.0,60.00085200461607,
,,,,,,,,,,,,,,,,5,8.275,9.1375,10,10.8625,11.725,0.8625,0.6125,0.25,3.7,10,match,36.05,298,329,361,392,423,9,9,9,9,9,,,,,,,0,0,0,0,0,11,11,22,,,,,,,,,,,,num_4,2.111580300028436,num_4,0.25,0.7,0.3,0.9,11.46165,34.38495,return,8.27783829998225,,,,,,,,,,,,,,,,,711,23,female,up_down_width,2024-05-29_14h39.08.677,exp1,2023.1.0,60.00085200461607,
,,,,,,,,,,,,,,,,4,8.9,9.633333333333333,10.366666666666667,11.1,0,0.7333333333333334,0.4833333333333334,0.25,2.45,10,match,36.05,321,347,374,400,0,9,9,9,9,0,,,,,,,0,0,0,0,0,12,12,3,,,,,,,,,,,,num_4,1.5740518999518827,num_4,0.45,0.8,0.20000000000000007,0.8,7.6411,30.5644,return,4.245290899998508,,,,,,,,,,,,,,,,,711,23,female,up_down_width,2024-05-29_14h39.08.677,exp1,2023.1.0,60.00085200461607,
,,,,,,,,,,,,,,,,4,8.95,9.65,10.35,11.05,0,0.7,0.1499999999999999,0.55,2.65,10,initial,36.05,323,348,373,398,0,9,9,9,9,0,,,,,,,0,0,0,0,0,13,13,23,,,,,,,,,,,,num_4,1.4528882000595331,num_4,0.4,0.6,0.45,0.8,17.19248,30.5644,return,3.506289300043136,,,,,,,,,,,,,,,,,711,23,female,up_down_width,2024-05-29_14h39.08.677,exp1,2023.1.0,60.00085200461607,
,,,,,,,,,,,,,,,,5,8.65,9.325,10,10.675,11.35,0.675,0.42500000000000004,0.25,2.95,10,match,36.05,312,336,361,385,409,9,9,9,9,9,,,,,,,0,0,0,0,0,14,14,31,,,,,,,,,,,,num_4,1.2945963999954984,num_4,0.45,0.7,0.20000000000000007,0.7,7.6411,26.74385,return,3.985960000078194,,,,,,,,,,,,,,,,,711,23,female,up_down_width,2024-05-29_14h39.08.677,exp1,2023.1.0,60.00085200461607,
,,,,,,,,,,,,,,,,4,8.35,9.45,10.55,11.65,0,1.1,0.8500000000000001,0.25,3.5500000000000003,10,initial,36.05,301,341,380,420,0,9,9,9,9,0,,,,,,,0,0,0,0,0,15,15,19,,,,,,,,,,,,num_4,1.1600619000382721,num_4,0.3,0.8,0.2,1.0,7.6411,38.2055,return,2.551048499997705,,,,,,,,,,,,,,,,,711,23,female,up_down_width,2024-05-29_14h39.08.677,exp1,2023.1.0,60.00085200461607,
,,,,,,,,,,,,,,,,5,8.2,9.1,10,10.9,11.8,0.9,0.35,0.55,4.15,10,initial,36.05,296,328,361,393,425,9,9,9,9,9,,,,,,,0,0,0,0,0,16,16,46,,,,,,,,,,,,num_4,1.1161766999866813,num_4,0.5,0.9,0.4,0.9,15.2822,34.38495,return,2.79225860000588,,,,,,,,,,,,,,,,,711,23,female,up_down_width,2024-05-29_14h39.08.677,exp1,2023.1.0,60.00085200461607,
,,,,,,,,,,,,,,,,5,8.35,9.175,10,10.825,11.65,0.825,0.575,0.25,3.55,10,match,36.05,301,331,361,390,420,9,9,9,9,9,,,,,,,0,0,0,0,0,17,17,20,,,,,,,,,,,,num_4,1.595926900045015,num_4,0.25,0.6,0.25,0.8,9.55138,30.5644,return,2.663465499994345,,,,,,,,,,,,,,,,,711,23,female,up_down_width,2024-05-29_14h39.08.677,exp1,2023.1.0,60.00085200461607,
,,,,,,,,,,,,,,,,4,8.65,9.55,10.45,11.35,0,0.9,0.65,0.25,2.95,10,initial,36.05,312,344,377,409,0,9,9,9,9,0,,,,,,,0,0,0,0,0,18,18,30,,,,,,,,,,,,num_4,1.2141850999323651,num_4,0.5,0.6,0.30000000000000004,0.8,11.46165,30.5644,return,4.01129429996945,,,,,,,,,,,,,,,,,711,23,female,up_down_width,2024-05-29_14h39.08.677,exp1,2023.1.0,60.00085200461607,
,,,,,,,,,,,,,,,,5,8.6,9.3,10,10.7,11.4,0.7,0.44999999999999996,0.25,3.05,10,initial,36.05,310,335,361,386,411,9,9,9,9,9,,,,,,,0,0,0,0,0,19,19,42,,,,,,,,,,,,num_4,1.9773454000242054,num_4,0.4,0.8,0.25000000000000006,0.9,9.55138,34.38495,return,3.2885146000189707,,,,,,,,,,,,,,,,,711,23,female,up_down_width,2024-05-29_14h39.08.677,exp1,2023.1.0,60.00085200461607,
,,,,,,,,,,,,,,,,5,8.65,9.325,10,10.675,11.35,0.675,0.125,0.55,3.25,10,match,36.05,312,336,361,385,409,9,9,9,9,9,,,,,,,0,0,0,0,0,20,20,29,,,,,,,,,,,,num_5,1.746536000049673,num_5,0.2,0.3,0.39999999999999997,0.6,15.2822,22.9233,return,5.606704099918716,,,,,,,,,,,,,,,,,711,23,female,up_down_width,2024-05-29_14h39.08.677,exp1,2023.1.0,60.00085200461607,
,,,,,,,,,,,,,,,,3,8.525,10,11.475,0,0,1.475,1.225,0.25,3.2,10,match,36.05,307,361,414,0,0,9,9,9,0,0,,,,,,,0,0,0,0,0,21,21,45,,,,,,,,,,,,num_3,1.22810509998817,num_3,0.35,1,0.2,1.25,7.6411,47.75688,return,2.9805788999656215,,,,,,,,,,,,,,,,,711,23,female,up_down_width,2024-05-29_14h39.08.677,exp1,2023.1.0,60.00085200461607,
,,,,,,,,,,,,,,,,3,9.1,10,10.9,0,0,0.9,0.65,0.25,2.05,10,initial,36.05,328,361,393,0,0,9,9,9,0,0,,,,,,,0,0,0,0,0,22,22,13,,,,,,,,,,,,num_3,1.3486031000502408,num_3,0.45,0.5,0.20000000000000007,1.1,7.6411,42.02605,return,12.269607899943367,,,,,,,,,,,,,,,,,711,23,female,up_down_width,2024-05-29_14h39.08.677,exp1,2023.1.0,60.00085200461607,
,,,,,,,,,,,,,,,,5,8.35,9.175,10,10.825,11.65,0.8250000000000001,0.275,0.55,3.85,10,match,36.05,301,331,361,390,420,9,9,9,9,9,,,,,,,0,0,0,0,0,23,23,18,,,,,,,,,,,,num_4,1.8241493999958038,num_4,0.5,0.7,0.5,1.1,19.10275,42.02605,return,3.1870094999903813,,,,,,,,,,,,,,,,,711,23,female,up_down_width,2024-05-29_14h39.08.677,exp1,2023.1.0,60.00085200461607,
,,,,,,,,,,,,,,,,3,8.2,10,11.8,0,0,1.7999999999999998,1.4,0.4,4,10,match,36.05,296,361,425,0,0,9,9,9,0,0,,,,,,,0,0,0,0,0,24,24,51,,,,,,,,,,,,num_3,1.311662600026466,num_3,0.35,0.4,0.35,1.3,13.37193,49.66716,return,5.877925100037828,,,,,,,,,,,,,,,,,711,23,female,up_down_width,2024-05-29_14h39.08.677,exp1,2023.1.0,60.00085200461607,
,,,,,,,,,,,,,,,,5,8.6,9.3,10,10.7,11.4,0.7,0.1499999999999999,0.55,3.3499999999999996,10,initial,36.05,310,335,361,386,411,9,9,9,9,9,,,,,,,0,0,0,0,0,25,25,40,,,,,,,,,,,,num_4,1.2177398999920115,num_4,0.2,0.9,0.39999999999999997,1.1,15.2822,42.02605,return,4.3357180000748485,,,,,,,,,,,,,,,,,711,23,female,up_down_width,2024-05-29_14h39.08.677,exp1,2023.1.0,60.00085200461607,
,,,,,,,,,,,,,,,,5,8.65,9.325,10,10.675,11.35,0.675,0.275,0.4,3.1,10,match,36.05,312,336,361,385,409,9,9,9,9,9,,,,,,,0,0,0,0,0,26,26,33,,,,,,,,,,,,num_5,1.4019308999413624,num_5,0.3,0.8,0.39999999999999997,0.8,15.2822,30.5644,return,5.997407800052315,,,,,,,,,,,,,,,,,711,23,female,up_down_width,2024-05-29_14h39.08.677,exp1,2023.1.0,60.00085200461607,
,,,,,,,,,,,,,,,,4,9.3,9.766666666666667,10.233333333333333,10.7,0,0.4666666666666667,0.21666666666666665,0.25,1.65,10,match,36.05,335,352,369,386,0,9,9,9,9,0,,,,,,,0,0,0,0,0,27,27,8,,,,,,,,,,,,num_3,1.396691800095141,num_3,0.45,0.6,0.30000000000000004,0.75,11.46165,28.65413,return,3.04434499994386,,,,,,,,,,,,,,,,,711,23,female,up_down_width,2024-05-29_14h39.08.677,exp1,2023.1.0,60.00085200461607,
,,,,,,,,,,,,,,,,4,8.35,9.45,10.55,11.65,0,1.1,0.7000000000000001,0.4,3.7,10,initial,36.05,301,341,380,420,0,9,9,9,9,0,,,,,,,0,0,0,0,0,28,28,21,,,,,,,,,,,,num_3,1.713977099978365,num_3,0.3,1,0.35,1.4,13.37193,53.48771,return,4.105229699984193,,,,,,,,,,,,,,,,,711,23,female,up_down_width,2024-05-29_14h39.08.677,exp1,2023.1.0,60.00085200461607,
,,,,,,,,,,,,,,,,3,8.9,10,11.1,0,0,1.1,0.55,0.55,2.75,10,initial,36.05,321,361,400,0,0,9,9,9,0,0,,,,,,,0,0,0,0,0,29,29,0,,,,,,,,,,,,num_3,1.1385901999892667,num_3,0.3,1.2,0.49999999999999994,1.25,19.10275,47.75688,return,3.012415900011547,,,,,,,,,,,,,,,,,711,23,female,up_down_width,2024-05-29_14h39.08.677,exp1,2023.1.0,60.00085200461607,
,,,,,,,,,,,,,,,,4,9.1,9.7,10.3,10.9,0,0.5999999999999999,0.3499999999999999,0.25,2.05,10,match,36.05,328,350,371,393,0,9,9,9,9,0,,,,,,,0,0,0,0,0,30,30,14,,,,,,,,,,,,num_4,1.874807700049132,num_4,0.3,0.8,0.25,1.0,9.55138,38.2055,return,5.948431900003925,,,,,,,,,,,,,,,,,711,23,female,up_down_width,2024-05-29_14h39.08.677,exp1,2023.1.0,60.00085200461607,
,,,,,,,,,,,,,,,,3,7.800000000000001,10,12.2,0,0,2.1999999999999997,1.7999999999999998,0.4,4.8,10,match,36.05,281,361,440,0,0,9,9,9,0,0,,,,,,,0,0,0,0,0,31,31,39,,,,,,,,,,,,num_3,0.9866479000775144,num_3,0.2,0.7,0.35,1.4,13.37193,53.48771,return,7.273352300049737,,,,,,,,,,,,,,,,,711,23,female,up_down_width,2024-05-29_14h39.08.677,exp1,2023.1.0,60.00085200461607,
,,,,,,,,,,,,,,,,3,8.6,10,11.4,0,0,1.4,0.85,0.55,3.35,10,match,36.05,310,361,411,0,0,9,9,9,0,0,,,,,,,0,0,0,0,0,32,32,41,,,,,,,,,,,,num_3,1.04202539997641,num_3,0.25,0.7,0.39999999999999997,1.1,15.2822,42.02605,return,3.443343999912031,,,,,,,,,,,,,,,,,711,23,female,up_down_width,2024-05-29_14h39.08.677,exp1,2023.1.0,60.00085200461607,
,,,,,,,,,,,,,,,,5,8.2,9.1,10,10.9,11.8,0.9,0.65,0.25,3.85,10,initial,36.05,296,328,361,393,425,9,9,9,9,9,,,,,,,0,0,0,0,0,33,33,48,,,,,,,,,,,,num_5,1.2869773000711575,num_5,0.55,1.2,0.25000000000000006,1.15,9.55138,43.93633,return,5.528456800035201,,,,,,,,,,,,,,,,,711,23,female,up_down_width,2024-05-29_14h39.08.677,exp1,2023.1.0,60.00085200461607,
,,,,,,,,,,,,,,,,4,9.3,9.766666666666667,10.233333333333333,10.7,0,0.4666666666666667,0.06666666666666665,0.4,1.8,10,match,36.05,335,352,369,386,0,9,9,9,9,0,,,,,,,0,0,0,0,0,34,34,10,,,,,,,,,,,,num_3,1.3285287000471726,num_3,0.55,0.6,0.45,0.7,17.19248,26.74385,return,7.638278399943374,,,,,,,,,,,,,,,,,711,23,female,up_down_width,2024-05-29_14h39.08.677,exp1,2023.1.0,60.00085200461607,
,,,,,,,,,,,,,,,,5,8.95,9.475,10,10.525,11.05,0.525,0.125,0.4,2.5,10,match,36.05,323,342,361,379,398,9,9,9,9,9,,,,,,,0,0,0,0,0,35,35,27,,,,,,,,,,,,num_4,1.5698736000340432,num_4,0.25,0.8,0.35,0.8,13.37193,30.5644,return,5.490451999939978,,,,,,,,,,,,,,,,,711,23,female,up_down_width,2024-05-29_14h39.08.677,exp1,2023.1.0,60.00085200461607,
,,,,,,,,,,,,,,,,3,8.9,10,11.1,0,0,1.1,0.7000000000000001,0.4,2.6000000000000005,10,initial,36.05,321,361,400,0,0,9,9,9,0,0,,,,,,,0,0,0,0,0,36,36,4,,,,,,,,,,,,num_3,1.1307449999731034,num_3,0.45,0.6,0.35000000000000003,0.65,13.37193,24.83358,return,7.688485399936326,,,,,,,,,,,,,,,,,711,23,female,up_down_width,2024-05-29_14h39.08.677,exp1,2023.1.0,60.00085200461607,
,,,,,,,,,,,,,,,,4,8.9,9.633333333333333,10.366666666666667,11.1,0,0.7333333333333333,0.18333333333333326,0.55,2.75,10,match,36.05,321,347,374,400,0,9,9,9,9,0,,,,,,,0,0,0,0,0,37,37,1,,,,,,,,,,,,num_4,1.1185678000329062,num_4,0.4,0.8,0.45,0.7,17.19248,26.74385,return,4.704510200070217,,,,,,,,,,,,,,,,,711,23,female,up_down_width,2024-05-29_14h39.08.677,exp1,2023.1.0,60.00085200461607,
,,,,,,,,,,,,,,,,4,8.95,9.65,10.35,11.05,0,0.7,0.44999999999999996,0.25,2.3499999999999996,10,initial,36.05,323,348,373,398,0,9,9,9,9,0,,,,,,,0,0,0,0,0,38,38,24,,,,,,,,,,,,num_4,1.2565531999571249,num_4,0.3,0.6,0.2,0.7,7.6411,26.74385,return,2.8207047999603674,,,,,,,,,,,,,,,,,711,23,female,up_down_width,2024-05-29_14h39.08.677,exp1,2023.1.0,60.00085200461607,
,,,,,,,,,,,,,,,,5,8.95,9.475,10,10.525,11.05,0.525,0.275,0.25,2.35,10,match,36.05,323,342,361,379,398,9,9,9,9,9,,,,,,,0,0,0,0,0,39,39,25,,,,,,,,,,,,num_5,1.1747473999857903,num_5,0.45,1.0,0.20000000000000007,0.8,7.6411,30.5644,return,6.564564200001769,,,,,,,,,,,,,,,,,711,23,female,up_down_width,2024-05-29_14h39.08.677,exp1,2023.1.0,60.00085200461607,
,,,,,,,,,,,,,,,,3,8.2,10,11.8,0,0,1.8,1.25,0.55,4.15,10,match,36.05,296,361,425,0,0,9,9,9,0,0,,,,,,,0,0,0,0,0,40,40,47,,,,,,,,,,,,num_3,0.999249399988912,num_3,0.4,1.2,0.6000000000000001,1.3,22.9233,49.66716,return,2.5397235000273213,,,,,,,,,,,,,,,,,711,23,female,up_down_width,2024-05-29_14h39.08.677,exp1,2023.1.0,60.00085200461607,
,,,,,,,,,,,,,,,,3,9.3,10,10.7,0,0,0.7,0.1499999999999999,0.55,1.95,10,initial,36.05,335,361,386,0,0,9,9,9,0,0,,,,,,,0,0,0,0,0,41,41,6,,,,,,,,,,,,num_3,1.0178395999828354,num_3,0.55,1,0.5,1.1,19.10275,42.02605,return,3.5971150000113994,,,,,,,,,,,,,,,,,711,23,female,up_down_width,2024-05-29_14h39.08.677,exp1,2023.1.0,60.00085200461607,
,,,,,,,,,,,,,,,,3,8.6,10,11.4,0,0,1.4,1.15,0.25,3.05,10,match,36.05,310,361,411,0,0,9,9,9,0,0,,,,,,,0,0,0,0,0,42,42,43,,,,,,,,,,,,num_3,1.1116746000479907,num_3,0.55,1,0.25000000000000006,1.1,9.55138,42.02605,return,3.865872700000182,,,,,,,,,,,,,,,,,711,23,female,up_down_width,2024-05-29_14h39.08.677,exp1,2023.1.0,60.00085200461607,
,,,,,,,,,,,,,,,,3,9.1,10,10.9,0,0,0.9,0.5,0.4,2.2,10,initial,36.05,328,361,393,0,0,9,9,9,0,0,,,,,,,0,0,0,0,0,43,43,15,,,,,,,,,,,,num_3,1.9679271000204608,num_3,0.5,1.2,0.35000000000000003,1.3,13.37193,49.66716,return,4.50823609996587,,,,,,,,,,,,,,,,,711,23,female,up_down_width,2024-05-29_14h39.08.677,exp1,2023.1.0,60.00085200461607,
,,,,,,,,,,,,,,,,3,7.8,10,12.2,0,0,2.2,1.9500000000000002,0.25,4.65,10,match,36.05,281,361,440,0,0,9,9,9,0,0,,,,,,,0,0,0,0,0,44,44,37,,,,,,,,,,,,num_3,1.0216590000782162,num_3,0.5,0.8,0.10000000000000007,1.25,3.82055,47.75688,return,6.85191660001874,,,,,,,,,,,,,,,,,711,23,female,up_down_width,2024-05-29_14h39.08.677,exp1,2023.1.0,60.00085200461607,
,,,,,,,,,,,,,,,,4,8.95,9.65,10.35,11.05,0,0.7,0.29999999999999993,0.4,2.5,10,initial,36.05,323,348,373,398,0,9,9,9,9,0,,,,,,,0,0,0,0,0,45,45,26,,,,,,,,,,,,num_3,1.8162506999215111,num_3,0.4,1.1,0.35000000000000003,1.15,13.37193,43.93633,return,2.7645625000586733,,,,,,,,,,,,,,,,,711,23,female,up_down_width,2024-05-29_14h39.08.677,exp1,2023.1.0,60.00085200461607,
,,,,,,,,,,,,,,,,3,8.9,10,11.1,0,0,1.1,0.8500000000000001,0.25,2.45,10,initial,36.05,321,361,400,0,0,9,9,9,0,0,,,,,,,0,0,0,0,0,46,46,2,,,,,,,,,,,,num_3,1.358055799966678,num_3,0.35,0.8,0.15000000000000002,0.9,5.73083,34.38495,return,2.9021170999621972,,,,,,,,,,,,,,,,,711,23,female,up_down_width,2024-05-29_14h39.08.677,exp1,2023.1.0,60.00085200461607,
,,,,,,,,,,,,,,,,4,9.1,9.7,10.3,10.9,0,0.6,0.04999999999999997,0.55,2.35,10,match,36.05,328,350,371,393,0,9,9,9,9,0,,,,,,,0,0,0,0,0,47,47,12,,,,,,,,,,,,num_3,1.8277830999577418,num_3,0.3,0.9,0.49999999999999994,0.7,19.10275,26.74385,return,7.701543900067918,,,,,,,,,,,,,,,,,711,23,female,up_down_width,2024-05-29_14h39.08.677,exp1,2023.1.0,60.00085200461607,
,,,,,,,,,,,,,,,,4,8.65,9.55,10.45,11.35,0,0.9,0.35,0.55,3.25,10,initial,36.05,312,344,377,409,0,9,9,9,9,0,,,,,,,0,0,0,0,0,48,48,28,,,,,,,,,,,,num_4,1.2933534999610856,num_4,0.55,1.2,0.5,0.8,19.10275,30.5644,return,5.5240820000180975,,,,,,,,,,,,,,,,,711,23,female,up_down_width,2024-05-29_14h39.08.677,exp1,2023.1.0,60.00085200461607,
,,,,,,,,,,,,,,,,4,8.65,9.55,10.45,11.35,0,0.9,0.5,0.4,3.1,10,initial,36.05,312,344,377,409,0,9,9,9,9,0,,,,,,,0,0,0,0,0,49,49,32,,,,,,,,,,,,num_4,1.4703550999984145,num_4,0.25,1.0,0.35,0.7,13.37193,26.74385,return,5.919789899955504,,,,,,,,,,,,,,,,,711,23,female,up_down_width,2024-05-29_14h39.08.677,exp1,2023.1.0,60.00085200461607,
,,,,,,,,,,,,,,,,4,8.35,9.45,10.55,11.65,0,1.1,0.55,0.55,3.8500000000000005,10,initial,36.05,301,341,380,420,0,9,9,9,9,0,,,,,,,0,0,0,0,0,50,50,17,,,,,,,,,,,,num_4,0.9581263000145555,num_4,0.4,1.3,0.4,0.9,15.2822,34.38495,return,6.979790700017475,,,,,,,,,,,,,,,,,711,23,female,up_down_width,2024-05-29_14h39.08.677,exp1,2023.1.0,60.00085200461607,
,,,,,,,,,,,,,,,,5,7.8,8.9,10,11.1,12.2,1.1,0.55,0.55,4.95,10,initial,36.05,281,321,361,400,440,9,9,9,9,9,,,,,,,0,0,0,0,0,51,51,34,,,,,,,,,,,,num_5,1.0912773000309244,num_5,0.55,1.3,0.35000000000000003,1.0,13.37193,38.2055,return,3.974318499909714,,,,,,,,,,,,,,,,,711,23,female,up_down_width,2024-05-29_14h39.08.677,exp1,2023.1.0,60.00085200461607,
,,,,,,,,,,,,,,,,,,,,,,,,,,,,,,,,,,,,,,,,,,,,,0,0,0,0,,,,,,,,,,,,,,,,,,,,,,,,,,,,,747.6455139999744,747.6455139999744,747.6455139999744,,,,,,,,,,,,711,23,female,up_down_width,2024-05-29_14h39.08.677,exp1,2023.1.0,60.00085200461607,
,,,,,,,,,,,,,,,,3,7.8,10,12.2,0,0,2.2,1.9500000000000002,0.25,4.65,10,match,36.05,281,361,440,0,0,9,9,9,0,0,,,,,,,1,0,1,0,0,0,0,37,,,,,,,,,,,,num_2,1.2059598999330774,num_2,0.35,0.6,0.25,1.8,9.55138,68.76991,return,8.319771900074556,,,,,,,,,,,,,,,,,711,23,female,up_down_width,2024-05-29_14h39.08.677,exp1,2023.1.0,60.00085200461607,
,,,,,,,,,,,,,,,,3,8.9,10,11.1,0,0,1.1,0.7000000000000001,0.4,2.6000000000000005,10,initial,36.05,321,361,400,0,0,9,9,9,0,0,,,,,,,1,0,1,0,0,1,1,4,,,,,,,,,,,,num_3,0.9719616000074893,num_3,0.25,1,0.3,1.05,11.46165,40.11578,return,5.68287669995334,,,,,,,,,,,,,,,,,711,23,female,up_down_width,2024-05-29_14h39.08.677,exp1,2023.1.0,60.00085200461607,
,,,,,,,,,,,,,,,,4,9.1,9.7,10.3,10.9,0,0.6,0.04999999999999997,0.55,2.35,10,match,36.05,328,350,371,393,0,9,9,9,9,0,,,,,,,1,0,1,0,0,2,2,12,,,,,,,,,,,,num_3,0.9673772000242025,num_3,0.5,0.6,0.55,0.75,21.01303,28.65413,return,4.427934700041078,,,,,,,,,,,,,,,,,711,23,female,up_down_width,2024-05-29_14h39.08.677,exp1,2023.1.0,60.00085200461607,
,,,,,,,,,,,,,,,,4,9.3,9.766666666666667,10.233333333333333,10.7,0,0.4666666666666667,0.21666666666666665,0.25,1.65,10,match,36.05,335,352,369,386,0,9,9,9,9,0,,,,,,,1,0,1,0,0,3,3,8,,,,,,,,,,,,num_3,1.2007880000164732,num_3,0.3,0.5,0.3,0.6,11.46165,22.9233,return,3.6262918999418616,,,,,,,,,,,,,,,,,711,23,female,up_down_width,2024-05-29_14h39.08.677,exp1,2023.1.0,60.00085200461607,
,,,,,,,,,,,,,,,,4,8.35,9.45,10.55,11.65,0,1.1,0.55,0.55,3.8500000000000005,10,initial,36.05,301,341,380,420,0,9,9,9,9,0,,,,,,,1,0,1,0,0,4,4,17,,,,,,,,,,,,num_4,0.9680421999655664,num_4,0.3,1.1,0.49999999999999994,1.1,19.10275,42.02605,return,2.0161876000929624,,,,,,,,,,,,,,,,,711,23,female,up_down_width,2024-05-29_14h39.08.677,exp1,2023.1.0,60.00085200461607,
,,,,,,,,,,,,,,,,5,8.6,9.3,10,10.7,11.4,0.7,0.1499999999999999,0.55,3.3499999999999996,10,initial,36.05,310,335,361,386,411,9,9,9,9,9,,,,,,,1,0,1,0,0,5,5,40,,,,,,,,,,,,num_4,1.0579776000231504,num_4,0.35,0.4,0.5499999999999999,0.9,21.01303,34.38495,return,3.7495859001064673,,,,,,,,,,,,,,,,,711,23,female,up_down_width,2024-05-29_14h39.08.677,exp1,2023.1.0,60.00085200461607,
,,,,,,,,,,,,,,,,3,8.2,10,11.8,0,0,1.7999999999999998,1.4,0.4,4,10,match,36.05,296,361,425,0,0,9,9,9,0,0,,,,,,,1,0,1,0,0,6,6,51,,,,,,,,,,,,num_3,0.9463976999977604,num_3,0.2,0.9,0.39999999999999997,1.05,15.2822,40.11578,return,2.6796698999824002,,,,,,,,,,,,,,,,,711,23,female,up_down_width,2024-05-29_14h39.08.677,exp1,2023.1.0,60.00085200461607,
,,,,,,,,,,,,,,,,3,9.3,10,10.7,0,0,0.7,0.1499999999999999,0.55,1.95,10,initial,36.05,335,361,386,0,0,9,9,9,0,0,,,,,,,1,0,1,0,0,7,7,6,,,,,,,,,,,,num_3,0.9911881999578327,num_3,0.25,0.6,0.44999999999999996,0.7,17.19248,26.74385,return,4.895027799997479,,,,,,,,,,,,,,,,,711,23,female,up_down_width,2024-05-29_14h39.08.677,exp1,2023.1.0,60.00085200461607,
,,,,,,,,,,,,,,,,3,7.8,10,12.2,0,0,2.2,1.65,0.55,4.95,10,match,36.05,281,361,440,0,0,9,9,9,0,0,,,,,,,1,0,1,0,0,8,8,35,,,,,,,,,,,,num_3,0.9714382999809459,num_3,0.25,0.6,0.49999999999999994,0.85,19.10275,32.47468,return,4.226071900106035,,,,,,,,,,,,,,,,,711,23,female,up_down_width,2024-05-29_14h39.08.677,exp1,2023.1.0,60.00085200461607,
,,,,,,,,,,,,,,,,3,9.3,10,10.7,0,0,0.7,0.29999999999999993,0.4,1.8,10,initial,36.05,335,361,386,0,0,9,9,9,0,0,,,,,,,1,0,1,0,0,9,9,9,,,,,,,,,,,,num_3,0.8959508000407368,num_3,0.2,1.3,0.44999999999999996,1.3,17.19248,49.66716,return,3.4358568999450654,,,,,,,,,,,,,,,,,711,23,female,up_down_width,2024-05-29_14h39.08.677,exp1,2023.1.0,60.00085200461607,
,,,,,,,,,,,,,,,,3,8.6,10,11.4,0,0,1.4,1.15,0.25,3.05,10,match,36.05,310,361,411,0,0,9,9,9,0,0,,,,,,,1,0,1,0,0,10,10,43,,,,,,,,,,,,num_3,0.8159914999268949,num_3,0.55,1,0.20000000000000007,1.2,7.6411,45.8466,return,4.505956499953754,,,,,,,,,,,,,,,,,711,23,female,up_down_width,2024-05-29_14h39.08.677,exp1,2023.1.0,60.00085200461607,
,,,,,,,,,,,,,,,,3,7.800000000000001,10,12.2,0,0,2.1999999999999997,1.7999999999999998,0.4,4.8,10,match,36.05,281,361,440,0,0,9,9,9,0,0,,,,,,,1,0,1,0,0,11,11,39,,,,,,,,,,,,num_3,1.027758500073105,num_3,0.4,0.9,0.4,1.15,15.2822,43.93633,return,4.632635900052264,,,,,,,,,,,,,,,,,711,23,female,up_down_width,2024-05-29_14h39.08.677,exp1,2023.1.0,60.00085200461607,
,,,,,,,,,,,,,,,,5,7.8,8.9,10,11.1,12.2,1.1,0.7000000000000001,0.4,4.800000000000001,10,initial,36.05,281,321,361,400,440,9,9,9,9,9,,,,,,,1,0,1,0,0,12,12,38,,,,,,,,,,,,num_4,1.5386326001025736,num_4,0.45,0.5,0.5,1.2,19.10275,45.8466,return,3.3969437000341713,,,,,,,,,,,,,,,,,711,23,female,up_down_width,2024-05-29_14h39.08.677,exp1,2023.1.0,60.00085200461607,
,,,,,,,,,,,,,,,,5,8.2,9.1,10,10.9,11.8,0.9,0.5,0.4,4,10,initial,36.05,296,328,361,393,425,9,9,9,9,9,,,,,,,1,0,1,0,0,13,13,50,,,,,,,,,,,,num_4,2.0544437000062317,num_4,0.3,0.4,0.44999999999999996,1.0,17.19248,38.2055,return,3.1989326999755576,,,,,,,,,,,,,,,,,711,23,female,up_down_width,2024-05-29_14h39.08.677,exp1,2023.1.0,60.00085200461607,
,,,,,,,,,,,,,,,,5,8.6,9.3,10,10.7,11.4,0.7,0.44999999999999996,0.25,3.05,10,initial,36.05,310,335,361,386,411,9,9,9,9,9,,,,,,,1,0,1,0,0,14,14,42,,,,,,,,,,,,num_4,0.9659924000734463,num_4,0.4,0.5,0.25000000000000006,1.1,9.55138,42.02605,return,4.990656799986027,,,,,,,,,,,,,,,,,711,23,female,up_down_width,2024-05-29_14h39.08.677,exp1,2023.1.0,60.00085200461607,
,,,,,,,,,,,,,,,,5,8.2,9.1,10,10.9,11.8,0.9,0.35,0.55,4.15,10,initial,36.05,296,328,361,393,425,9,9,9,9,9,,,,,,,1,0,1,0,0,15,15,46,,,,,,,,,,,,num_5,1.5020903000840917,num_5,0.45,1.0,0.5,1.05,19.10275,40.11578,return,3.226918499916792,,,,,,,,,,,,,,,,,711,23,female,up_down_width,2024-05-29_14h39.08.677,exp1,2023.1.0,60.00085200461607,
,,,,,,,,,,,,,,,,3,8.9,10,11.1,0,0,1.1,0.55,0.55,2.75,10,initial,36.05,321,361,400,0,0,9,9,9,0,0,,,,,,,1,0,1,0,0,16,16,0,,,,,,,,,,,,num_3,1.251563800033182,num_3,0.25,1.3,0.49999999999999994,1.3,19.10275,49.66716,return,1.9998098999494687,,,,,,,,,,,,,,,,,711,23,female,up_down_width,2024-05-29_14h39.08.677,exp1,2023.1.0,60.00085200461607,
,,,,,,,,,,,,,,,,5,8.65,9.325,10,10.675,11.35,0.675,0.42500000000000004,0.25,2.95,10,match,36.05,312,336,361,385,409,9,9,9,9,9,,,,,,,1,0,1,0,0,17,17,31,,,,,,,,,,,,num_4,1.4893524999497458,num_4,0.2,0.6,0.39999999999999997,0.8,15.2822,30.5644,return,2.532900799997151,,,,,,,,,,,,,,,,,711,23,female,up_down_width,2024-05-29_14h39.08.677,exp1,2023.1.0,60.00085200461607,
,,,,,,,,,,,,,,,,3,8.6,10,11.4,0,0,1.4,0.85,0.55,3.35,10,match,36.05,310,361,411,0,0,9,9,9,0,0,,,,,,,1,0,1,0,0,18,18,41,,,,,,,,,,,,num_3,0.7923646999988705,num_3,0.25,1.3,0.5499999999999999,1.25,21.01303,47.75688,return,3.7829313999973238,,,,,,,,,,,,,,,,,711,23,female,up_down_width,2024-05-29_14h39.08.677,exp1,2023.1.0,60.00085200461607,
,,,,,,,,,,,,,,,,3,9.1,10,10.9,0,0,0.9,0.65,0.25,2.05,10,initial,36.05,328,361,393,0,0,9,9,9,0,0,,,,,,,1,0,1,0,0,19,19,13,,,,,,,,,,,,num_3,0.7940826000412926,num_3,0.35,0.8,0.2,0.9,7.6411,34.38495,return,2.5127827000105754,,,,,,,,,,,,,,,,,711,23,female,up_down_width,2024-05-29_14h39.08.677,exp1,2023.1.0,60.00085200461607,
,,,,,,,,,,,,,,,,4,8.825,9.608333333333333,10.391666666666667,11.175,0,0.7833333333333333,0.5333333333333333,0.25,2.6,10,match,36.05,318,346,375,403,0,9,9,9,9,0,,,,,,,1,0,1,0,0,20,20,5,,,,,,,,,,,,num_4,1.1691167999524623,num_4,0.5,0.7,0.25000000000000006,0.7,9.55138,26.74385,return,5.031750399968587,,,,,,,,,,,,,,,,,711,23,female,up_down_width,2024-05-29_14h39.08.677,exp1,2023.1.0,60.00085200461607,
,,,,,,,,,,,,,,,,5,8.65,9.325,10,10.675,11.35,0.675,0.125,0.55,3.25,10,match,36.05,312,336,361,385,409,9,9,9,9,9,,,,,,,1,0,1,0,0,21,21,29,,,,,,,,,,,,num_4,1.130751800024882,num_4,0.45,0.7,0.6000000000000001,0.9,22.9233,34.38495,return,2.4866701000137255,,,,,,,,,,,,,,,,,711,23,female,up_down_width,2024-05-29_14h39.08.677,exp1,2023.1.0,60.00085200461607,
,,,,,,,,,,,,,,,,4,8.65,9.55,10.45,11.35,0,0.9,0.65,0.25,2.95,10,initial,36.05,312,344,377,409,0,9,9,9,9,0,,,,,,,1,0,1,0,0,22,22,30,,,,,,,,,,,,num_4,0.9464263999834657,num_4,0.4,1.0,0.20000000000000007,1.0,7.6411,38.2055,return,3.7368982000043616,,,,,,,,,,,,,,,,,711,23,female,up_down_width,2024-05-29_14h39.08.677,exp1,2023.1.0,60.00085200461607,
,,,,,,,,,,,,,,,,4,8.95,9.65,10.35,11.05,0,0.7,0.29999999999999993,0.4,2.5,10,initial,36.05,323,348,373,398,0,9,9,9,9,0,,,,,,,1,0,1,0,0,23,23,26,,,,,,,,,,,,num_4,0.8455105000175536,num_4,0.25,0.9,0.35,1.0,13.37193,38.2055,return,2.217799299978651,,,,,,,,,,,,,,,,,711,23,female,up_down_width,2024-05-29_14h39.08.677,exp1,2023.1.0,60.00085200461607,
,,,,,,,,,,,,,,,,5,7.8,8.9,10,11.1,12.2,1.1,0.8500000000000001,0.25,4.65,10,initial,36.05,281,321,361,400,440,9,9,9,9,9,,,,,,,1,0,1,0,0,24,24,36,,,,,,,,,,,,num_4,0.8516726000234485,num_4,0.45,0.9,0.25000000000000006,0.8,9.55138,30.5644,return,7.455294099985622,,,,,,,,,,,,,,,,,711,23,female,up_down_width,2024-05-29_14h39.08.677,exp1,2023.1.0,60.00085200461607,
,,,,,,,,,,,,,,,,3,8.525,10,11.475,0,0,1.475,1.225,0.25,3.2,10,match,36.05,307,361,414,0,0,9,9,9,0,0,,,,,,,1,0,1,0,0,25,25,45,,,,,,,,,,,,num_3,0.9941415999783203,num_3,0.25,0.7,0.2,1.15,7.6411,43.93633,return,3.1780338999815285,,,,,,,,,,,,,,,,,711,23,female,up_down_width,2024-05-29_14h39.08.677,exp1,2023.1.0,60.00085200461607,
,,,,,,,,,,,,,,,,4,8.35,9.45,10.55,11.65,0,1.1,0.8500000000000001,0.25,3.5500000000000003,10,initial,36.05,301,341,380,420,0,9,9,9,9,0,,,,,,,1,0,1,0,0,26,26,19,,,,,,,,,,,,num_4,1.2656665000831708,num_4,0.55,0.9,0.20000000000000007,1.0,7.6411,38.2055,return,3.8375906000146642,,,,,,,,,,,,,,,,,711,23,female,up_down_width,2024-05-29_14h39.08.677,exp1,2023.1.0,60.00085200461607,
,,,,,,,,,,,,,,,,4,8.65,9.55,10.45,11.35,0,0.9,0.35,0.55,3.25,10,initial,36.05,312,344,377,409,0,9,9,9,9,0,,,,,,,1,0,1,0,0,27,27,28,,,,,,,,,,,,num_4,0.8975459999637678,num_4,0.25,1.0,0.44999999999999996,1.2,17.19248,45.8466,return,2.2455067000119016,,,,,,,,,,,,,,,,,711,23,female,up_down_width,2024-05-29_14h39.08.677,exp1,2023.1.0,60.00085200461607,
,,,,,,,,,,,,,,,,4,8.65,9.55,10.45,11.35,0,0.9,0.5,0.4,3.1,10,initial,36.05,312,344,377,409,0,9,9,9,9,0,,,,,,,1,0,1,0,0,28,28,32,,,,,,,,,,,,num_4,0.8512776999268681,num_4,0.55,0.7,0.4,0.8,15.2822,30.5644,return,4.960627199965529,,,,,,,,,,,,,,,,,711,23,female,up_down_width,2024-05-29_14h39.08.677,exp1,2023.1.0,60.00085200461607,
,,,,,,,,,,,,,,,,3,8.9,10,11.1,0,0,1.1,0.8500000000000001,0.25,2.45,10,initial,36.05,321,361,400,0,0,9,9,9,0,0,,,,,,,1,0,1,0,0,29,29,2,,,,,,,,,,,,num_3,0.8830456999130547,num_3,0.45,0.5,0.30000000000000004,0.9,11.46165,34.38495,return,5.942373900092207,,,,,,,,,,,,,,,,,711,23,female,up_down_width,2024-05-29_14h39.08.677,exp1,2023.1.0,60.00085200461607,
,,,,,,,,,,,,,,,,4,8.35,9.45,10.55,11.65,0,1.1,0.7000000000000001,0.4,3.7,10,initial,36.05,301,341,380,420,0,9,9,9,9,0,,,,,,,1,0,1,0,0,30,30,21,,,,,,,,,,,,num_3,1.2368505999911577,num_3,0.45,0.9,0.45,1.05,17.19248,40.11578,return,4.590243199956603,,,,,,,,,,,,,,,,,711,23,female,up_down_width,2024-05-29_14h39.08.677,exp1,2023.1.0,60.00085200461607,
,,,,,,,,,,,,,,,,4,8.95,9.65,10.35,11.05,0,0.7,0.1499999999999999,0.55,2.65,10,initial,36.05,323,348,373,398,0,9,9,9,9,0,,,,,,,1,0,1,0,0,31,31,23,,,,,,,,,,,,num_4,1.02128270000685,num_4,0.35,0.5,0.39999999999999997,1.0,15.2822,38.2055,return,3.747160300030373,,,,,,,,,,,,,,,,,711,23,female,up_down_width,2024-05-29_14h39.08.677,exp1,2023.1.0,60.00085200461607,
,,,,,,,,,,,,,,,,5,8.35,9.175,10,10.825,11.65,0.825,0.575,0.25,3.55,10,match,36.05,301,331,361,390,420,9,9,9,9,9,,,,,,,1,0,1,0,0,32,32,20,,,,,,,,,,,,num_5,0.888065499952063,num_5,0.25,0.4,0.2,0.75,7.6411,28.65413,return,3.041550899972208,,,,,,,,,,,,,,,,,711,23,female,up_down_width,2024-05-29_14h39.08.677,exp1,2023.1.0,60.00085200461607,
,,,,,,,,,,,,,,,,5,8.275,9.1375,10,10.8625,11.725,0.8625,0.6125,0.25,3.7,10,match,36.05,298,329,361,392,423,9,9,9,9,9,,,,,,,1,0,1,0,0,33,33,22,,,,,,,,,,,,num_5,0.9849525999743491,num_5,0.5,0.8,0.25000000000000006,0.8,9.55138,30.5644,return,2.5607638999354094,,,,,,,,,,,,,,,,,711,23,female,up_down_width,2024-05-29_14h39.08.677,exp1,2023.1.0,60.00085200461607,
,,,,,,,,,,,,,,,,4,8.9,9.633333333333333,10.366666666666667,11.1,0,0.7333333333333334,0.4833333333333334,0.25,2.45,10,match,36.05,321,347,374,400,0,9,9,9,9,0,,,,,,,1,0,1,0,0,34,34,3,,,,,,,,,,,,num_3,0.8927185999928042,num_3,0.35,0.5,0.25,0.65,9.55138,24.83358,return,3.60493479995057,,,,,,,,,,,,,,,,,711,23,female,up_down_width,2024-05-29_14h39.08.677,exp1,2023.1.0,60.00085200461607,
,,,,,,,,,,,,,,,,4,9.1,9.7,10.3,10.9,0,0.6000000000000001,0.20000000000000004,0.4,2.2,10,match,36.05,328,350,371,393,0,9,9,9,9,0,,,,,,,1,0,1,0,0,35,35,16,,,,,,,,,,,,num_4,1.5223429000470787,num_4,0.2,0.7,0.39999999999999997,0.9,15.2822,34.38495,return,1.7921605999581516,,,,,,,,,,,,,,,,,711,23,female,up_down_width,2024-05-29_14h39.08.677,exp1,2023.1.0,60.00085200461607,
,,,,,,,,,,,,,,,,5,7.8,8.9,10,11.1,12.2,1.1,0.55,0.55,4.95,10,initial,36.05,281,321,361,400,440,9,9,9,9,9,,,,,,,1,0,1,0,0,36,36,34,,,,,,,,,,,,num_5,1.6787113999016583,num_5,0.3,0.4,0.44999999999999996,0.9,17.19248,34.38495,return,3.3835075000533834,,,,,,,,,,,,,,,,,711,23,female,up_down_width,2024-05-29_14h39.08.677,exp1,2023.1.0,60.00085200461607,
,,,,,,,,,,,,,,,,5,8.6,9.3,10,10.7,11.4,0.7,0.29999999999999993,0.4,3.1999999999999997,10,initial,36.05,310,335,361,386,411,9,9,9,9,9,,,,,,,1,0,1,0,0,37,37,44,,,,,,,,,,,,num_5,1.0515607999404892,num_5,0.4,1.1,0.30000000000000004,0.85,11.46165,32.47468,return,5.671741099911742,,,,,,,,,,,,,,,,,711,23,female,up_down_width,2024-05-29_14h39.08.677,exp1,2023.1.0,60.00085200461607,
,,,,,,,,,,,,,,,,5,8.95,9.475,10,10.525,11.05,0.525,0.275,0.25,2.35,10,match,36.05,323,342,361,379,398,9,9,9,9,9,,,,,,,1,0,1,0,0,38,38,25,,,,,,,,,,,,num_4,1.5297877999255434,num_4,0.25,0.3,0.35,0.7,13.37193,26.74385,return,3.6355385000351816,,,,,,,,,,,,,,,,,711,23,female,up_down_width,2024-05-29_14h39.08.677,exp1,2023.1.0,60.00085200461607,
,,,,,,,,,,,,,,,,4,9.3,9.766666666666667,10.233333333333333,10.7,0,0.4666666666666667,0.06666666666666665,0.4,1.8,10,match,36.05,335,352,369,386,0,9,9,9,9,0,,,,,,,1,0,1,0,0,39,39,10,,,,,,,,,,,,num_4,1.3867275000084192,num_4,0.3,1.2,0.25,0.6,9.55138,22.9233,return,5.52113140001893,,,,,,,,,,,,,,,,,711,23,female,up_down_width,2024-05-29_14h39.08.677,exp1,2023.1.0,60.00085200461607,
,,,,,,,,,,,,,,,,3,9.1,10,10.9,0,0,0.9,0.35,0.55,2.35,10,initial,36.05,328,361,393,0,0,9,9,9,0,0,,,,,,,1,0,1,0,0,40,40,11,,,,,,,,,,,,num_3,1.046513200039044,num_3,0.25,1.2,0.49999999999999994,1.05,19.10275,40.11578,return,7.43465940002352,,,,,,,,,,,,,,,,,711,23,female,up_down_width,2024-05-29_14h39.08.677,exp1,2023.1.0,60.00085200461607,
,,,,,,,,,,,,,,,,5,8.35,9.175,10,10.825,11.65,0.8250000000000001,0.275,0.55,3.85,10,match,36.05,301,331,361,390,420,9,9,9,9,9,,,,,,,1,0,1,0,0,41,41,18,,,,,,,,,,,,num_4,0.92420220002532,num_4,0.3,0.9,0.44999999999999996,1.0,17.19248,38.2055,return,1.9410219000419602,,,,,,,,,,,,,,,,,711,23,female,up_down_width,2024-05-29_14h39.08.677,exp1,2023.1.0,60.00085200461607,
,,,,,,,,,,,,,,,,3,9.1,10,10.9,0,0,0.9,0.5,0.4,2.2,10,initial,36.05,328,361,393,0,0,9,9,9,0,0,,,,,,,1,0,1,0,0,42,42,15,,,,,,,,,,,,num_3,0.8951197999995202,num_3,0.5,0.9,0.30000000000000004,0.95,11.46165,36.29523,return,3.7615265999920666,,,,,,,,,,,,,,,,,711,23,female,up_down_width,2024-05-29_14h39.08.677,exp1,2023.1.0,60.00085200461607,
,,,,,,,,,,,,,,,,3,8.2,10,11.8,0,0,1.8,1.55,0.25,3.85,10,match,36.05,296,361,425,0,0,9,9,9,0,0,,,,,,,1,0,1,0,0,43,43,49,,,,,,,,,,,,num_3,0.9888531001051888,num_3,0.2,1,0.35,1.1,13.37193,42.02605,return,2.371551900054328,,,,,,,,,,,,,,,,,711,23,female,up_down_width,2024-05-29_14h39.08.677,exp1,2023.1.0,60.00085200461607,
,,,,,,,,,,,,,,,,5,8.65,9.325,10,10.675,11.35,0.675,0.275,0.4,3.1,10,match,36.05,312,336,361,385,409,9,9,9,9,9,,,,,,,1,0,1,0,0,44,44,33,,,,,,,,,,,,num_4,1.1747793999966234,num_4,0.25,0.9,0.35,0.9,13.37193,34.38495,return,3.7320914999581873,,,,,,,,,,,,,,,,,711,23,female,up_down_width,2024-05-29_14h39.08.677,exp1,2023.1.0,60.00085200461607,
,,,,,,,,,,,,,,,,4,8.9,9.633333333333333,10.366666666666667,11.1,0,0.7333333333333333,0.18333333333333326,0.55,2.75,10,match,36.05,321,347,374,400,0,9,9,9,9,0,,,,,,,1,0,1,0,0,45,45,1,,,,,,,,,,,,num_3,0.8944863000651821,num_3,0.5,1.1,0.5,1.2,19.10275,45.8466,return,4.232593199936673,,,,,,,,,,,,,,,,,711,23,female,up_down_width,2024-05-29_14h39.08.677,exp1,2023.1.0,60.00085200461607,
,,,,,,,,,,,,,,,,3,9.3,10,10.7,0,0,0.7,0.44999999999999996,0.25,1.65,10,initial,36.05,335,361,386,0,0,9,9,9,0,0,,,,,,,1,0,1,0,0,46,46,7,,,,,,,,,,,,num_3,0.8615734000923112,num_3,0.35,0.6,0.25,0.6,9.55138,22.9233,return,6.906042699934915,,,,,,,,,,,,,,,,,711,23,female,up_down_width,2024-05-29_14h39.08.677,exp1,2023.1.0,60.00085200461607,
,,,,,,,,,,,,,,,,4,9.1,9.7,10.3,10.9,0,0.5999999999999999,0.3499999999999999,0.25,2.05,10,match,36.05,328,350,371,393,0,9,9,9,9,0,,,,,,,1,0,1,0,0,47,47,14,,,,,,,,,,,,num_4,1.015326000051573,num_4,0.3,1.1,0.25,0.6,9.55138,22.9233,return,4.4769635000266135,,,,,,,,,,,,,,,,,711,23,female,up_down_width,2024-05-29_14h39.08.677,exp1,2023.1.0,60.00085200461607,
,,,,,,,,,,,,,,,,4,8.95,9.65,10.35,11.05,0,0.7,0.44999999999999996,0.25,2.3499999999999996,10,initial,36.05,323,348,373,398,0,9,9,9,9,0,,,,,,,1,0,1,0,0,48,48,24,,,,,,,,,,,,num_4,1.292137200012803,num_4,0.35,0.8,0.15000000000000002,0.7,5.73083,26.74385,return,3.0474472999339923,,,,,,,,,,,,,,,,,711,23,female,up_down_width,2024-05-29_14h39.08.677,exp1,2023.1.0,60.00085200461607,
,,,,,,,,,,,,,,,,3,8.2,10,11.8,0,0,1.8,1.25,0.55,4.15,10,match,36.05,296,361,425,0,0,9,9,9,0,0,,,,,,,1,0,1,0,0,49,49,47,,,,,,,,,,,,num_3,1.085251999902539,num_3,0.2,1,0.5499999999999999,1.1,21.01303,42.02605,return,2.7168819999787956,,,,,,,,,,,,,,,,,711,23,female,up_down_width,2024-05-29_14h39.08.677,exp1,2023.1.0,60.00085200461607,
,,,,,,,,,,,,,,,,5,8.95,9.475,10,10.525,11.05,0.525,0.125,0.4,2.5,10,match,36.05,323,342,361,379,398,9,9,9,9,9,,,,,,,1,0,1,0,0,50,50,27,,,,,,,,,,,,num_4,1.6173629000550136,num_4,0.5,1.3,0.4,0.9,15.2822,34.38495,return,3.946204900043085,,,,,,,,,,,,,,,,,711,23,female,up_down_width,2024-05-29_14h39.08.677,exp1,2023.1.0,60.00085200461607,
,,,,,,,,,,,,,,,,5,8.2,9.1,10,10.9,11.8,0.9,0.65,0.25,3.85,10,initial,36.05,296,328,361,393,425,9,9,9,9,9,,,,,,,1,0,1,0,0,51,51,48,,,,,,,,,,,,num_5,1.1409215000458062,num_5,0.45,0.8,0.20000000000000007,0.65,7.6411,24.83358,return,3.0144416000694036,,,,,,,,,,,,,,,,,711,23,female,up_down_width,2024-05-29_14h39.08.677,exp1,2023.1.0,60.00085200461607,
,,,,,,,,,,,,,,,,,,,,,,,,,,,,,,,,,,,,,,,,,,,,,1,0,1,0,,,,,,,,,,,,,,,,,,,,,,,,,,,,,1191.479156699963,1191.479156699963,1191.479156699963,,,,,,,,,,,,711,23,female,up_down_width,2024-05-29_14h39.08.677,exp1,2023.1.0,60.00085200461607,
,,,,,,,,,,,,,,,,3,9.1,10,10.9,0,0,0.9,0.35,0.55,2.35,10,initial,36.05,328,361,393,0,0,9,9,9,0,0,,,,,,,2,0,2,0,0,0,0,11,,,,,,,,,,,,num_3,1.2605838999152184,num_3,0.4,0.8,0.55,0.9,21.01303,34.38495,return,2.2974119000136852,,,,,,,,,,,,,,,,,711,23,female,up_down_width,2024-05-29_14h39.08.677,exp1,2023.1.0,60.00085200461607,
,,,,,,,,,,,,,,,,4,8.95,9.65,10.35,11.05,0,0.7,0.29999999999999993,0.4,2.5,10,initial,36.05,323,348,373,398,0,9,9,9,9,0,,,,,,,2,0,2,0,0,1,1,26,,,,,,,,,,,,num_3,0.9771033000433818,num_3,0.3,0.7,0.35,0.9,13.37193,34.38495,return,2.9618470000568777,,,,,,,,,,,,,,,,,711,23,female,up_down_width,2024-05-29_14h39.08.677,exp1,2023.1.0,60.00085200461607,
,,,,,,,,,,,,,,,,4,9.1,9.7,10.3,10.9,0,0.5999999999999999,0.3499999999999999,0.25,2.05,10,match,36.05,328,350,371,393,0,9,9,9,9,0,,,,,,,2,0,2,0,0,2,2,14,,,,,,,,,,,,num_3,0.8992792000062764,num_3,0.3,0.5,0.25,0.7,9.55138,26.74385,return,3.8683865999337286,,,,,,,,,,,,,,,,,711,23,female,up_down_width,2024-05-29_14h39.08.677,exp1,2023.1.0,60.00085200461607,
,,,,,,,,,,,,,,,,4,8.9,9.633333333333333,10.366666666666667,11.1,0,0.7333333333333334,0.4833333333333334,0.25,2.45,10,match,36.05,321,347,374,400,0,9,9,9,9,0,,,,,,,2,0,2,0,0,3,3,3,,,,,,,,,,,,num_4,1.2673973001074046,num_4,0.35,0.9,0.25,0.8,9.55138,30.5644,return,3.278337400057353,,,,,,,,,,,,,,,,,711,23,female,up_down_width,2024-05-29_14h39.08.677,exp1,2023.1.0,60.00085200461607,
,,,,,,,,,,,,,,,,5,8.6,9.3,10,10.7,11.4,0.7,0.29999999999999993,0.4,3.1999999999999997,10,initial,36.05,310,335,361,386,411,9,9,9,9,9,,,,,,,2,0,2,0,0,4,4,44,,,,,,,,,,,,num_5,1.0083469999954104,num_5,0.55,1.2,0.35000000000000003,0.8,13.37193,30.5644,return,6.215090100071393,,,,,,,,,,,,,,,,,711,23,female,up_down_width,2024-05-29_14h39.08.677,exp1,2023.1.0,60.00085200461607,
,,,,,,,,,,,,,,,,3,8.6,10,11.4,0,0,1.4,1.15,0.25,3.05,10,match,36.05,310,361,411,0,0,9,9,9,0,0,,,,,,,2,0,2,0,0,5,5,43,,,,,,,,,,,,num_3,0.7852885000174865,num_3,0.3,0.7,0.15000000000000002,1.2,5.73083,45.8466,return,3.068912500049919,,,,,,,,,,,,,,,,,711,23,female,up_down_width,2024-05-29_14h39.08.677,exp1,2023.1.0,60.00085200461607,
,,,,,,,,,,,,,,,,3,8.9,10,11.1,0,0,1.1,0.7000000000000001,0.4,2.6000000000000005,10,initial,36.05,321,361,400,0,0,9,9,9,0,0,,,,,,,2,0,2,0,0,6,6,4,,,,,,,,,,,,num_3,0.9310336000053212,num_3,0.25,0.8,0.25,0.95,9.55138,36.29523,return,2.856813400052488,,,,,,,,,,,,,,,,,711,23,female,up_down_width,2024-05-29_14h39.08.677,exp1,2023.1.0,60.00085200461607,
,,,,,,,,,,,,,,,,4,8.65,9.55,10.45,11.35,0,0.9,0.5,0.4,3.1,10,initial,36.05,312,344,377,409,0,9,9,9,9,0,,,,,,,2,0,2,0,0,7,7,32,,,,,,,,,,,,num_3,0.7492259000428021,num_3,0.25,0.8,0.39999999999999997,0.9,15.2822,34.38495,return,2.8739997999509797,,,,,,,,,,,,,,,,,711,23,female,up_down_width,2024-05-29_14h39.08.677,exp1,2023.1.0,60.00085200461607,
,,,,,,,,,,,,,,,,3,8.2,10,11.8,0,0,1.8,1.55,0.25,3.85,10,match,36.05,296,361,425,0,0,9,9,9,0,0,,,,,,,2,0,2,0,0,8,8,49,,,,,,,,,,,,num_3,0.9754242999479175,num_3,0.25,1.3,0.10000000000000002,1.55,3.82055,59.21853,return,2.422832600073889,,,,,,,,,,,,,,,,,711,23,female,up_down_width,2024-05-29_14h39.08.677,exp1,2023.1.0,60.00085200461607,
,,,,,,,,,,,,,,,,5,8.6,9.3,10,10.7,11.4,0.7,0.44999999999999996,0.25,3.05,10,initial,36.05,310,335,361,386,411,9,9,9,9,9,,,,,,,2,0,2,0,0,9,9,42,,,,,,,,,,,,num_4,0.9843746999977157,num_4,0.5,1.0,0.25000000000000006,1.1,9.55138,42.02605,return,4.330154999974184,,,,,,,,,,,,,,,,,711,23,female,up_down_width,2024-05-29_14h39.08.677,exp1,2023.1.0,60.00085200461607,
,,,,,,,,,,,,,,,,4,8.95,9.65,10.35,11.05,0,0.7,0.44999999999999996,0.25,2.3499999999999996,10,initial,36.05,323,348,373,398,0,9,9,9,9,0,,,,,,,2,0,2,0,0,10,10,24,,,,,,,,,,,,num_4,1.11451169999782,num_4,0.35,1.1,0.2,1.1,7.6411,42.02605,return,3.3240755000151694,,,,,,,,,,,,,,,,,711,23,female,up_down_width,2024-05-29_14h39.08.677,exp1,2023.1.0,60.00085200461607,
,,,,,,,,,,,,,,,,5,8.65,9.325,10,10.675,11.35,0.675,0.125,0.55,3.25,10,match,36.05,312,336,361,385,409,9,9,9,9,9,,,,,,,2,0,2,0,0,11,11,29,,,,,,,,,,,,num_4,0.944793300004676,num_4,0.3,0.8,0.5499999999999999,0.7,21.01303,26.74385,return,7.354092499939725,,,,,,,,,,,,,,,,,711,23,female,up_down_width,2024-05-29_14h39.08.677,exp1,2023.1.0,60.00085200461607,
,,,,,,,,,,,,,,,,4,8.825,9.608333333333333,10.391666666666667,11.175,0,0.7833333333333333,0.5333333333333333,0.25,2.6,10,match,36.05,318,346,375,403,0,9,9,9,9,0,,,,,,,2,0,2,0,0,12,12,5,,,,,,,,,,,,num_4,0.9515243000350893,num_4,0.45,0.9,0.25000000000000006,1.0,9.55138,38.2055,return,2.543153899954632,,,,,,,,,,,,,,,,,711,23,female,up_down_width,2024-05-29_14h39.08.677,exp1,2023.1.0,60.00085200461607,
,,,,,,,,,,,,,,,,3,9.1,10,10.9,0,0,0.9,0.5,0.4,2.2,10,initial,36.05,328,361,393,0,0,9,9,9,0,0,,,,,,,2,0,2,0,0,13,13,15,,,,,,,,,,,,num_3,0.8934143999358639,num_3,0.45,0.9,0.4,0.95,15.2822,36.29523,return,2.421437200042419,,,,,,,,,,,,,,,,,711,23,female,up_down_width,2024-05-29_14h39.08.677,exp1,2023.1.0,60.00085200461607,
,,,,,,,,,,,,,,,,4,8.9,9.633333333333333,10.366666666666667,11.1,0,0.7333333333333333,0.18333333333333326,0.55,2.75,10,match,36.05,321,347,374,400,0,9,9,9,9,0,,,,,,,2,0,2,0,0,14,14,1,,,,,,,,,,,,num_3,0.9328003999544308,num_3,0.35,1.2,0.5499999999999999,1.15,21.01303,43.93633,return,3.2302722999593243,,,,,,,,,,,,,,,,,711,23,female,up_down_width,2024-05-29_14h39.08.677,exp1,2023.1.0,60.00085200461607,
,,,,,,,,,,,,,,,,3,8.2,10,11.8,0,0,1.7999999999999998,1.4,0.4,4,10,match,36.05,296,361,425,0,0,9,9,9,0,0,,,,,,,2,0,2,0,0,15,15,51,,,,,,,,,,,,num_3,0.8159392999950796,num_3,0.55,0.8,0.35000000000000003,1.3,13.37193,49.66716,return,5.530768999946304,,,,,,,,,,,,,,,,,711,23,female,up_down_width,2024-05-29_14h39.08.677,exp1,2023.1.0,60.00085200461607,
,,,,,,,,,,,,,,,,4,8.65,9.55,10.45,11.35,0,0.9,0.65,0.25,2.95,10,initial,36.05,312,344,377,409,0,9,9,9,9,0,,,,,,,2,0,2,0,0,16,16,30,,,,,,,,,,,,num_4,0.9626899000722915,num_4,0.55,0.8,0.25000000000000006,1.2,9.55138,45.8466,return,2.6649869000539184,,,,,,,,,,,,,,,,,711,23,female,up_down_width,2024-05-29_14h39.08.677,exp1,2023.1.0,60.00085200461607,
,,,,,,,,,,,,,,,,5,8.35,9.175,10,10.825,11.65,0.825,0.575,0.25,3.55,10,match,36.05,301,331,361,390,420,9,9,9,9,9,,,,,,,2,0,2,0,0,17,17,20,,,,,,,,,,,,num_4,0.894209900056012,num_4,0.25,0.4,0.2,0.7,7.6411,26.74385,return,3.4771343999309465,,,,,,,,,,,,,,,,,711,23,female,up_down_width,2024-05-29_14h39.08.677,exp1,2023.1.0,60.00085200461607,
,,,,,,,,,,,,,,,,5,8.2,9.1,10,10.9,11.8,0.9,0.5,0.4,4,10,initial,36.05,296,328,361,393,425,9,9,9,9,9,,,,,,,2,0,2,0,0,18,18,50,,,,,,,,,,,,num_5,0.9188917999854311,num_5,0.4,1.1,0.35000000000000003,1.0,13.37193,38.2055,return,3.8195284000830725,,,,,,,,,,,,,,,,,711,23,female,up_down_width,2024-05-29_14h39.08.677,exp1,2023.1.0,60.00085200461607,
,,,,,,,,,,,,,,,,3,8.9,10,11.1,0,0,1.1,0.55,0.55,2.75,10,initial,36.05,321,361,400,0,0,9,9,9,0,0,,,,,,,2,0,2,0,0,19,19,0,,,,,,,,,,,,num_3,0.7457470999797806,num_3,0.25,0.3,0.39999999999999997,0.7,15.2822,26.74385,return,2.5974450999638066,,,,,,,,,,,,,,,,,711,23,female,up_down_width,2024-05-29_14h39.08.677,exp1,2023.1.0,60.00085200461607,
,,,,,,,,,,,,,,,,3,9.1,10,10.9,0,0,0.9,0.65,0.25,2.05,10,initial,36.05,328,361,393,0,0,9,9,9,0,0,,,,,,,2,0,2,0,0,20,20,13,,,,,,,,,,,,num_3,0.720252100029029,num_3,0.2,1,0.2,0.95,7.6411,36.29523,return,3.117452999926172,,,,,,,,,,,,,,,,,711,23,female,up_down_width,2024-05-29_14h39.08.677,exp1,2023.1.0,60.00085200461607,
,,,,,,,,,,,,,,,,5,7.8,8.9,10,11.1,12.2,1.1,0.7000000000000001,0.4,4.800000000000001,10,initial,36.05,281,321,361,400,440,9,9,9,9,9,,,,,,,2,0,2,0,0,21,21,38,,,,,,,,,,,,num_5,0.9350377999944612,num_5,0.2,0.4,0.35,0.75,13.37193,28.65413,return,3.4826937000034377,,,,,,,,,,,,,,,,,711,23,female,up_down_width,2024-05-29_14h39.08.677,exp1,2023.1.0,60.00085200461607,
,,,,,,,,,,,,,,,,3,9.3,10,10.7,0,0,0.7,0.44999999999999996,0.25,1.65,10,initial,36.05,335,361,386,0,0,9,9,9,0,0,,,,,,,2,0,2,0,0,22,22,7,,,,,,,,,,,,num_3,0.8227467000251636,num_3,0.3,0.5,0.25,0.55,9.55138,21.01303,return,1.5887805999955162,,,,,,,,,,,,,,,,,711,23,female,up_down_width,2024-05-29_14h39.08.677,exp1,2023.1.0,60.00085200461607,
,,,,,,,,,,,,,,,,3,7.800000000000001,10,12.2,0,0,2.1999999999999997,1.7999999999999998,0.4,4.8,10,match,36.05,281,361,440,0,0,9,9,9,0,0,,,,,,,2,0,2,0,0,23,23,39,,,,,,,,,,,,num_3,0.7645122000249103,num_3,0.35,0.9,0.25,1.65,9.55138,63.03908,return,5.610533999977633,,,,,,,,,,,,,,,,,711,23,female,up_down_width,2024-05-29_14h39.08.677,exp1,2023.1.0,60.00085200461607,
,,,,,,,,,,,,,,,,4,9.1,9.7,10.3,10.9,0,0.6,0.04999999999999997,0.55,2.35,10,match,36.05,328,350,371,393,0,9,9,9,9,0,,,,,,,2,0,2,0,0,24,24,12,,,,,,,,,,,,num_4,1.1352780999150127,num_4,0.3,0.3,0.44999999999999996,0.6,17.19248,22.9233,return,4.394946499960497,,,,,,,,,,,,,,,,,711,23,female,up_down_width,2024-05-29_14h39.08.677,exp1,2023.1.0,60.00085200461607,
,,,,,,,,,,,,,,,,5,8.275,9.1375,10,10.8625,11.725,0.8625,0.6125,0.25,3.7,10,match,36.05,298,329,361,392,423,9,9,9,9,9,,,,,,,2,0,2,0,0,25,25,22,,,,,,,,,,,,num_4,1.6100849999347702,num_4,0.3,0.5,0.3,1.0,11.46165,38.2055,return,3.700237900018692,,,,,,,,,,,,,,,,,711,23,female,up_down_width,2024-05-29_14h39.08.677,exp1,2023.1.0,60.00085200461607,
,,,,,,,,,,,,,,,,5,8.95,9.475,10,10.525,11.05,0.525,0.275,0.25,2.35,10,match,36.05,323,342,361,379,398,9,9,9,9,9,,,,,,,2,0,2,0,0,26,26,25,,,,,,,,,,,,num_5,1.045633599977009,num_5,0.45,0.6,0.35000000000000003,0.75,13.37193,28.65413,return,3.1093556999694556,,,,,,,,,,,,,,,,,711,23,female,up_down_width,2024-05-29_14h39.08.677,exp1,2023.1.0,60.00085200461607,
,,,,,,,,,,,,,,,,4,9.3,9.766666666666667,10.233333333333333,10.7,0,0.4666666666666667,0.21666666666666665,0.25,1.65,10,match,36.05,335,352,369,386,0,9,9,9,9,0,,,,,,,2,0,2,0,0,27,27,8,,,,,,,,,,,,num_4,1.7351482000667602,num_4,0.25,0.8,0.3,0.6,11.46165,22.9233,return,4.60523679992184,,,,,,,,,,,,,,,,,711,23,female,up_down_width,2024-05-29_14h39.08.677,exp1,2023.1.0,60.00085200461607,
,,,,,,,,,,,,,,,,4,9.3,9.766666666666667,10.233333333333333,10.7,0,0.4666666666666667,0.06666666666666665,0.4,1.8,10,match,36.05,335,352,369,386,0,9,9,9,9,0,,,,,,,2,0,2,0,0,28,28,10,,,,,,,,,,,,num_3,1.3007364999502897,num_3,0.4,0.6,0.35000000000000003,0.65,13.37193,24.83358,return,2.956732499995269,,,,,,,,,,,,,,,,,711,23,female,up_down_width,2024-05-29_14h39.08.677,exp1,2023.1.0,60.00085200461607,
,,,,,,,,,,,,,,,,5,7.8,8.9,10,11.1,12.2,1.1,0.8500000000000001,0.25,4.65,10,initial,36.05,281,321,361,400,440,9,9,9,9,9,,,,,,,2,0,2,0,0,29,29,36,,,,,,,,,,,,num_4,0.9660189000423998,num_4,0.25,0.9,0.35,1.1,13.37193,42.02605,return,2.0278062999714166,,,,,,,,,,,,,,,,,711,23,female,up_down_width,2024-05-29_14h39.08.677,exp1,2023.1.0,60.00085200461607,
,,,,,,,,,,,,,,,,3,7.8,10,12.2,0,0,2.2,1.65,0.55,4.95,10,match,36.05,281,361,440,0,0,9,9,9,0,0,,,,,,,2,0,2,0,0,30,30,35,,,,,,,,,,,,num_3,0.9121654001064599,num_3,0.5,1.3,0.55,1.55,21.01303,59.21853,return,2.901740300003439,,,,,,,,,,,,,,,,,711,23,female,up_down_width,2024-05-29_14h39.08.677,exp1,2023.1.0,60.00085200461607,
,,,,,,,,,,,,,,,,4,8.35,9.45,10.55,11.65,0,1.1,0.8500000000000001,0.25,3.5500000000000003,10,initial,36.05,301,341,380,420,0,9,9,9,9,0,,,,,,,2,0,2,0,0,31,31,19,,,,,,,,,,,,num_3,0.8702606000006199,num_3,0.4,1.3,0.30000000000000004,1.4,11.46165,53.48771,return,2.242616400006227,,,,,,,,,,,,,,,,,711,23,female,up_down_width,2024-05-29_14h39.08.677,exp1,2023.1.0,60.00085200461607,
,,,,,,,,,,,,,,,,5,8.6,9.3,10,10.7,11.4,0.7,0.1499999999999999,0.55,3.3499999999999996,10,initial,36.05,310,335,361,386,411,9,9,9,9,9,,,,,,,2,0,2,0,0,32,32,40,,,,,,,,,,,,num_4,0.8580902999965474,num_4,0.2,0.4,0.5499999999999999,0.8,21.01303,30.5644,return,3.586662199930288,,,,,,,,,,,,,,,,,711,23,female,up_down_width,2024-05-29_14h39.08.677,exp1,2023.1.0,60.00085200461607,
,,,,,,,,,,,,,,,,4,8.35,9.45,10.55,11.65,0,1.1,0.55,0.55,3.8500000000000005,10,initial,36.05,301,341,380,420,0,9,9,9,9,0,,,,,,,2,0,2,0,0,33,33,17,,,,,,,,,,,,num_4,0.7288119000149891,num_4,0.55,1.0,0.55,1.2,21.01303,45.8466,return,3.8629173999652267,,,,,,,,,,,,,,,,,711,23,female,up_down_width,2024-05-29_14h39.08.677,exp1,2023.1.0,60.00085200461607,
,,,,,,,,,,,,,,,,5,8.65,9.325,10,10.675,11.35,0.675,0.275,0.4,3.1,10,match,36.05,312,336,361,385,409,9,9,9,9,9,,,,,,,2,0,2,0,0,34,34,33,,,,,,,,,,,,num_4,0.9205404999665916,num_4,0.3,0.5,0.39999999999999997,0.8,15.2822,30.5644,return,2.477156799985096,,,,,,,,,,,,,,,,,711,23,female,up_down_width,2024-05-29_14h39.08.677,exp1,2023.1.0,60.00085200461607,
,,,,,,,,,,,,,,,,4,8.35,9.45,10.55,11.65,0,1.1,0.7000000000000001,0.4,3.7,10,initial,36.05,301,341,380,420,0,9,9,9,9,0,,,,,,,2,0,2,0,0,35,35,21,,,,,,,,,,,,num_4,0.8555432000430301,num_4,0.25,1.2,0.49999999999999994,0.9,19.10275,34.38495,return,3.8749387999996543,,,,,,,,,,,,,,,,,711,23,female,up_down_width,2024-05-29_14h39.08.677,exp1,2023.1.0,60.00085200461607,
,,,,,,,,,,,,,,,,3,8.9,10,11.1,0,0,1.1,0.8500000000000001,0.25,2.45,10,initial,36.05,321,361,400,0,0,9,9,9,0,0,,,,,,,2,0,2,0,0,36,36,2,,,,,,,,,,,,num_3,0.8006391000235453,num_3,0.2,0.5,0.2,0.75,7.6411,28.65413,return,3.1512719999300316,,,,,,,,,,,,,,,,,711,23,female,up_down_width,2024-05-29_14h39.08.677,exp1,2023.1.0,60.00085200461607,
,,,,,,,,,,,,,,,,4,8.65,9.55,10.45,11.35,0,0.9,0.35,0.55,3.25,10,initial,36.05,312,344,377,409,0,9,9,9,9,0,,,,,,,2,0,2,0,0,37,37,28,,,,,,,,,,,,num_4,0.8582938999170437,num_4,0.35,0.8,0.5499999999999999,0.9,21.01303,34.38495,return,2.0031943001085892,,,,,,,,,,,,,,,,,711,23,female,up_down_width,2024-05-29_14h39.08.677,exp1,2023.1.0,60.00085200461607,
,,,,,,,,,,,,,,,,5,8.35,9.175,10,10.825,11.65,0.8250000000000001,0.275,0.55,3.85,10,match,36.05,301,331,361,390,420,9,9,9,9,9,,,,,,,2,0,2,0,0,38,38,18,,,,,,,,,,,,num_4,0.9633056999882683,num_4,0.55,1.3,0.6500000000000001,1.0,24.83358,38.2055,return,4.107354899984784,,,,,,,,,,,,,,,,,711,23,female,up_down_width,2024-05-29_14h39.08.677,exp1,2023.1.0,60.00085200461607,
,,,,,,,,,,,,,,,,3,9.3,10,10.7,0,0,0.7,0.29999999999999993,0.4,1.8,10,initial,36.05,335,361,386,0,0,9,9,9,0,0,,,,,,,2,0,2,0,0,39,39,9,,,,,,,,,,,,num_3,0.799495100043714,num_3,0.45,0.9,0.4,0.8,15.2822,30.5644,return,2.4425381999462843,,,,,,,,,,,,,,,,,711,23,female,up_down_width,2024-05-29_14h39.08.677,exp1,2023.1.0,60.00085200461607,
,,,,,,,,,,,,,,,,3,8.525,10,11.475,0,0,1.475,1.225,0.25,3.2,10,match,36.05,307,361,414,0,0,9,9,9,0,0,,,,,,,2,0,2,0,0,40,40,45,,,,,,,,,,,,num_3,0.7687359000556171,num_3,0.4,1.2,0.20000000000000007,1.3,7.6411,49.66716,return,2.62583159992937,,,,,,,,,,,,,,,,,711,23,female,up_down_width,2024-05-29_14h39.08.677,exp1,2023.1.0,60.00085200461607,
,,,,,,,,,,,,,,,,3,8.6,10,11.4,0,0,1.4,0.85,0.55,3.35,10,match,36.05,310,361,411,0,0,9,9,9,0,0,,,,,,,2,0,2,0,0,41,41,41,,,,,,,,,,,,num_3,0.7893899999326095,num_3,0.35,0.4,0.49999999999999994,0.75,19.10275,28.65413,return,3.9498715999070555,,,,,,,,,,,,,,,,,711,23,female,up_down_width,2024-05-29_14h39.08.677,exp1,2023.1.0,60.00085200461607,
,,,,,,,,,,,,,,,,3,9.3,10,10.7,0,0,0.7,0.1499999999999999,0.55,1.95,10,initial,36.05,335,361,386,0,0,9,9,9,0,0,,,,,,,2,0,2,0,0,42,42,6,,,,,,,,,,,,num_3,0.7906884000403807,num_3,0.45,1.2,0.5,1.15,19.10275,43.93633,return,3.394921900006011,,,,,,,,,,,,,,,,,711,23,female,up_down_width,2024-05-29_14h39.08.677,exp1,2023.1.0,60.00085200461607,
,,,,,,,,,,,,,,,,5,8.95,9.475,10,10.525,11.05,0.525,0.125,0.4,2.5,10,match,36.05,323,342,361,379,398,9,9,9,9,9,,,,,,,2,0,2,0,0,43,43,27,,,,,,,,,,,,num_4,0.8477082999888808,num_4,0.2,1.2,0.3,0.7,11.46165,26.74385,return,6.853117599966936,,,,,,,,,,,,,,,,,711,23,female,up_down_width,2024-05-29_14h39.08.677,exp1,2023.1.0,60.00085200461607,
,,,,,,,,,,,,,,,,5,8.65,9.325,10,10.675,11.35,0.675,0.42500000000000004,0.25,2.95,10,match,36.05,312,336,361,385,409,9,9,9,9,9,,,,,,,2,0,2,0,0,44,44,31,,,,,,,,,,,,num_4,0.8354272999567911,num_4,0.55,1.1,0.25000000000000006,0.8,9.55138,30.5644,return,3.577426700037904,,,,,,,,,,,,,,,,,711,23,female,up_down_width,2024-05-29_14h39.08.677,exp1,2023.1.0,60.00085200461607,
,,,,,,,,,,,,,,,,4,8.95,9.65,10.35,11.05,0,0.7,0.1499999999999999,0.55,2.65,10,initial,36.05,323,348,373,398,0,9,9,9,9,0,,,,,,,2,0,2,0,0,45,45,23,,,,,,,,,,,,num_4,0.9909593999618664,num_4,0.55,0.6,0.5,0.7,19.10275,26.74385,return,3.8411503999959677,,,,,,,,,,,,,,,,,711,23,female,up_down_width,2024-05-29_14h39.08.677,exp1,2023.1.0,60.00085200461607,
,,,,,,,,,,,,,,,,3,8.2,10,11.8,0,0,1.8,1.25,0.55,4.15,10,match,36.05,296,361,425,0,0,9,9,9,0,0,,,,,,,2,0,2,0,0,46,46,47,,,,,,,,,,,,num_3,0.8640087998937815,num_3,0.35,0.9,0.44999999999999996,1.25,17.19248,47.75688,return,3.2095436999807134,,,,,,,,,,,,,,,,,711,23,female,up_down_width,2024-05-29_14h39.08.677,exp1,2023.1.0,60.00085200461607,
,,,,,,,,,,,,,,,,3,7.8,10,12.2,0,0,2.2,1.9500000000000002,0.25,4.65,10,match,36.05,281,361,440,0,0,9,9,9,0,0,,,,,,,2,0,2,0,0,47,47,37,,,,,,,,,,,,num_3,0.9214870999567211,num_3,0.25,0.6,0.2,1.25,7.6411,47.75688,return,3.6679077999433503,,,,,,,,,,,,,,,,,711,23,female,up_down_width,2024-05-29_14h39.08.677,exp1,2023.1.0,60.00085200461607,
,,,,,,,,,,,,,,,,5,8.2,9.1,10,10.9,11.8,0.9,0.35,0.55,4.15,10,initial,36.05,296,328,361,393,425,9,9,9,9,9,,,,,,,2,0,2,0,0,48,48,46,,,,,,,,,,,,num_4,0.9641018999973312,num_4,0.2,1.0,0.39999999999999997,0.9,15.2822,34.38495,return,2.729425299912691,,,,,,,,,,,,,,,,,711,23,female,up_down_width,2024-05-29_14h39.08.677,exp1,2023.1.0,60.00085200461607,
,,,,,,,,,,,,,,,,5,8.2,9.1,10,10.9,11.8,0.9,0.65,0.25,3.85,10,initial,36.05,296,328,361,393,425,9,9,9,9,9,,,,,,,2,0,2,0,0,49,49,48,,,,,,,,,,,,num_4,0.796448600012809,num_4,0.5,0.7,0.30000000000000004,0.8,11.46165,30.5644,return,3.1759689000900835,,,,,,,,,,,,,,,,,711,23,female,up_down_width,2024-05-29_14h39.08.677,exp1,2023.1.0,60.00085200461607,
,,,,,,,,,,,,,,,,5,7.8,8.9,10,11.1,12.2,1.1,0.55,0.55,4.95,10,initial,36.05,281,321,361,400,440,9,9,9,9,9,,,,,,,2,0,2,0,0,50,50,34,,,,,,,,,,,,num_4,0.7989052999764681,num_4,0.45,1.2,0.4,1.3,15.2822,49.66716,return,4.14268309995532,,,,,,,,,,,,,,,,,711,23,female,up_down_width,2024-05-29_14h39.08.677,exp1,2023.1.0,60.00085200461607,
,,,,,,,,,,,,,,,,4,9.1,9.7,10.3,10.9,0,0.6000000000000001,0.20000000000000004,0.4,2.2,10,match,36.05,328,350,371,393,0,9,9,9,9,0,,,,,,,2,0,2,0,0,51,51,16,,,,,,,,,,,,num_4,1.03603119996842,num_4,0.45,1.3,0.35000000000000003,0.9,13.37193,34.38495,return,2.044215700007044,,,,,,,,,,,,,,,,,711,23,female,up_down_width,2024-05-29_14h39.08.677,exp1,2023.1.0,60.00085200461607,
,,,,,,,,,,,,,,,,,,,,,,,,,,,,,,,,,,,,,,,,,,,,,2,0,2,0,,,,,,,,,,,,,,,,,,,,,,,,,,,,,1531.8292247999925,1531.8292247999925,1531.8292247999925,,,,,,,,,,,,711,23,female,up_down_width,2024-05-29_14h39.08.677,exp1,2023.1.0,60.00085200461607,
,,,,,,,,,,,,,,,,4,9.3,9.766666666666667,10.233333333333333,10.7,0,0.4666666666666667,0.06666666666666665,0.4,1.8,10,match,36.05,335,352,369,386,0,9,9,9,9,0,,,,,,,3,0,3,0,0,0,0,10,,,,,,,,,,,,num_3,0.9787603999720886,num_3,0.35,1,0.35,0.75,13.37193,28.65413,return,3.8115932000800967,,,,,,,,,,,,,,,,,711,23,female,up_down_width,2024-05-29_14h39.08.677,exp1,2023.1.0,60.00085200461607,
,,,,,,,,,,,,,,,,5,8.275,9.1375,10,10.8625,11.725,0.8625,0.6125,0.25,3.7,10,match,36.05,298,329,361,392,423,9,9,9,9,9,,,,,,,3,0,3,0,0,1,1,22,,,,,,,,,,,,num_4,0.8996490000281483,num_4,0.55,1.2,0.30000000000000004,0.9,11.46165,34.38495,return,2.5261531000724062,,,,,,,,,,,,,,,,,711,23,female,up_down_width,2024-05-29_14h39.08.677,exp1,2023.1.0,60.00085200461607,
,,,,,,,,,,,,,,,,5,8.95,9.475,10,10.525,11.05,0.525,0.125,0.4,2.5,10,match,36.05,323,342,361,379,398,9,9,9,9,9,,,,,,,3,0,3,0,0,2,2,27,,,,,,,,,,,,num_4,0.8659238000400364,num_4,0.2,0.4,0.35,0.7,13.37193,26.74385,return,2.0709778999444097,,,,,,,,,,,,,,,,,711,23,female,up_down_width,2024-05-29_14h39.08.677,exp1,2023.1.0,60.00085200461607,
,,,,,,,,,,,,,,,,5,8.95,9.475,10,10.525,11.05,0.525,0.275,0.25,2.35,10,match,36.05,323,342,361,379,398,9,9,9,9,9,,,,,,,3,0,3,0,0,3,3,25,,,,,,,,,,,,num_4,0.7512189999688417,num_4,0.2,0.3,0.25,0.5,9.55138,19.10275,return,2.8645690999692306,,,,,,,,,,,,,,,,,711,23,female,up_down_width,2024-05-29_14h39.08.677,exp1,2023.1.0,60.00085200461607,
,,,,,,,,,,,,,,,,4,9.1,9.7,10.3,10.9,0,0.6,0.04999999999999997,0.55,2.35,10,match,36.05,328,350,371,393,0,9,9,9,9,0,,,,,,,3,0,3,0,0,4,4,12,,,,,,,,,,,,num_4,1.4232660999987274,num_4,0.35,1.3,0.5499999999999999,0.7,21.01303,26.74385,return,4.0545491999946535,,,,,,,,,,,,,,,,,711,23,female,up_down_width,2024-05-29_14h39.08.677,exp1,2023.1.0,60.00085200461607,
,,,,,,,,,,,,,,,,3,8.2,10,11.8,0,0,1.7999999999999998,1.4,0.4,4,10,match,36.05,296,361,425,0,0,9,9,9,0,0,,,,,,,3,0,3,0,0,5,5,51,,,,,,,,,,,,num_3,1.5254578000167385,num_3,0.45,0.9,0.4,1.15,15.2822,43.93633,return,2.9289336999645457,,,,,,,,,,,,,,,,,711,23,female,up_down_width,2024-05-29_14h39.08.677,exp1,2023.1.0,60.00085200461607,
,,,,,,,,,,,,,,,,3,9.1,10,10.9,0,0,0.9,0.5,0.4,2.2,10,initial,36.05,328,361,393,0,0,9,9,9,0,0,,,,,,,3,0,3,0,0,6,6,15,,,,,,,,,,,,num_3,0.8570691000204533,num_3,0.25,0.4,0.3,0.6,11.46165,22.9233,return,5.981592600001022,,,,,,,,,,,,,,,,,711,23,female,up_down_width,2024-05-29_14h39.08.677,exp1,2023.1.0,60.00085200461607,
,,,,,,,,,,,,,,,,3,8.9,10,11.1,0,0,1.1,0.55,0.55,2.75,10,initial,36.05,321,361,400,0,0,9,9,9,0,0,,,,,,,3,0,3,0,0,7,7,0,,,,,,,,,,,,num_3,0.7589110999833792,num_3,0.35,0.8,0.49999999999999994,0.9,19.10275,34.38495,return,2.48213969997596,,,,,,,,,,,,,,,,,711,23,female,up_down_width,2024-05-29_14h39.08.677,exp1,2023.1.0,60.00085200461607,
,,,,,,,,,,,,,,,,3,9.3,10,10.7,0,0,0.7,0.44999999999999996,0.25,1.65,10,initial,36.05,335,361,386,0,0,9,9,9,0,0,,,,,,,3,0,3,0,0,8,8,7,,,,,,,,,,,,num_3,0.7848931000335142,num_3,0.2,1.3,0.25,1.4,9.55138,53.48771,return,2.7520622999873012,,,,,,,,,,,,,,,,,711,23,female,up_down_width,2024-05-29_14h39.08.677,exp1,2023.1.0,60.00085200461607,
,,,,,,,,,,,,,,,,4,8.9,9.633333333333333,10.366666666666667,11.1,0,0.7333333333333334,0.4833333333333334,0.25,2.45,10,match,36.05,321,347,374,400,0,9,9,9,9,0,,,,,,,3,0,3,0,0,9,9,3,,,,,,,,,,,,num_3,0.7319862999720499,num_3,0.4,0.7,0.20000000000000007,0.85,7.6411,32.47468,return,2.8413871999364346,,,,,,,,,,,,,,,,,711,23,female,up_down_width,2024-05-29_14h39.08.677,exp1,2023.1.0,60.00085200461607,
,,,,,,,,,,,,,,,,4,8.65,9.55,10.45,11.35,0,0.9,0.65,0.25,2.95,10,initial,36.05,312,344,377,409,0,9,9,9,9,0,,,,,,,3,0,3,0,0,10,10,30,,,,,,,,,,,,num_3,0.7413558999542147,num_3,0.25,0.9,0.25,0.95,9.55138,36.29523,return,2.498586699948646,,,,,,,,,,,,,,,,,711,23,female,up_down_width,2024-05-29_14h39.08.677,exp1,2023.1.0,60.00085200461607,
,,,,,,,,,,,,,,,,5,8.2,9.1,10,10.9,11.8,0.9,0.35,0.55,4.15,10,initial,36.05,296,328,361,393,425,9,9,9,9,9,,,,,,,3,0,3,0,0,11,11,46,,,,,,,,,,,,num_4,1.4651837999699637,num_4,0.45,1.2,0.55,0.8,21.01303,30.5644,return,3.7954501999774948,,,,,,,,,,,,,,,,,711,23,female,up_down_width,2024-05-29_14h39.08.677,exp1,2023.1.0,60.00085200461607,
,,,,,,,,,,,,,,,,4,8.95,9.65,10.35,11.05,0,0.7,0.1499999999999999,0.55,2.65,10,initial,36.05,323,348,373,398,0,9,9,9,9,0,,,,,,,3,0,3,0,0,12,12,23,,,,,,,,,,,,num_4,0.8195714000612497,num_4,0.4,0.8,0.55,0.8,21.01303,30.5644,return,1.4705943999579176,,,,,,,,,,,,,,,,,711,23,female,up_down_width,2024-05-29_14h39.08.677,exp1,2023.1.0,60.00085200461607,
,,,,,,,,,,,,,,,,5,8.2,9.1,10,10.9,11.8,0.9,0.5,0.4,4,10,initial,36.05,296,328,361,393,425,9,9,9,9,9,,,,,,,3,0,3,0,0,13,13,50,,,,,,,,,,,,num_5,0.9513724000426009,num_5,0.5,1.2,0.55,0.75,21.01303,28.65413,return,6.736822700011544,,,,,,,,,,,,,,,,,711,23,female,up_down_width,2024-05-29_14h39.08.677,exp1,2023.1.0,60.00085200461607,
,,,,,,,,,,,,,,,,3,8.9,10,11.1,0,0,1.1,0.7000000000000001,0.4,2.6000000000000005,10,initial,36.05,321,361,400,0,0,9,9,9,0,0,,,,,,,3,0,3,0,0,14,14,4,,,,,,,,,,,,num_2,0.8316675999667495,num_2,0.3,1.0,0.49999999999999994,1.2,19.10275,45.8466,return,2.263645000057295,,,,,,,,,,,,,,,,,711,23,female,up_down_width,2024-05-29_14h39.08.677,exp1,2023.1.0,60.00085200461607,
,,,,,,,,,,,,,,,,4,8.95,9.65,10.35,11.05,0,0.7,0.29999999999999993,0.4,2.5,10,initial,36.05,323,348,373,398,0,9,9,9,9,0,,,,,,,3,0,3,0,0,15,15,26,,,,,,,,,,,,num_3,0.8363043999997899,num_3,0.55,1.3,0.45,1.0,17.19248,38.2055,return,3.1027476999443024,,,,,,,,,,,,,,,,,711,23,female,up_down_width,2024-05-29_14h39.08.677,exp1,2023.1.0,60.00085200461607,
,,,,,,,,,,,,,,,,4,9.3,9.766666666666667,10.233333333333333,10.7,0,0.4666666666666667,0.21666666666666665,0.25,1.65,10,match,36.05,335,352,369,386,0,9,9,9,9,0,,,,,,,3,0,3,0,0,16,16,8,,,,,,,,,,,,num_3,0.7603088999167085,num_3,0.25,0.9,0.35,0.8,13.37193,30.5644,return,4.963117300067097,,,,,,,,,,,,,,,,,711,23,female,up_down_width,2024-05-29_14h39.08.677,exp1,2023.1.0,60.00085200461607,
,,,,,,,,,,,,,,,,3,8.6,10,11.4,0,0,1.4,1.15,0.25,3.05,10,match,36.05,310,361,411,0,0,9,9,9,0,0,,,,,,,3,0,3,0,0,17,17,43,,,,,,,,,,,,num_2,1.6354414999950677,num_2,0.4,1.0,0.20000000000000007,1.9,7.6411,72.59046,return,3.4565175999887288,,,,,,,,,,,,,,,,,711,23,female,up_down_width,2024-05-29_14h39.08.677,exp1,2023.1.0,60.00085200461607,
,,,,,,,,,,,,,,,,4,8.35,9.45,10.55,11.65,0,1.1,0.55,0.55,3.8500000000000005,10,initial,36.05,301,341,380,420,0,9,9,9,9,0,,,,,,,3,0,3,0,0,18,18,17,,,,,,,,,,,,num_3,0.7496244999347255,num_3,0.3,0.9,0.5499999999999999,1.05,21.01303,40.11578,return,2.6076033998979256,,,,,,,,,,,,,,,,,711,23,female,up_down_width,2024-05-29_14h39.08.677,exp1,2023.1.0,60.00085200461607,
,,,,,,,,,,,,,,,,3,8.2,10,11.8,0,0,1.8,1.55,0.25,3.85,10,match,36.05,296,361,425,0,0,9,9,9,0,0,,,,,,,3,0,3,0,0,19,19,49,,,,,,,,,,,,num_3,0.7397329999366775,num_3,0.55,1.3,0.20000000000000007,1.5,7.6411,57.30826,return,3.8877963999984786,,,,,,,,,,,,,,,,,711,23,female,up_down_width,2024-05-29_14h39.08.677,exp1,2023.1.0,60.00085200461607,
,,,,,,,,,,,,,,,,5,8.6,9.3,10,10.7,11.4,0.7,0.44999999999999996,0.25,3.05,10,initial,36.05,310,335,361,386,411,9,9,9,9,9,,,,,,,3,0,3,0,0,20,20,42,,,,,,,,,,,,num_4,0.9386398999486119,num_4,0.2,1.1,0.2,1.3,7.6411,49.66716,return,3.098485599970445,,,,,,,,,,,,,,,,,711,23,female,up_down_width,2024-05-29_14h39.08.677,exp1,2023.1.0,60.00085200461607,
,,,,,,,,,,,,,,,,4,9.1,9.7,10.3,10.9,0,0.5999999999999999,0.3499999999999999,0.25,2.05,10,match,36.05,328,350,371,393,0,9,9,9,9,0,,,,,,,3,0,3,0,0,21,21,14,,,,,,,,,,,,num_4,1.048562000039965,num_4,0.55,1.2,0.25000000000000006,0.8,9.55138,30.5644,return,2.869520799955353,,,,,,,,,,,,,,,,,711,23,female,up_down_width,2024-05-29_14h39.08.677,exp1,2023.1.0,60.00085200461607,
,,,,,,,,,,,,,,,,4,9.1,9.7,10.3,10.9,0,0.6000000000000001,0.20000000000000004,0.4,2.2,10,match,36.05,328,350,371,393,0,9,9,9,9,0,,,,,,,3,0,3,0,0,22,22,16,,,,,,,,,,,,num_4,1.331988099962473,num_4,0.25,0.3,0.3,0.6,11.46165,22.9233,return,2.7291746999835595,,,,,,,,,,,,,,,,,711,23,female,up_down_width,2024-05-29_14h39.08.677,exp1,2023.1.0,60.00085200461607,
,,,,,,,,,,,,,,,,5,7.8,8.9,10,11.1,12.2,1.1,0.7000000000000001,0.4,4.800000000000001,10,initial,36.05,281,321,361,400,440,9,9,9,9,9,,,,,,,3,0,3,0,0,23,23,38,,,,,,,,,,,,num_4,0.898278999957256,num_4,0.3,0.8,0.39999999999999997,1.0,15.2822,38.2055,return,1.5609783999389037,,,,,,,,,,,,,,,,,711,23,female,up_down_width,2024-05-29_14h39.08.677,exp1,2023.1.0,60.00085200461607,
,,,,,,,,,,,,,,,,3,7.8,10,12.2,0,0,2.2,1.65,0.55,4.95,10,match,36.05,281,361,440,0,0,9,9,9,0,0,,,,,,,3,0,3,0,0,24,24,35,,,,,,,,,,,,num_3,0.8949188999831676,num_3,0.45,0.7,0.5,1.2,19.10275,45.8466,return,2.8742286000633612,,,,,,,,,,,,,,,,,711,23,female,up_down_width,2024-05-29_14h39.08.677,exp1,2023.1.0,60.00085200461607,
,,,,,,,,,,,,,,,,5,8.65,9.325,10,10.675,11.35,0.675,0.275,0.4,3.1,10,match,36.05,312,336,361,385,409,9,9,9,9,9,,,,,,,3,0,3,0,0,25,25,33,,,,,,,,,,,,num_5,0.8637369000352919,num_5,0.4,0.5,0.35000000000000003,0.8,13.37193,30.5644,return,2.4428398000309244,,,,,,,,,,,,,,,,,711,23,female,up_down_width,2024-05-29_14h39.08.677,exp1,2023.1.0,60.00085200461607,
,,,,,,,,,,,,,,,,4,8.35,9.45,10.55,11.65,0,1.1,0.8500000000000001,0.25,3.5500000000000003,10,initial,36.05,301,341,380,420,0,9,9,9,9,0,,,,,,,3,0,3,0,0,26,26,19,,,,,,,,,,,,num_3,0.7801921999780461,num_3,0.25,0.9,0.15000000000000002,1.0,5.73083,38.2055,return,1.5487824999727309,,,,,,,,,,,,,,,,,711,23,female,up_down_width,2024-05-29_14h39.08.677,exp1,2023.1.0,60.00085200461607,
,,,,,,,,,,,,,,,,3,8.2,10,11.8,0,0,1.8,1.25,0.55,4.15,10,match,36.05,296,361,425,0,0,9,9,9,0,0,,,,,,,3,0,3,0,0,27,27,47,,,,,,,,,,,,num_3,0.7863302000332624,num_3,0.2,1,0.49999999999999994,0.95,19.10275,36.29523,return,2.861992699909024,,,,,,,,,,,,,,,,,711,23,female,up_down_width,2024-05-29_14h39.08.677,exp1,2023.1.0,60.00085200461607,
,,,,,,,,,,,,,,,,4,8.95,9.65,10.35,11.05,0,0.7,0.44999999999999996,0.25,2.3499999999999996,10,initial,36.05,323,348,373,398,0,9,9,9,9,0,,,,,,,3,0,3,0,0,28,28,24,,,,,,,,,,,,num_3,0.6467518999706954,num_3,0.25,0.8,0.10000000000000002,0.9,3.82055,34.38495,return,1.4033710999647155,,,,,,,,,,,,,,,,,711,23,female,up_down_width,2024-05-29_14h39.08.677,exp1,2023.1.0,60.00085200461607,
,,,,,,,,,,,,,,,,3,7.800000000000001,10,12.2,0,0,2.1999999999999997,1.7999999999999998,0.4,4.8,10,match,36.05,281,361,440,0,0,9,9,9,0,0,,,,,,,3,0,3,0,0,29,29,39,,,,,,,,,,,,num_3,0.7679982000263408,num_3,0.4,0.7,0.30000000000000004,1.55,11.46165,59.21853,return,4.730632500024512,,,,,,,,,,,,,,,,,711,23,female,up_down_width,2024-05-29_14h39.08.677,exp1,2023.1.0,60.00085200461607,
,,,,,,,,,,,,,,,,3,9.1,10,10.9,0,0,0.9,0.65,0.25,2.05,10,initial,36.05,328,361,393,0,0,9,9,9,0,0,,,,,,,3,0,3,0,0,30,30,13,,,,,,,,,,,,num_3,0.7100286999484524,num_3,0.45,0.8,0.25000000000000006,0.9,9.55138,34.38495,return,3.045131500111893,,,,,,,,,,,,,,,,,711,23,female,up_down_width,2024-05-29_14h39.08.677,exp1,2023.1.0,60.00085200461607,
,,,,,,,,,,,,,,,,4,8.65,9.55,10.45,11.35,0,0.9,0.35,0.55,3.25,10,initial,36.05,312,344,377,409,0,9,9,9,9,0,,,,,,,3,0,3,0,0,31,31,28,,,,,,,,,,,,num_3,1.3289725000504404,num_3,0.25,0.9,0.44999999999999996,1.0,17.19248,38.2055,return,3.2685723999748006,,,,,,,,,,,,,,,,,711,23,female,up_down_width,2024-05-29_14h39.08.677,exp1,2023.1.0,60.00085200461607,
,,,,,,,,,,,,,,,,4,8.65,9.55,10.45,11.35,0,0.9,0.5,0.4,3.1,10,initial,36.05,312,344,377,409,0,9,9,9,9,0,,,,,,,3,0,3,0,0,32,32,32,,,,,,,,,,,,num_4,1.1122923000948504,num_4,0.25,0.4,0.44999999999999996,1.0,17.19248,38.2055,return,3.210306500084698,,,,,,,,,,,,,,,,,711,23,female,up_down_width,2024-05-29_14h39.08.677,exp1,2023.1.0,60.00085200461607,
,,,,,,,,,,,,,,,,5,8.65,9.325,10,10.675,11.35,0.675,0.125,0.55,3.25,10,match,36.05,312,336,361,385,409,9,9,9,9,9,,,,,,,3,0,3,0,0,33,33,29,,,,,,,,,,,,num_4,1.0516348999226466,num_4,0.3,1.2,0.6,0.9,22.9233,34.38495,return,3.5041657000547275,,,,,,,,,,,,,,,,,711,23,female,up_down_width,2024-05-29_14h39.08.677,exp1,2023.1.0,60.00085200461607,
,,,,,,,,,,,,,,,,3,9.3,10,10.7,0,0,0.7,0.1499999999999999,0.55,1.95,10,initial,36.05,335,361,386,0,0,9,9,9,0,0,,,,,,,3,0,3,0,0,34,34,6,,,,,,,,,,,,num_2,0.8852261999854818,num_2,0.25,1.2,0.5499999999999999,0.9,21.01303,34.38495,return,2.7156517000403255,,,,,,,,,,,,,,,,,711,23,female,up_down_width,2024-05-29_14h39.08.677,exp1,2023.1.0,60.00085200461607,
,,,,,,,,,,,,,,,,4,8.825,9.608333333333333,10.391666666666667,11.175,0,0.7833333333333333,0.5333333333333333,0.25,2.6,10,match,36.05,318,346,375,403,0,9,9,9,9,0,,,,,,,3,0,3,0,0,35,35,5,,,,,,,,,,,,num_4,0.9937910999869928,num_4,0.25,0.3,0.39999999999999997,0.9,15.2822,34.38495,return,2.8202191999880597,,,,,,,,,,,,,,,,,711,23,female,up_down_width,2024-05-29_14h39.08.677,exp1,2023.1.0,60.00085200461607,
,,,,,,,,,,,,,,,,3,8.525,10,11.475,0,0,1.475,1.225,0.25,3.2,10,match,36.05,307,361,414,0,0,9,9,9,0,0,,,,,,,3,0,3,0,0,36,36,45,,,,,,,,,,,,num_3,1.4659552000230178,num_3,0.45,1.1,0.15000000000000008,1.25,5.73083,47.75688,return,2.5230833999812603,,,,,,,,,,,,,,,,,711,23,female,up_down_width,2024-05-29_14h39.08.677,exp1,2023.1.0,60.00085200461607,
,,,,,,,,,,,,,,,,3,9.3,10,10.7,0,0,0.7,0.29999999999999993,0.4,1.8,10,initial,36.05,335,361,386,0,0,9,9,9,0,0,,,,,,,3,0,3,0,0,37,37,9,,,,,,,,,,,,num_3,0.7781554000684991,num_3,0.5,0.8,0.25000000000000006,0.9,9.55138,34.38495,return,2.6276591999921948,,,,,,,,,,,,,,,,,711,23,female,up_down_width,2024-05-29_14h39.08.677,exp1,2023.1.0,60.00085200461607,
,,,,,,,,,,,,,,,,3,8.6,10,11.4,0,0,1.4,0.85,0.55,3.35,10,match,36.05,310,361,411,0,0,9,9,9,0,0,,,,,,,3,0,3,0,0,38,38,41,,,,,,,,,,,,num_3,0.7456985000753775,num_3,0.45,1,0.6000000000000001,1.25,22.9233,47.75688,return,2.549789599957876,,,,,,,,,,,,,,,,,711,23,female,up_down_width,2024-05-29_14h39.08.677,exp1,2023.1.0,60.00085200461607,
,,,,,,,,,,,,,,,,4,8.35,9.45,10.55,11.65,0,1.1,0.7000000000000001,0.4,3.7,10,initial,36.05,301,341,380,420,0,9,9,9,9,0,,,,,,,3,0,3,0,0,39,39,21,,,,,,,,,,,,num_4,1.0613890999229625,num_4,0.45,1.1,0.45,0.9,17.19248,34.38495,return,3.81076220003888,,,,,,,,,,,,,,,,,711,23,female,up_down_width,2024-05-29_14h39.08.677,exp1,2023.1.0,60.00085200461607,
,,,,,,,,,,,,,,,,5,8.6,9.3,10,10.7,11.4,0.7,0.29999999999999993,0.4,3.1999999999999997,10,initial,36.05,310,335,361,386,411,9,9,9,9,9,,,,,,,3,0,3,0,0,40,40,44,,,,,,,,,,,,num_5,0.9464032000396401,num_5,0.55,1.2,0.45,0.95,17.19248,36.29523,return,5.208481200039387,,,,,,,,,,,,,,,,,711,23,female,up_down_width,2024-05-29_14h39.08.677,exp1,2023.1.0,60.00085200461607,
,,,,,,,,,,,,,,,,3,9.1,10,10.9,0,0,0.9,0.35,0.55,2.35,10,initial,36.05,328,361,393,0,0,9,9,9,0,0,,,,,,,3,0,3,0,0,41,41,11,,,,,,,,,,,,num_2,1.0579207999398932,num_2,0.45,1.4,0.5,1.2,19.10275,45.8466,return,2.710607099928893,,,,,,,,,,,,,,,,,711,23,female,up_down_width,2024-05-29_14h39.08.677,exp1,2023.1.0,60.00085200461607,
,,,,,,,,,,,,,,,,5,7.8,8.9,10,11.1,12.2,1.1,0.8500000000000001,0.25,4.65,10,initial,36.05,281,321,361,400,440,9,9,9,9,9,,,,,,,3,0,3,0,0,42,42,36,,,,,,,,,,,,num_4,1.288121399935335,num_4,0.55,1.1,0.35000000000000003,0.8,13.37193,30.5644,return,3.5024702000664547,,,,,,,,,,,,,,,,,711,23,female,up_down_width,2024-05-29_14h39.08.677,exp1,2023.1.0,60.00085200461607,
,,,,,,,,,,,,,,,,3,7.8,10,12.2,0,0,2.2,1.9500000000000002,0.25,4.65,10,match,36.05,281,361,440,0,0,9,9,9,0,0,,,,,,,3,0,3,0,0,43,43,37,,,,,,,,,,,,num_3,2.096418399945833,num_3,0.3,0.8,0.2,1.1,7.6411,42.02605,return,2.3620851999148726,,,,,,,,,,,,,,,,,711,23,female,up_down_width,2024-05-29_14h39.08.677,exp1,2023.1.0,60.00085200461607,
,,,,,,,,,,,,,,,,5,8.6,9.3,10,10.7,11.4,0.7,0.1499999999999999,0.55,3.3499999999999996,10,initial,36.05,310,335,361,386,411,9,9,9,9,9,,,,,,,3,0,3,0,0,44,44,40,,,,,,,,,,,,num_4,0.8263729000464082,num_4,0.25,0.3,0.5499999999999999,0.7,21.01303,26.74385,return,3.8629911000607535,,,,,,,,,,,,,,,,,711,23,female,up_down_width,2024-05-29_14h39.08.677,exp1,2023.1.0,60.00085200461607,
,,,,,,,,,,,,,,,,5,8.65,9.325,10,10.675,11.35,0.675,0.42500000000000004,0.25,2.95,10,match,36.05,312,336,361,385,409,9,9,9,9,9,,,,,,,3,0,3,0,0,45,45,31,,,,,,,,,,,,num_4,1.280451099970378,num_4,0.25,0.6,0.2,0.7,7.6411,26.74385,return,4.8375638000434265,,,,,,,,,,,,,,,,,711,23,female,up_down_width,2024-05-29_14h39.08.677,exp1,2023.1.0,60.00085200461607,
,,,,,,,,,,,,,,,,4,8.9,9.633333333333333,10.366666666666667,11.1,0,0.7333333333333333,0.18333333333333326,0.55,2.75,10,match,36.05,321,347,374,400,0,9,9,9,9,0,,,,,,,3,0,3,0,0,46,46,1,,,,,,,,,,,,num_4,0.9160358000081033,num_4,0.35,1.1,0.44999999999999996,0.8,17.19248,30.5644,return,2.153176399995573,,,,,,,,,,,,,,,,,711,23,female,up_down_width,2024-05-29_14h39.08.677,exp1,2023.1.0,60.00085200461607,
,,,,,,,,,,,,,,,,3,8.9,10,11.1,0,0,1.1,0.8500000000000001,0.25,2.45,10,initial,36.05,321,361,400,0,0,9,9,9,0,0,,,,,,,3,0,3,0,0,47,47,2,,,,,,,,,,,,num_2,1.3701546000083908,num_2,0.45,0.6,0.25000000000000006,1.2,9.55138,45.8466,return,3.7100513000041246,,,,,,,,,,,,,,,,,711,23,female,up_down_width,2024-05-29_14h39.08.677,exp1,2023.1.0,60.00085200461607,
,,,,,,,,,,,,,,,,5,7.8,8.9,10,11.1,12.2,1.1,0.55,0.55,4.95,10,initial,36.05,281,321,361,400,440,9,9,9,9,9,,,,,,,3,0,3,0,0,48,48,34,,,,,,,,,,,,num_4,1.3746823000255972,num_4,0.2,0.8,0.49999999999999994,0.9,19.10275,34.38495,return,5.714617499965243,,,,,,,,,,,,,,,,,711,23,female,up_down_width,2024-05-29_14h39.08.677,exp1,2023.1.0,60.00085200461607,
,,,,,,,,,,,,,,,,5,8.35,9.175,10,10.825,11.65,0.825,0.575,0.25,3.55,10,match,36.05,301,331,361,390,420,9,9,9,9,9,,,,,,,3,0,3,0,0,49,49,20,,,,,,,,,,,,num_4,0.804101400077343,num_4,0.3,0.5,0.3,0.8,11.46165,30.5644,return,2.636958900024183,,,,,,,,,,,,,,,,,711,23,female,up_down_width,2024-05-29_14h39.08.677,exp1,2023.1.0,60.00085200461607,
,,,,,,,,,,,,,,,,5,8.2,9.1,10,10.9,11.8,0.9,0.65,0.25,3.85,10,initial,36.05,296,328,361,393,425,9,9,9,9,9,,,,,,,3,0,3,0,0,50,50,48,,,,,,,,,,,,num_4,0.9462332000257447,num_4,0.25,1.0,0.35,1.2,13.37193,45.8466,return,2.0113870999775827,,,,,,,,,,,,,,,,,711,23,female,up_down_width,2024-05-29_14h39.08.677,exp1,2023.1.0,60.00085200461607,
,,,,,,,,,,,,,,,,5,8.35,9.175,10,10.825,11.65,0.8250000000000001,0.275,0.55,3.85,10,match,36.05,301,331,361,390,420,9,9,9,9,9,,,,,,,3,0,3,0,0,51,51,18,,,,,,,,,,,,num_4,0.8914561000419781,num_4,0.2,0.3,0.49999999999999994,0.8,19.10275,30.5644,return,3.744411600055173,,,,,,,,,,,,,,,,,711,23,female,up_down_width,2024-05-29_14h39.08.677,exp1,2023.1.0,60.00085200461607,
,,,,,,,,,,,,,,,,,,,,,,,,,,,,,,,,,,,,,,,,,,,,,3,0,3,0,,,,,,,,,,,,,,,,,,,,,,,,,,,,,1888.179378299974,1888.179378299974,1888.179378299974,,,,,,,,,,,,711,23,female,up_down_width,2024-05-29_14h39.08.677,exp1,2023.1.0,60.00085200461607,
,,,,,,,,,,,,,,,,5,8.95,9.475,10,10.525,11.05,0.525,0.125,0.4,2.5,10,match,36.05,323,342,361,379,398,9,9,9,9,9,,,,,,,4,0,4,0,0,0,0,27,,,,,,,,,,,,num_4,0.912411900004372,num_4,0.55,0.9,0.45,0.7,17.19248,26.74385,return,3.299300399958156,,,,,,,,,,,,,,,,,711,23,female,up_down_width,2024-05-29_14h39.08.677,exp1,2023.1.0,60.00085200461607,
,,,,,,,,,,,,,,,,5,8.2,9.1,10,10.9,11.8,0.9,0.35,0.55,4.15,10,initial,36.05,296,328,361,393,425,9,9,9,9,9,,,,,,,4,0,4,0,0,1,1,46,,,,,,,,,,,,num_4,0.9894623999716714,num_4,0.35,0.5,0.44999999999999996,0.8,17.19248,30.5644,return,2.0327730000717565,,,,,,,,,,,,,,,,,711,23,female,up_down_width,2024-05-29_14h39.08.677,exp1,2023.1.0,60.00085200461607,
,,,,,,,,,,,,,,,,3,7.800000000000001,10,12.2,0,0,2.1999999999999997,1.7999999999999998,0.4,4.8,10,match,36.05,281,361,440,0,0,9,9,9,0,0,,,,,,,4,0,4,0,0,2,2,39,,,,,,,,,,,,num_3,0.8830299000255764,num_3,0.55,1.1,0.4,1.2,15.2822,45.8466,return,1.8710811999626458,,,,,,,,,,,,,,,,,711,23,female,up_down_width,2024-05-29_14h39.08.677,exp1,2023.1.0,60.00085200461607,
,,,,,,,,,,,,,,,,3,9.1,10,10.9,0,0,0.9,0.5,0.4,2.2,10,initial,36.05,328,361,393,0,0,9,9,9,0,0,,,,,,,4,0,4,0,0,3,3,15,,,,,,,,,,,,num_2,0.8281549999956042,num_2,0.55,1.4,0.4,1.5,15.2822,57.30826,return,1.444801300065592,,,,,,,,,,,,,,,,,711,23,female,up_down_width,2024-05-29_14h39.08.677,exp1,2023.1.0,60.00085200461607,
,,,,,,,,,,,,,,,,3,8.6,10,11.4,0,0,1.4,0.85,0.55,3.35,10,match,36.05,310,361,411,0,0,9,9,9,0,0,,,,,,,4,0,4,0,0,4,4,41,,,,,,,,,,,,num_3,0.6321764999302104,num_3,0.4,0.8,0.4,0.85,15.2822,32.47468,return,2.1263837999431416,,,,,,,,,,,,,,,,,711,23,female,up_down_width,2024-05-29_14h39.08.677,exp1,2023.1.0,60.00085200461607,
,,,,,,,,,,,,,,,,3,8.9,10,11.1,0,0,1.1,0.7000000000000001,0.4,2.6000000000000005,10,initial,36.05,321,361,400,0,0,9,9,9,0,0,,,,,,,4,0,4,0,0,5,5,4,,,,,,,,,,,,num_3,0.6593959999736398,num_3,0.35,0.8,0.39999999999999997,0.85,15.2822,32.47468,return,2.708263000007719,,,,,,,,,,,,,,,,,711,23,female,up_down_width,2024-05-29_14h39.08.677,exp1,2023.1.0,60.00085200461607,
,,,,,,,,,,,,,,,,4,8.35,9.45,10.55,11.65,0,1.1,0.55,0.55,3.8500000000000005,10,initial,36.05,301,341,380,420,0,9,9,9,9,0,,,,,,,4,0,4,0,0,6,6,17,,,,,,,,,,,,num_4,0.9311134000308812,num_4,0.3,0.4,0.35,0.8,13.37193,30.5644,return,2.4057696000672877,,,,,,,,,,,,,,,,,711,23,female,up_down_width,2024-05-29_14h39.08.677,exp1,2023.1.0,60.00085200461607,
,,,,,,,,,,,,,,,,5,7.8,8.9,10,11.1,12.2,1.1,0.7000000000000001,0.4,4.800000000000001,10,initial,36.05,281,321,361,400,440,9,9,9,9,9,,,,,,,4,0,4,0,0,7,7,38,,,,,,,,,,,,num_5,0.8249714999692515,num_5,0.5,1.0,0.4,0.85,15.2822,32.47468,return,3.99173490004614,,,,,,,,,,,,,,,,,711,23,female,up_down_width,2024-05-29_14h39.08.677,exp1,2023.1.0,60.00085200461607,
,,,,,,,,,,,,,,,,3,8.525,10,11.475,0,0,1.475,1.225,0.25,3.2,10,match,36.05,307,361,414,0,0,9,9,9,0,0,,,,,,,4,0,4,0,0,8,8,45,,,,,,,,,,,,num_3,0.7349294999148697,num_3,0.25,0.3,0.3,0.7,11.46165,26.74385,return,3.695127099985257,,,,,,,,,,,,,,,,,711,23,female,up_down_width,2024-05-29_14h39.08.677,exp1,2023.1.0,60.00085200461607,
,,,,,,,,,,,,,,,,3,8.9,10,11.1,0,0,1.1,0.8500000000000001,0.25,2.45,10,initial,36.05,321,361,400,0,0,9,9,9,0,0,,,,,,,4,0,4,0,0,9,9,2,,,,,,,,,,,,num_3,0.7701419999357313,num_3,0.2,0.6,0.2,0.75,7.6411,28.65413,return,2.189990699989721,,,,,,,,,,,,,,,,,711,23,female,up_down_width,2024-05-29_14h39.08.677,exp1,2023.1.0,60.00085200461607,
,,,,,,,,,,,,,,,,5,8.2,9.1,10,10.9,11.8,0.9,0.65,0.25,3.85,10,initial,36.05,296,328,361,393,425,9,9,9,9,9,,,,,,,4,0,4,0,0,10,10,48,,,,,,,,,,,,num_5,0.8886861000210047,num_5,0.45,0.7,0.25000000000000006,0.9,9.55138,34.38495,return,4.659388600033708,,,,,,,,,,,,,,,,,711,23,female,up_down_width,2024-05-29_14h39.08.677,exp1,2023.1.0,60.00085200461607,
,,,,,,,,,,,,,,,,3,8.2,10,11.8,0,0,1.8,1.55,0.25,3.85,10,match,36.05,296,361,425,0,0,9,9,9,0,0,,,,,,,4,0,4,0,0,11,11,49,,,,,,,,,,,,num_3,0.8654453000053763,num_3,0.45,0.6,0.20000000000000007,1.0,7.6411,38.2055,return,3.0813241000287235,,,,,,,,,,,,,,,,,711,23,female,up_down_width,2024-05-29_14h39.08.677,exp1,2023.1.0,60.00085200461607,
,,,,,,,,,,,,,,,,5,7.8,8.9,10,11.1,12.2,1.1,0.55,0.55,4.95,10,initial,36.05,281,321,361,400,440,9,9,9,9,9,,,,,,,4,0,4,0,0,12,12,34,,,,,,,,,,,,num_5,0.8489902999717742,num_5,0.45,1.1,0.30000000000000004,1.05,11.46165,40.11578,return,3.245487500098534,,,,,,,,,,,,,,,,,711,23,female,up_down_width,2024-05-29_14h39.08.677,exp1,2023.1.0,60.00085200461607,
,,,,,,,,,,,,,,,,3,9.1,10,10.9,0,0,0.9,0.65,0.25,2.05,10,initial,36.05,328,361,393,0,0,9,9,9,0,0,,,,,,,4,0,4,0,0,13,13,13,,,,,,,,,,,,num_3,0.7401211000978947,num_3,0.2,0.8,0.3,0.8,11.46165,30.5644,return,1.5562086999416351,,,,,,,,,,,,,,,,,711,23,female,up_down_width,2024-05-29_14h39.08.677,exp1,2023.1.0,60.00085200461607,
,,,,,,,,,,,,,,,,4,8.95,9.65,10.35,11.05,0,0.7,0.1499999999999999,0.55,2.65,10,initial,36.05,323,348,373,398,0,9,9,9,9,0,,,,,,,4,0,4,0,0,14,14,23,,,,,,,,,,,,num_4,0.7815947999479249,num_4,0.2,1.2,0.49999999999999994,0.7,19.10275,26.74385,return,4.506935800076462,,,,,,,,,,,,,,,,,711,23,female,up_down_width,2024-05-29_14h39.08.677,exp1,2023.1.0,60.00085200461607,
,,,,,,,,,,,,,,,,4,9.3,9.766666666666667,10.233333333333333,10.7,0,0.4666666666666667,0.06666666666666665,0.4,1.8,10,match,36.05,335,352,369,386,0,9,9,9,9,0,,,,,,,4,0,4,0,0,15,15,10,,,,,,,,,,,,num_4,0.8904336000559852,num_4,0.25,1.0,0.49999999999999994,0.6,19.10275,22.9233,return,9.25204119994305,,,,,,,,,,,,,,,,,711,23,female,up_down_width,2024-05-29_14h39.08.677,exp1,2023.1.0,60.00085200461607,
,,,,,,,,,,,,,,,,4,9.1,9.7,10.3,10.9,0,0.5999999999999999,0.3499999999999999,0.25,2.05,10,match,36.05,328,350,371,393,0,9,9,9,9,0,,,,,,,4,0,4,0,0,16,16,14,,,,,,,,,,,,num_4,0.8325653000501916,num_4,0.55,0.9,0.30000000000000004,0.4,11.46165,15.2822,return,6.140332699986175,,,,,,,,,,,,,,,,,711,23,female,up_down_width,2024-05-29_14h39.08.677,exp1,2023.1.0,60.00085200461607,
,,,,,,,,,,,,,,,,5,8.95,9.475,10,10.525,11.05,0.525,0.275,0.25,2.35,10,match,36.05,323,342,361,379,398,9,9,9,9,9,,,,,,,4,0,4,0,0,17,17,25,,,,,,,,,,,,num_4,0.9297699000453576,num_4,0.4,0.9,0.30000000000000004,0.7,11.46165,26.74385,return,4.81088520004414,,,,,,,,,,,,,,,,,711,23,female,up_down_width,2024-05-29_14h39.08.677,exp1,2023.1.0,60.00085200461607,
,,,,,,,,,,,,,,,,5,8.35,9.175,10,10.825,11.65,0.8250000000000001,0.275,0.55,3.85,10,match,36.05,301,331,361,390,420,9,9,9,9,9,,,,,,,4,0,4,0,0,18,18,18,,,,,,,,,,,,num_4,1.48090319999028,num_4,0.4,0.8,0.5,0.7,19.10275,26.74385,return,2.2042142999125645,,,,,,,,,,,,,,,,,711,23,female,up_down_width,2024-05-29_14h39.08.677,exp1,2023.1.0,60.00085200461607,
,,,,,,,,,,,,,,,,4,8.65,9.55,10.45,11.35,0,0.9,0.5,0.4,3.1,10,initial,36.05,312,344,377,409,0,9,9,9,9,0,,,,,,,4,0,4,0,0,19,19,32,,,,,,,,,,,,num_4,0.8229058000724763,num_4,0.2,0.8,0.35,0.8,13.37193,30.5644,return,2.6574003000278026,,,,,,,,,,,,,,,,,711,23,female,up_down_width,2024-05-29_14h39.08.677,exp1,2023.1.0,60.00085200461607,
,,,,,,,,,,,,,,,,4,8.35,9.45,10.55,11.65,0,1.1,0.7000000000000001,0.4,3.7,10,initial,36.05,301,341,380,420,0,9,9,9,9,0,,,,,,,4,0,4,0,0,20,20,21,,,,,,,,,,,,num_4,0.8016157998936251,num_4,0.55,1.1,0.45,0.9,17.19248,34.38495,return,3.92030200001318,,,,,,,,,,,,,,,,,711,23,female,up_down_width,2024-05-29_14h39.08.677,exp1,2023.1.0,60.00085200461607,
,,,,,,,,,,,,,,,,3,8.6,10,11.4,0,0,1.4,1.15,0.25,3.05,10,match,36.05,310,361,411,0,0,9,9,9,0,0,,,,,,,4,0,4,0,0,21,21,43,,,,,,,,,,,,num_3,1.4564326999243349,num_3,0.5,1,0.20000000000000007,1.05,7.6411,40.11578,return,2.9178809999721125,,,,,,,,,,,,,,,,,711,23,female,up_down_width,2024-05-29_14h39.08.677,exp1,2023.1.0,60.00085200461607,
,,,,,,,,,,,,,,,,3,9.3,10,10.7,0,0,0.7,0.1499999999999999,0.55,1.95,10,initial,36.05,335,361,386,0,0,9,9,9,0,0,,,,,,,4,0,4,0,0,22,22,6,,,,,,,,,,,,num_2,0.7107585000339895,num_2,0.35,0.6,0.6,0.8,22.9233,30.5644,return,2.2499907999299467,,,,,,,,,,,,,,,,,711,23,female,up_down_width,2024-05-29_14h39.08.677,exp1,2023.1.0,60.00085200461607,
,,,,,,,,,,,,,,,,3,8.2,10,11.8,0,0,1.7999999999999998,1.4,0.4,4,10,match,36.05,296,361,425,0,0,9,9,9,0,0,,,,,,,4,0,4,0,0,23,23,51,,,,,,,,,,,,num_2,1.1213800000259653,num_2,0.2,0.4,0.65,2.3,24.83358,87.87266,return,6.562950200052001,,,,,,,,,,,,,,,,,711,23,female,up_down_width,2024-05-29_14h39.08.677,exp1,2023.1.0,60.00085200461607,
,,,,,,,,,,,,,,,,5,8.65,9.325,10,10.675,11.35,0.675,0.275,0.4,3.1,10,match,36.05,312,336,361,385,409,9,9,9,9,9,,,,,,,4,0,4,0,0,24,24,33,,,,,,,,,,,,num_4,1.156123899971135,num_4,0.55,1.3,0.45,0.8,17.19248,30.5644,return,3.412763000000268,,,,,,,,,,,,,,,,,711,23,female,up_down_width,2024-05-29_14h39.08.677,exp1,2023.1.0,60.00085200461607,
,,,,,,,,,,,,,,,,4,9.1,9.7,10.3,10.9,0,0.6,0.04999999999999997,0.55,2.35,10,match,36.05,328,350,371,393,0,9,9,9,9,0,,,,,,,4,0,4,0,0,25,25,12,,,,,,,,,,,,num_4,1.9247015999862924,num_4,0.4,0.8,0.5,0.6,19.10275,22.9233,return,5.76835539995227,,,,,,,,,,,,,,,,,711,23,female,up_down_width,2024-05-29_14h39.08.677,exp1,2023.1.0,60.00085200461607,
,,,,,,,,,,,,,,,,3,9.1,10,10.9,0,0,0.9,0.35,0.55,2.35,10,initial,36.05,328,361,393,0,0,9,9,9,0,0,,,,,,,4,0,4,0,0,26,26,11,,,,,,,,,,,,num_2,1.1294020999921486,num_2,0.55,1.4,0.55,0.9,21.01303,34.38495,return,3.356406999984756,,,,,,,,,,,,,,,,,711,23,female,up_down_width,2024-05-29_14h39.08.677,exp1,2023.1.0,60.00085200461607,
,,,,,,,,,,,,,,,,3,9.3,10,10.7,0,0,0.7,0.29999999999999993,0.4,1.8,10,initial,36.05,335,361,386,0,0,9,9,9,0,0,,,,,,,4,0,4,0,0,27,27,9,,,,,,,,,,,,num_3,0.8948547000763938,num_3,0.25,1,0.39999999999999997,0.65,15.2822,24.83358,return,3.8339976998977363,,,,,,,,,,,,,,,,,711,23,female,up_down_width,2024-05-29_14h39.08.677,exp1,2023.1.0,60.00085200461607,
,,,,,,,,,,,,,,,,5,8.6,9.3,10,10.7,11.4,0.7,0.1499999999999999,0.55,3.3499999999999996,10,initial,36.05,310,335,361,386,411,9,9,9,9,9,,,,,,,4,0,4,0,0,28,28,40,,,,,,,,,,,,num_4,0.9633134000468999,num_4,0.3,1.0,0.35,0.6,13.37193,22.9233,return,9.210920199984685,,,,,,,,,,,,,,,,,711,23,female,up_down_width,2024-05-29_14h39.08.677,exp1,2023.1.0,60.00085200461607,
,,,,,,,,,,,,,,,,5,7.8,8.9,10,11.1,12.2,1.1,0.8500000000000001,0.25,4.65,10,initial,36.05,281,321,361,400,440,9,9,9,9,9,,,,,,,4,0,4,0,0,29,29,36,,,,,,,,,,,,num_4,0.8178049999987707,num_4,0.35,0.8,0.25,1.2,9.55138,45.8466,return,2.9908692999742925,,,,,,,,,,,,,,,,,711,23,female,up_down_width,2024-05-29_14h39.08.677,exp1,2023.1.0,60.00085200461607,
,,,,,,,,,,,,,,,,5,8.65,9.325,10,10.675,11.35,0.675,0.125,0.55,3.25,10,match,36.05,312,336,361,385,409,9,9,9,9,9,,,,,,,4,0,4,0,0,30,30,29,,,,,,,,,,,,num_4,0.8623552999924868,num_4,0.4,0.6,0.6000000000000001,0.9,22.9233,34.38495,return,4.987810000078753,,,,,,,,,,,,,,,,,711,23,female,up_down_width,2024-05-29_14h39.08.677,exp1,2023.1.0,60.00085200461607,
,,,,,,,,,,,,,,,,5,8.35,9.175,10,10.825,11.65,0.825,0.575,0.25,3.55,10,match,36.05,301,331,361,390,420,9,9,9,9,9,,,,,,,4,0,4,0,0,31,31,20,,,,,,,,,,,,num_5,0.8858643000712618,num_5,0.25,1.0,0.2,0.9,7.6411,34.38495,return,2.2878974000923336,,,,,,,,,,,,,,,,,711,23,female,up_down_width,2024-05-29_14h39.08.677,exp1,2023.1.0,60.00085200461607,
,,,,,,,,,,,,,,,,4,8.9,9.633333333333333,10.366666666666667,11.1,0,0.7333333333333333,0.18333333333333326,0.55,2.75,10,match,36.05,321,347,374,400,0,9,9,9,9,0,,,,,,,4,0,4,0,0,32,32,1,,,,,,,,,,,,num_3,1.0510987000307068,num_3,0.25,0.9,0.5499999999999999,0.95,21.01303,36.29523,return,3.2959015000378713,,,,,,,,,,,,,,,,,711,23,female,up_down_width,2024-05-29_14h39.08.677,exp1,2023.1.0,60.00085200461607,
,,,,,,,,,,,,,,,,3,8.2,10,11.8,0,0,1.8,1.25,0.55,4.15,10,match,36.05,296,361,425,0,0,9,9,9,0,0,,,,,,,4,0,4,0,0,33,33,47,,,,,,,,,,,,num_3,0.8947428000392392,num_3,0.25,1.3,0.5499999999999999,1.05,21.01303,40.11578,return,3.467847299994901,,,,,,,,,,,,,,,,,711,23,female,up_down_width,2024-05-29_14h39.08.677,exp1,2023.1.0,60.00085200461607,
,,,,,,,,,,,,,,,,3,7.8,10,12.2,0,0,2.2,1.9500000000000002,0.25,4.65,10,match,36.05,281,361,440,0,0,9,9,9,0,0,,,,,,,4,0,4,0,0,34,34,37,,,,,,,,,,,,num_3,0.6648869999917224,num_3,0.4,1,0.30000000000000004,1.4,11.46165,53.48771,return,5.645542299957015,,,,,,,,,,,,,,,,,711,23,female,up_down_width,2024-05-29_14h39.08.677,exp1,2023.1.0,60.00085200461607,
,,,,,,,,,,,,,,,,5,8.2,9.1,10,10.9,11.8,0.9,0.5,0.4,4,10,initial,36.05,296,328,361,393,425,9,9,9,9,9,,,,,,,4,0,4,0,0,35,35,50,,,,,,,,,,,,num_4,1.1510326999705285,num_4,0.45,1.2,0.4,0.9,15.2822,34.38495,return,3.39224119996652,,,,,,,,,,,,,,,,,711,23,female,up_down_width,2024-05-29_14h39.08.677,exp1,2023.1.0,60.00085200461607,
,,,,,,,,,,,,,,,,5,8.65,9.325,10,10.675,11.35,0.675,0.42500000000000004,0.25,2.95,10,match,36.05,312,336,361,385,409,9,9,9,9,9,,,,,,,4,0,4,0,0,36,36,31,,,,,,,,,,,,num_5,0.8372462999541312,num_5,0.35,0.8,0.2,0.65,7.6411,24.83358,return,3.908151000039652,,,,,,,,,,,,,,,,,711,23,female,up_down_width,2024-05-29_14h39.08.677,exp1,2023.1.0,60.00085200461607,
,,,,,,,,,,,,,,,,3,9.3,10,10.7,0,0,0.7,0.44999999999999996,0.25,1.65,10,initial,36.05,335,361,386,0,0,9,9,9,0,0,,,,,,,4,0,4,0,0,37,37,7,,,,,,,,,,,,num_2,0.8479172999504954,num_2,0.5,0.8,0.30000000000000004,0.5,11.46165,19.10275,return,3.356474799918942,,,,,,,,,,,,,,,,,711,23,female,up_down_width,2024-05-29_14h39.08.677,exp1,2023.1.0,60.00085200461607,
,,,,,,,,,,,,,,,,5,8.6,9.3,10,10.7,11.4,0.7,0.44999999999999996,0.25,3.05,10,initial,36.05,310,335,361,386,411,9,9,9,9,9,,,,,,,4,0,4,0,0,38,38,42,,,,,,,,,,,,num_4,0.8829252000432462,num_4,0.5,1.0,0.25000000000000006,0.6,9.55138,22.9233,return,2.8789515999378636,,,,,,,,,,,,,,,,,711,23,female,up_down_width,2024-05-29_14h39.08.677,exp1,2023.1.0,60.00085200461607,
,,,,,,,,,,,,,,,,5,8.275,9.1375,10,10.8625,11.725,0.8625,0.6125,0.25,3.7,10,match,36.05,298,329,361,392,423,9,9,9,9,9,,,,,,,4,0,4,0,0,39,39,22,,,,,,,,,,,,num_5,0.8687670000363141,num_5,0.35,0.6,0.25,0.6,9.55138,22.9233,return,3.041414799983613,,,,,,,,,,,,,,,,,711,23,female,up_down_width,2024-05-29_14h39.08.677,exp1,2023.1.0,60.00085200461607,
,,,,,,,,,,,,,,,,4,8.825,9.608333333333333,10.391666666666667,11.175,0,0.7833333333333333,0.5333333333333333,0.25,2.6,10,match,36.05,318,346,375,403,0,9,9,9,9,0,,,,,,,4,0,4,0,0,40,40,5,,,,,,,,,,,,num_4,1.4284543000394478,num_4,0.4,1.0,0.25000000000000006,0.6,9.55138,22.9233,return,2.5065544999670237,,,,,,,,,,,,,,,,,711,23,female,up_down_width,2024-05-29_14h39.08.677,exp1,2023.1.0,60.00085200461607,
,,,,,,,,,,,,,,,,4,8.95,9.65,10.35,11.05,0,0.7,0.29999999999999993,0.4,2.5,10,initial,36.05,323,348,373,398,0,9,9,9,9,0,,,,,,,4,0,4,0,0,41,41,26,,,,,,,,,,,,num_4,0.8189394000219181,num_4,0.5,0.9,0.35000000000000003,0.6,13.37193,22.9233,return,3.472472000052221,,,,,,,,,,,,,,,,,711,23,female,up_down_width,2024-05-29_14h39.08.677,exp1,2023.1.0,60.00085200461607,
,,,,,,,,,,,,,,,,4,8.35,9.45,10.55,11.65,0,1.1,0.8500000000000001,0.25,3.5500000000000003,10,initial,36.05,301,341,380,420,0,9,9,9,9,0,,,,,,,4,0,4,0,0,42,42,19,,,,,,,,,,,,num_3,1.1354430000064895,num_3,0.2,1.2,0.35,1.05,13.37193,40.11578,return,3.4245062000118196,,,,,,,,,,,,,,,,,711,23,female,up_down_width,2024-05-29_14h39.08.677,exp1,2023.1.0,60.00085200461607,
,,,,,,,,,,,,,,,,4,9.1,9.7,10.3,10.9,0,0.6000000000000001,0.20000000000000004,0.4,2.2,10,match,36.05,328,350,371,393,0,9,9,9,9,0,,,,,,,4,0,4,0,0,43,43,16,,,,,,,,,,,,num_3,0.9930182000389323,num_3,0.35,1.3,0.49999999999999994,1.05,19.10275,40.11578,return,3.143675100058317,,,,,,,,,,,,,,,,,711,23,female,up_down_width,2024-05-29_14h39.08.677,exp1,2023.1.0,60.00085200461607,
,,,,,,,,,,,,,,,,5,8.6,9.3,10,10.7,11.4,0.7,0.29999999999999993,0.4,3.1999999999999997,10,initial,36.05,310,335,361,386,411,9,9,9,9,9,,,,,,,4,0,4,0,0,44,44,44,,,,,,,,,,,,num_5,0.8593024000292644,num_5,0.25,0.6,0.35,0.65,13.37193,24.83358,return,2.184828000026755,,,,,,,,,,,,,,,,,711,23,female,up_down_width,2024-05-29_14h39.08.677,exp1,2023.1.0,60.00085200461607,
,,,,,,,,,,,,,,,,4,8.65,9.55,10.45,11.35,0,0.9,0.65,0.25,2.95,10,initial,36.05,312,344,377,409,0,9,9,9,9,0,,,,,,,4,0,4,0,0,45,45,30,,,,,,,,,,,,num_3,0.711894900072366,num_3,0.2,0.7,0.15000000000000002,0.85,5.73083,32.47468,return,2.7946145000169054,,,,,,,,,,,,,,,,,711,23,female,up_down_width,2024-05-29_14h39.08.677,exp1,2023.1.0,60.00085200461607,
,,,,,,,,,,,,,,,,4,8.9,9.633333333333333,10.366666666666667,11.1,0,0.7333333333333334,0.4833333333333334,0.25,2.45,10,match,36.05,321,347,374,400,0,9,9,9,9,0,,,,,,,4,0,4,0,0,46,46,3,,,,,,,,,,,,num_4,0.9299820000305772,num_4,0.2,0.7,0.2,0.9,7.6411,34.38495,return,2.0924112000502646,,,,,,,,,,,,,,,,,711,23,female,up_down_width,2024-05-29_14h39.08.677,exp1,2023.1.0,60.00085200461607,
,,,,,,,,,,,,,,,,4,8.95,9.65,10.35,11.05,0,0.7,0.44999999999999996,0.25,2.3499999999999996,10,initial,36.05,323,348,373,398,0,9,9,9,9,0,,,,,,,4,0,4,0,0,47,47,24,,,,,,,,,,,,num_4,0.8917375999735668,num_4,0.3,1.2,0.2,0.9,7.6411,34.38495,return,1.862252700026147,,,,,,,,,,,,,,,,,711,23,female,up_down_width,2024-05-29_14h39.08.677,exp1,2023.1.0,60.00085200461607,
,,,,,,,,,,,,,,,,4,8.65,9.55,10.45,11.35,0,0.9,0.35,0.55,3.25,10,initial,36.05,312,344,377,409,0,9,9,9,9,0,,,,,,,4,0,4,0,0,48,48,28,,,,,,,,,,,,num_4,1.1349806999787688,num_4,0.35,1.3,0.5499999999999999,1.0,21.01303,38.2055,return,2.4807137000607327,,,,,,,,,,,,,,,,,711,23,female,up_down_width,2024-05-29_14h39.08.677,exp1,2023.1.0,60.00085200461607,
,,,,,,,,,,,,,,,,3,7.8,10,12.2,0,0,2.2,1.65,0.55,4.95,10,match,36.05,281,361,440,0,0,9,9,9,0,0,,,,,,,4,0,4,0,0,49,49,35,,,,,,,,,,,,num_3,0.8365619999822229,num_3,0.25,0.6,0.6,1.0,22.9233,38.2055,return,3.5386464999755844,,,,,,,,,,,,,,,,,711,23,female,up_down_width,2024-05-29_14h39.08.677,exp1,2023.1.0,60.00085200461607,
,,,,,,,,,,,,,,,,4,9.3,9.766666666666667,10.233333333333333,10.7,0,0.4666666666666667,0.21666666666666665,0.25,1.65,10,match,36.05,335,352,369,386,0,9,9,9,9,0,,,,,,,4,0,4,0,0,50,50,8,,,,,,,,,,,,num_3,0.9896126999519765,num_3,0.45,0.9,0.35000000000000003,0.8,13.37193,30.5644,return,2.5641301999567077,,,,,,,,,,,,,,,,,711,23,female,up_down_width,2024-05-29_14h39.08.677,exp1,2023.1.0,60.00085200461607,
,,,,,,,,,,,,,,,,3,8.9,10,11.1,0,0,1.1,0.55,0.55,2.75,10,initial,36.05,321,361,400,0,0,9,9,9,0,0,,,,,,,4,0,4,0,0,51,51,0,,,,,,,,,,,,num_3,1.1197031000629067,num_3,0.2,0.4,0.35,0.5,13.37193,19.10275,return,1.773129100096412,,,,,,,,,,,,,,,,,711,23,female,up_down_width,2024-05-29_14h39.08.677,exp1,2023.1.0,60.00085200461607,
,,,,,,,,,,,,,,,,,,,,,,,,,,,,,,,,,,,,,,,,,,,,,4,0,4,0,,,,,,,,,,,,,,,,,,,,,,,,,,,,,2252.3628256999655,2252.3628256999655,2252.3628256999655,,,,,,,,,,,,711,23,female,up_down_width,2024-05-29_14h39.08.677,exp1,2023.1.0,60.00085200461607,
,,,,,,,,,,,,,,,,5,8.35,9.175,10,10.825,11.65,0.825,0.575,0.25,3.55,10,match,36.05,301,331,361,390,420,9,9,9,9,9,,,,,,,5,0,5,0,0,0,0,20,,,,,,,,,,,,num_3,1.2295873999828473,num_3,0.25,0.9,0.2,1.0,7.6411,38.2055,return,2.8161000000545755,,,,,,,,,,,,,,,,,711,23,female,up_down_width,2024-05-29_14h39.08.677,exp1,2023.1.0,60.00085200461607,
,,,,,,,,,,,,,,,,5,8.65,9.325,10,10.675,11.35,0.675,0.275,0.4,3.1,10,match,36.05,312,336,361,385,409,9,9,9,9,9,,,,,,,5,0,5,0,0,1,1,33,,,,,,,,,,,,num_4,0.8718238000292331,num_4,0.4,1.0,0.35000000000000003,1.0,13.37193,38.2055,return,3.2512126000365242,,,,,,,,,,,,,,,,,711,23,female,up_down_width,2024-05-29_14h39.08.677,exp1,2023.1.0,60.00085200461607,
,,,,,,,,,,,,,,,,3,8.525,10,11.475,0,0,1.475,1.225,0.25,3.2,10,match,36.05,307,361,414,0,0,9,9,9,0,0,,,,,,,5,0,5,0,0,2,2,45,,,,,,,,,,,,num_3,0.7862722999416292,num_3,0.3,1.1,0.3,1.25,11.46165,47.75688,return,1.8542316999519244,,,,,,,,,,,,,,,,,711,23,female,up_down_width,2024-05-29_14h39.08.677,exp1,2023.1.0,60.00085200461607,
,,,,,,,,,,,,,,,,3,8.9,10,11.1,0,0,1.1,0.8500000000000001,0.25,2.45,10,initial,36.05,321,361,400,0,0,9,9,9,0,0,,,,,,,5,0,5,0,0,3,3,2,,,,,,,,,,,,num_2,1.2009296999312937,num_2,0.5,1.0,0.25000000000000006,1.2,9.55138,45.8466,return,3.2579391000326723,,,,,,,,,,,,,,,,,711,23,female,up_down_width,2024-05-29_14h39.08.677,exp1,2023.1.0,60.00085200461607,
,,,,,,,,,,,,,,,,5,8.6,9.3,10,10.7,11.4,0.7,0.29999999999999993,0.4,3.1999999999999997,10,initial,36.05,310,335,361,386,411,9,9,9,9,9,,,,,,,5,0,5,0,0,4,4,44,,,,,,,,,,,,num_4,0.9267108000349253,num_4,0.4,0.8,0.35000000000000003,0.8,13.37193,30.5644,return,2.6419718000106514,,,,,,,,,,,,,,,,,711,23,female,up_down_width,2024-05-29_14h39.08.677,exp1,2023.1.0,60.00085200461607,
,,,,,,,,,,,,,,,,5,8.2,9.1,10,10.9,11.8,0.9,0.5,0.4,4,10,initial,36.05,296,328,361,393,425,9,9,9,9,9,,,,,,,5,0,5,0,0,5,5,50,,,,,,,,,,,,num_4,0.8877874999307096,num_4,0.35,0.4,0.35,0.8,13.37193,30.5644,return,2.8343999000499025,,,,,,,,,,,,,,,,,711,23,female,up_down_width,2024-05-29_14h39.08.677,exp1,2023.1.0,60.00085200461607,
,,,,,,,,,,,,,,,,4,8.65,9.55,10.45,11.35,0,0.9,0.35,0.55,3.25,10,initial,36.05,312,344,377,409,0,9,9,9,9,0,,,,,,,5,0,5,0,0,6,6,28,,,,,,,,,,,,num_4,0.7634444999275729,num_4,0.25,0.4,0.39999999999999997,0.8,15.2822,30.5644,return,2.1998387000057846,,,,,,,,,,,,,,,,,711,23,female,up_down_width,2024-05-29_14h39.08.677,exp1,2023.1.0,60.00085200461607,
,,,,,,,,,,,,,,,,5,8.6,9.3,10,10.7,11.4,0.7,0.44999999999999996,0.25,3.05,10,initial,36.05,310,335,361,386,411,9,9,9,9,9,,,,,,,5,0,5,0,0,7,7,42,,,,,,,,,,,,num_4,0.735963899991475,num_4,0.3,0.3,0.2,0.5,7.6411,19.10275,return,3.6107994000194594,,,,,,,,,,,,,,,,,711,23,female,up_down_width,2024-05-29_14h39.08.677,exp1,2023.1.0,60.00085200461607,
