amount_p,posx1_p,posx2_p,posx3_p,posx4_p,posx5_p,center_to_center_p,edge_to_edge_p,w_p,stim_lengt_p,eccentricity_p,line1_p,line2_p,line3_p,line4_p,line5_p,amount,posx1,posx2,posx3,posx4,posx5,center_to_center,edge_to_edge,w,stim_length,eccentricity,trial_type,deg_to_pix_index,posx1_in_pix,posx2_in_pix,posx3_in_pix,posx4_in_pix,posx5_in_pix,line1,line2,line3,line4,line5,posx,setsize_cobdi,trials.thisRepN,trials.thisTrialN,trials.thisN,trials.thisIndex,blocks.thisRepN,blocks.thisTrialN,blocks.thisN,blocks.thisIndex,loop.thisRepN,loop.thisTrialN,loop.thisN,loop.thisIndex,first.thisRepN,first.thisTrialN,first.thisN,first.thisIndex,second.thisRepN,second.thisTrialN,second.thisN,second.thisIndex,key_resp_3.started,key_resp_3.keys,key_resp_3.rt,key_resp.keys,key_resp.rt,response,starting_width_deg,starting_space_deg,response_width_degree,response_spacing_degree,response_width_pixel,response_spacing_pixel,next_5.keys,next_5.rt,key_resp_4.keys,key_resp_4.rt,text_3.started,text_4.started,key_resp_2.started,text_2.started,key_resp_2.keys,key_resp_2.rt,adjusting.started,next.keys,next.rt,text_control2.started,key_resp.started,key_resp.corr,text_bye.started,text_bye.stopped,participant,age,gender,resp_group,date,expName,psychopyVersion,frameRate,
,,,,,,,,,,,,,,,,,,,,,,,,,,,,,,,,,,,,,,,,,,,,,,,,,,,,,,,,,,,,,27.892368600005284,c,125.47247899998911,,,,,,,,,,,,,,,,,,,,,,,,,,,,712,19,male,up_down_width,2024-05-29_15h39.39.822,exp1,2023.1.0,59.99041352876004,
4,9.5,9.833333333333334,10.166666666666666,10.5,0,0.33333333333333337,0.23333333333333336,0.1,1.1,10,9,9,9,9,0,,,,,,,,,,,,,,,,,,,,,,,,,,0,0,0,3,,,,,,,,,,,,,,,,,,,,num_4,4.5958429999882355,num_4,0.2,0.7,0.10000000000000002,0.4,3.82055,15.2822,return,8.218564299982972,,,,,,,,,,,,,,,,,712,19,male,up_down_width,2024-05-29_15h39.39.822,exp1,2023.1.0,59.99041352876004,
4,8.65,9.55,10.45,11.35,0,0.9,0.5,0.4,3.1,10,9,9,9,9,0,,,,,,,,,,,,,,,,,,,,,,,,,,0,1,1,5,,,,,,,,,,,,,,,,,,,,num_4,4.282724800053984,num_4,0.45,0.7,0.4,0.7,15.2822,26.74385,return,4.009757200023159,,,,,,,,,,,,,,,,,712,19,male,up_down_width,2024-05-29_15h39.39.822,exp1,2023.1.0,59.99041352876004,
4,9.25,9.75,10.25,10.75,0,0.5,0.25,0.25,1.75,10,9,9,9,9,0,,,,,,,,,,,,,,,,,,,,,,,,,,0,2,2,4,,,,,,,,,,,,,,,,,,,,num_4,9.099436099990271,num_4,0.3,0.3,0.15000000000000002,0.4,5.73083,15.2822,return,10.904560699942522,,,,,,,,,,,,,,,,,712,19,male,up_down_width,2024-05-29_15h39.39.822,exp1,2023.1.0,59.99041352876004,
3,8.2,10,11.8,0,0,1.7999999999999998,1.4,0.4,4,10,9,9,9,0,0,,,,,,,,,,,,,,,,,,,,,,,,,,0,3,3,2,,,,,,,,,,,,,,,,,,,,num_3,1.9474016000749543,num_3,0.5,0.8,0.45,1.3,17.19248,49.66716,return,4.887147800065577,,,,,,,,,,,,,,,,,712,19,male,up_down_width,2024-05-29_15h39.39.822,exp1,2023.1.0,59.99041352876004,
5,9,9.5,10,10.5,11,0.5,0.09999999999999998,0.4,2.4,10,9,9,9,9,9,,,,,,,,,,,,,,,,,,,,,,,,,,0,4,4,8,,,,,,,,,,,,,,,,,,,,num_4,1.7915104000130668,num_4,0.55,1.1,0.6000000000000001,0.7,22.9233,26.74385,return,3.030576099990867,,,,,,,,,,,,,,,,,712,19,male,up_down_width,2024-05-29_15h39.39.822,exp1,2023.1.0,59.99041352876004,
3,9,10,11,0,0,1,0.9,0.1,2.1,10,9,9,9,0,0,,,,,,,,,,,,,,,,,,,,,,,,,,0,5,5,1,,,,,,,,,,,,,,,,,,,,num_3,1.3975063000107184,num_3,0.4,1.1,0.05000000000000007,1.1,1.91028,42.02605,return,2.8233219999819994,,,,,,,,,,,,,,,,,712,19,male,up_down_width,2024-05-29_15h39.39.822,exp1,2023.1.0,59.99041352876004,
5,9.25,9.625,10,10.375,10.75,0.375,0.125,0.25,1.75,10,9,9,9,9,9,,,,,,,,,,,,,,,,,,,,,,,,,,0,6,6,6,,,,,,,,,,,,,,,,,,,,num_5,1.4229421000927687,num_5,0.55,1.2,0.45,0.65,17.19248,24.83358,return,5.59794420003891,,,,,,,,,,,,,,,,,712,19,male,up_down_width,2024-05-29_15h39.39.822,exp1,2023.1.0,59.99041352876004,
3,9.5,10,10.5,0,0,0.5,0.4,0.1,1.1,10,9,9,9,0,0,,,,,,,,,,,,,,,,,,,,,,,,,,0,7,7,0,,,,,,,,,,,,,,,,,,,,num_3,1.1588101999368519,num_3,0.2,0.8,0.05000000000000002,0.85,1.91028,32.47468,return,2.822918299934827,,,,,,,,,,,,,,,,,712,19,male,up_down_width,2024-05-29_15h39.39.822,exp1,2023.1.0,59.99041352876004,
5,8.6,9.3,10,10.7,11.4,0.7,0.29999999999999993,0.4,3.1999999999999997,10,9,9,9,9,9,,,,,,,,,,,,,,,,,,,,,,,,,,0,8,8,7,,,,,,,,,,,,,,,,,,,,num_6,1.6290126000531018,num_6,0.55,1.1,0.5,0.9,19.10275,34.38495,return,3.36456629994791,,,,,,,,,,,,,,,,,712,19,male,up_down_width,2024-05-29_15h39.39.822,exp1,2023.1.0,59.99041352876004,
,,,,,,,,,,,,,,,,,,,,,,,,,,,,,,,,,,,,,,,,,,,,,,,,,,,,,,,,,,,,,,,,,,,,,,,,,,,c,112.21085340005811,,,,,,,,,,,,,,,712,19,male,up_down_width,2024-05-29_15h39.39.822,exp1,2023.1.0,59.99041352876004,
,,,,,,,,,,,,,,,,4,9.1,9.7,10.3,10.9,0,0.5999999999999999,0.3499999999999999,0.25,2.05,10,match,36.05,328,350,371,393,0,9,9,9,9,0,,,,,,,0,0,0,0,0,0,0,14,,,,,,,,,,,,num_4,1.1160292000276968,num_4,0.2,0.9,0.15000000000000002,0.8,5.73083,30.5644,return,4.236329199979082,,,,,,,,,,,,,,,,,712,19,male,up_down_width,2024-05-29_15h39.39.822,exp1,2023.1.0,59.99041352876004,
,,,,,,,,,,,,,,,,3,9.3,10,10.7,0,0,0.7,0.29999999999999993,0.4,1.8,10,initial,36.05,335,361,386,0,0,9,9,9,0,0,,,,,,,0,0,0,0,0,1,1,9,,,,,,,,,,,,num_3,1.7520122999558225,num_3,0.4,0.8,0.4,0.8,15.2822,30.5644,return,0.9864871999016032,,,,,,,,,,,,,,,,,712,19,male,up_down_width,2024-05-29_15h39.39.822,exp1,2023.1.0,59.99041352876004,
,,,,,,,,,,,,,,,,5,7.8,8.9,10,11.1,12.2,1.1,0.8500000000000001,0.25,4.65,10,initial,36.05,281,321,361,400,440,9,9,9,9,9,,,,,,,0,0,0,0,0,2,2,36,,,,,,,,,,,,num_5,1.3445288999937475,num_5,0.5,0.7,0.30000000000000004,1.05,11.46165,40.11578,return,4.374019400100224,,,,,,,,,,,,,,,,,712,19,male,up_down_width,2024-05-29_15h39.39.822,exp1,2023.1.0,59.99041352876004,
,,,,,,,,,,,,,,,,5,8.6,9.3,10,10.7,11.4,0.7,0.29999999999999993,0.4,3.1999999999999997,10,initial,36.05,310,335,361,386,411,9,9,9,9,9,,,,,,,0,0,0,0,0,3,3,44,,,,,,,,,,,,num_6,3.0103179999860004,num_6,0.35,0.7,0.3,0.7,11.46165,26.74385,return,3.3147197000216693,,,,,,,,,,,,,,,,,712,19,male,up_down_width,2024-05-29_15h39.39.822,exp1,2023.1.0,59.99041352876004,
,,,,,,,,,,,,,,,,4,9.3,9.766666666666667,10.233333333333333,10.7,0,0.4666666666666667,0.06666666666666665,0.4,1.8,10,match,36.05,335,352,369,386,0,9,9,9,9,0,,,,,,,0,0,0,0,0,4,4,10,,,,,,,,,,,,num_4,2.3806902000214905,num_4,0.4,1.1,0.5,0.7,19.10275,26.74385,return,2.73943119996693,,,,,,,,,,,,,,,,,712,19,male,up_down_width,2024-05-29_15h39.39.822,exp1,2023.1.0,59.99041352876004,
,,,,,,,,,,,,,,,,5,7.8,8.9,10,11.1,12.2,1.1,0.7000000000000001,0.4,4.800000000000001,10,initial,36.05,281,321,361,400,440,9,9,9,9,9,,,,,,,0,0,0,0,0,5,5,38,,,,,,,,,,,,num_6,1.2879236999433488,num_6,0.2,0.6,0.39999999999999997,0.8,15.2822,30.5644,return,3.826518899993971,,,,,,,,,,,,,,,,,712,19,male,up_down_width,2024-05-29_15h39.39.822,exp1,2023.1.0,59.99041352876004,
,,,,,,,,,,,,,,,,4,8.95,9.65,10.35,11.05,0,0.7,0.44999999999999996,0.25,2.3499999999999996,10,initial,36.05,323,348,373,398,0,9,9,9,9,0,,,,,,,0,0,0,0,0,6,6,24,,,,,,,,,,,,num_5,1.6776789999566972,num_5,0.35,0.6,0.3,0.65,11.46165,24.83358,return,2.2794594999868423,,,,,,,,,,,,,,,,,712,19,male,up_down_width,2024-05-29_15h39.39.822,exp1,2023.1.0,59.99041352876004,
,,,,,,,,,,,,,,,,5,8.2,9.1,10,10.9,11.8,0.9,0.65,0.25,3.85,10,initial,36.05,296,328,361,393,425,9,9,9,9,9,,,,,,,0,0,0,0,0,7,7,48,,,,,,,,,,,,num_5,1.5581989999627694,num_5,0.35,1.2,0.3,1.25,11.46165,47.75688,return,2.704645400051959,,,,,,,,,,,,,,,,,712,19,male,up_down_width,2024-05-29_15h39.39.822,exp1,2023.1.0,59.99041352876004,
,,,,,,,,,,,,,,,,4,8.35,9.45,10.55,11.65,0,1.1,0.7000000000000001,0.4,3.7,10,initial,36.05,301,341,380,420,0,9,9,9,9,0,,,,,,,0,0,0,0,0,8,8,21,,,,,,,,,,,,num_4,1.2438368999864906,num_4,0.4,0.7,0.35000000000000003,1.0,13.37193,38.2055,return,3.8341481999959797,,,,,,,,,,,,,,,,,712,19,male,up_down_width,2024-05-29_15h39.39.822,exp1,2023.1.0,59.99041352876004,
,,,,,,,,,,,,,,,,4,8.95,9.65,10.35,11.05,0,0.7,0.1499999999999999,0.55,2.65,10,initial,36.05,323,348,373,398,0,9,9,9,9,0,,,,,,,0,0,0,0,0,9,9,23,,,,,,,,,,,,num_4,1.9016741999657825,num_4,0.5,1.2,0.6500000000000001,0.8,24.83358,30.5644,return,2.9439184999791905,,,,,,,,,,,,,,,,,712,19,male,up_down_width,2024-05-29_15h39.39.822,exp1,2023.1.0,59.99041352876004,
,,,,,,,,,,,,,,,,4,9.1,9.7,10.3,10.9,0,0.6000000000000001,0.20000000000000004,0.4,2.2,10,match,36.05,328,350,371,393,0,9,9,9,9,0,,,,,,,0,0,0,0,0,10,10,16,,,,,,,,,,,,num_5,1.8160612999927253,num_5,0.3,1.3,0.35,0.6,13.37193,22.9233,return,4.377470700070262,,,,,,,,,,,,,,,,,712,19,male,up_down_width,2024-05-29_15h39.39.822,exp1,2023.1.0,59.99041352876004,
,,,,,,,,,,,,,,,,5,8.95,9.475,10,10.525,11.05,0.525,0.125,0.4,2.5,10,match,36.05,323,342,361,379,398,9,9,9,9,9,,,,,,,0,0,0,0,0,11,11,27,,,,,,,,,,,,num_5,1.8326918999664485,num_5,0.3,0.7,0.49999999999999994,0.6,19.10275,22.9233,return,2.12356139998883,,,,,,,,,,,,,,,,,712,19,male,up_down_width,2024-05-29_15h39.39.822,exp1,2023.1.0,59.99041352876004,
,,,,,,,,,,,,,,,,4,8.65,9.55,10.45,11.35,0,0.9,0.5,0.4,3.1,10,initial,36.05,312,344,377,409,0,9,9,9,9,0,,,,,,,0,0,0,0,0,12,12,32,,,,,,,,,,,,num_4,1.212514300015755,num_4,0.3,0.5,0.39999999999999997,0.7,15.2822,26.74385,return,2.491332700010389,,,,,,,,,,,,,,,,,712,19,male,up_down_width,2024-05-29_15h39.39.822,exp1,2023.1.0,59.99041352876004,
,,,,,,,,,,,,,,,,5,8.65,9.325,10,10.675,11.35,0.675,0.42500000000000004,0.25,2.95,10,match,36.05,312,336,361,385,409,9,9,9,9,9,,,,,,,0,0,0,0,0,13,13,31,,,,,,,,,,,,num_6,3.384627499966882,num_6,0.35,1.2,0.3,0.7,11.46165,26.74385,return,3.12846040003933,,,,,,,,,,,,,,,,,712,19,male,up_down_width,2024-05-29_15h39.39.822,exp1,2023.1.0,59.99041352876004,
,,,,,,,,,,,,,,,,3,9.3,10,10.7,0,0,0.7,0.1499999999999999,0.55,1.95,10,initial,36.05,335,361,386,0,0,9,9,9,0,0,,,,,,,0,0,0,0,0,14,14,6,,,,,,,,,,,,num_3,1.3765806999290362,num_3,0.45,1.3,0.6500000000000001,0.85,24.83358,32.47468,return,3.495850699953735,,,,,,,,,,,,,,,,,712,19,male,up_down_width,2024-05-29_15h39.39.822,exp1,2023.1.0,59.99041352876004,
,,,,,,,,,,,,,,,,3,8.9,10,11.1,0,0,1.1,0.7000000000000001,0.4,2.6000000000000005,10,initial,36.05,321,361,400,0,0,9,9,9,0,0,,,,,,,0,0,0,0,0,15,15,4,,,,,,,,,,,,num_3,1.1818471000296995,num_3,0.55,0.9,0.4,1.4,15.2822,53.48771,return,4.945579599938355,,,,,,,,,,,,,,,,,712,19,male,up_down_width,2024-05-29_15h39.39.822,exp1,2023.1.0,59.99041352876004,
,,,,,,,,,,,,,,,,3,7.8,10,12.2,0,0,2.2,1.65,0.55,4.95,10,match,36.05,281,361,440,0,0,9,9,9,0,0,,,,,,,0,0,0,0,0,16,16,35,,,,,,,,,,,,num_3,1.2424266999587417,num_3,0.3,1,0.5499999999999999,2.05,21.01303,78.32128,return,4.948592400061898,,,,,,,,,,,,,,,,,712,19,male,up_down_width,2024-05-29_15h39.39.822,exp1,2023.1.0,59.99041352876004,
,,,,,,,,,,,,,,,,3,9.1,10,10.9,0,0,0.9,0.5,0.4,2.2,10,initial,36.05,328,361,393,0,0,9,9,9,0,0,,,,,,,0,0,0,0,0,17,17,15,,,,,,,,,,,,num_3,0.9747468000277877,num_3,0.25,0.6,0.35,0.9,13.37193,34.38495,return,2.354998099966906,,,,,,,,,,,,,,,,,712,19,male,up_down_width,2024-05-29_15h39.39.822,exp1,2023.1.0,59.99041352876004,
,,,,,,,,,,,,,,,,4,8.35,9.45,10.55,11.65,0,1.1,0.55,0.55,3.8500000000000005,10,initial,36.05,301,341,380,420,0,9,9,9,9,0,,,,,,,0,0,0,0,0,18,18,17,,,,,,,,,,,,num_5,1.3173929000040516,num_5,0.35,0.8,0.49999999999999994,1.3,19.10275,49.66716,return,2.9220594000071287,,,,,,,,,,,,,,,,,712,19,male,up_down_width,2024-05-29_15h39.39.822,exp1,2023.1.0,59.99041352876004,
,,,,,,,,,,,,,,,,3,8.9,10,11.1,0,0,1.1,0.55,0.55,2.75,10,initial,36.05,321,361,400,0,0,9,9,9,0,0,,,,,,,0,0,0,0,0,19,19,0,,,,,,,,,,,,num_3,1.0364294000901282,num_3,0.5,0.9,0.55,1.55,21.01303,59.21853,return,3.1646046000532806,,,,,,,,,,,,,,,,,712,19,male,up_down_width,2024-05-29_15h39.39.822,exp1,2023.1.0,59.99041352876004,
,,,,,,,,,,,,,,,,4,8.9,9.633333333333333,10.366666666666667,11.1,0,0.7333333333333333,0.18333333333333326,0.55,2.75,10,match,36.05,321,347,374,400,0,9,9,9,9,0,,,,,,,0,0,0,0,0,20,20,1,,,,,,,,,,,,num_4,1.0846483999630436,num_4,0.25,0.3,0.7000000000000001,1.0,26.74385,38.2055,return,4.080414699972607,,,,,,,,,,,,,,,,,712,19,male,up_down_width,2024-05-29_15h39.39.822,exp1,2023.1.0,59.99041352876004,
,,,,,,,,,,,,,,,,5,8.2,9.1,10,10.9,11.8,0.9,0.5,0.4,4,10,initial,36.05,296,328,361,393,425,9,9,9,9,9,,,,,,,0,0,0,0,0,21,21,50,,,,,,,,,,,,num_6,1.2745592000428587,num_6,0.3,0.5,0.39999999999999997,0.8,15.2822,30.5644,return,3.621830699965358,,,,,,,,,,,,,,,,,712,19,male,up_down_width,2024-05-29_15h39.39.822,exp1,2023.1.0,59.99041352876004,
,,,,,,,,,,,,,,,,5,8.6,9.3,10,10.7,11.4,0.7,0.44999999999999996,0.25,3.05,10,initial,36.05,310,335,361,386,411,9,9,9,9,9,,,,,,,0,0,0,0,0,22,22,42,,,,,,,,,,,,num_5,1.5018562000477687,num_5,0.35,0.6,0.25,0.7,9.55138,26.74385,return,2.2039678000146523,,,,,,,,,,,,,,,,,712,19,male,up_down_width,2024-05-29_15h39.39.822,exp1,2023.1.0,59.99041352876004,
,,,,,,,,,,,,,,,,3,9.1,10,10.9,0,0,0.9,0.35,0.55,2.35,10,initial,36.05,328,361,393,0,0,9,9,9,0,0,,,,,,,0,0,0,0,0,23,23,11,,,,,,,,,,,,num_3,1.0398793000495061,num_3,0.5,1.1,0.55,1.1,21.01303,42.02605,return,1.6197413000045344,,,,,,,,,,,,,,,,,712,19,male,up_down_width,2024-05-29_15h39.39.822,exp1,2023.1.0,59.99041352876004,
,,,,,,,,,,,,,,,,5,8.95,9.475,10,10.525,11.05,0.525,0.275,0.25,2.35,10,match,36.05,323,342,361,379,398,9,9,9,9,9,,,,,,,0,0,0,0,0,24,24,25,,,,,,,,,,,,num_6,1.1008758000098169,num_6,0.4,0.7,0.20000000000000007,0.5,7.6411,19.10275,return,2.9528178999898955,,,,,,,,,,,,,,,,,712,19,male,up_down_width,2024-05-29_15h39.39.822,exp1,2023.1.0,59.99041352876004,
,,,,,,,,,,,,,,,,5,8.6,9.3,10,10.7,11.4,0.7,0.1499999999999999,0.55,3.3499999999999996,10,initial,36.05,310,335,361,386,411,9,9,9,9,9,,,,,,,0,0,0,0,0,25,25,40,,,,,,,,,,,,num_6,1.3408256999682635,num_6,0.35,0.6,0.44999999999999996,0.8,17.19248,30.5644,return,2.5010318000568077,,,,,,,,,,,,,,,,,712,19,male,up_down_width,2024-05-29_15h39.39.822,exp1,2023.1.0,59.99041352876004,
,,,,,,,,,,,,,,,,3,9.3,10,10.7,0,0,0.7,0.44999999999999996,0.25,1.65,10,initial,36.05,335,361,386,0,0,9,9,9,0,0,,,,,,,0,0,0,0,0,26,26,7,,,,,,,,,,,,num_3,0.9594106000149623,num_3,0.55,0.9,0.25000000000000006,0.85,9.55138,32.47468,return,2.8248302000574768,,,,,,,,,,,,,,,,,712,19,male,up_down_width,2024-05-29_15h39.39.822,exp1,2023.1.0,59.99041352876004,
,,,,,,,,,,,,,,,,3,8.525,10,11.475,0,0,1.475,1.225,0.25,3.2,10,match,36.05,307,361,414,0,0,9,9,9,0,0,,,,,,,0,0,0,0,0,27,27,45,,,,,,,,,,,,num_3,2.8845358000835404,num_3,0.45,0.5,0.25000000000000006,1.35,9.55138,51.57743,return,4.1110601999098435,,,,,,,,,,,,,,,,,712,19,male,up_down_width,2024-05-29_15h39.39.822,exp1,2023.1.0,59.99041352876004,
,,,,,,,,,,,,,,,,3,7.800000000000001,10,12.2,0,0,2.1999999999999997,1.7999999999999998,0.4,4.8,10,match,36.05,281,361,440,0,0,9,9,9,0,0,,,,,,,0,0,0,0,0,28,28,39,,,,,,,,,,,,num_3,1.0159547999501228,num_3,0.3,1.3,0.35,2.45,13.37193,93.60348,return,5.97688620002009,,,,,,,,,,,,,,,,,712,19,male,up_down_width,2024-05-29_15h39.39.822,exp1,2023.1.0,59.99041352876004,
,,,,,,,,,,,,,,,,5,8.35,9.175,10,10.825,11.65,0.825,0.575,0.25,3.55,10,match,36.05,301,331,361,390,420,9,9,9,9,9,,,,,,,0,0,0,0,0,29,29,20,,,,,,,,,,,,num_6,1.2238157000392675,num_6,0.55,0.8,0.10000000000000007,0.9,3.82055,34.38495,return,2.786515499930829,,,,,,,,,,,,,,,,,712,19,male,up_down_width,2024-05-29_15h39.39.822,exp1,2023.1.0,59.99041352876004,
,,,,,,,,,,,,,,,,3,8.6,10,11.4,0,0,1.4,0.85,0.55,3.35,10,match,36.05,310,361,411,0,0,9,9,9,0,0,,,,,,,0,0,0,0,0,30,30,41,,,,,,,,,,,,num_3,0.8322227000026032,num_3,0.2,1.1,0.5499999999999999,1.45,21.01303,55.39798,return,5.177249299944378,,,,,,,,,,,,,,,,,712,19,male,up_down_width,2024-05-29_15h39.39.822,exp1,2023.1.0,59.99041352876004,
,,,,,,,,,,,,,,,,3,8.2,10,11.8,0,0,1.8,1.25,0.55,4.15,10,match,36.05,296,361,425,0,0,9,9,9,0,0,,,,,,,0,0,0,0,0,31,31,47,,,,,,,,,,,,num_3,1.5637762999394909,num_3,0.25,0.5,0.44999999999999996,1.7,17.19248,64.94936,return,6.072488599922508,,,,,,,,,,,,,,,,,712,19,male,up_down_width,2024-05-29_15h39.39.822,exp1,2023.1.0,59.99041352876004,
,,,,,,,,,,,,,,,,4,8.825,9.608333333333333,10.391666666666667,11.175,0,0.7833333333333333,0.5333333333333333,0.25,2.6,10,match,36.05,318,346,375,403,0,9,9,9,9,0,,,,,,,0,0,0,0,0,32,32,5,,,,,,,,,,,,num_4,1.0634649000130594,num_4,0.55,1.0,0.20000000000000007,1.1,7.6411,42.02605,return,2.554741600062698,,,,,,,,,,,,,,,,,712,19,male,up_down_width,2024-05-29_15h39.39.822,exp1,2023.1.0,59.99041352876004,
,,,,,,,,,,,,,,,,5,7.8,8.9,10,11.1,12.2,1.1,0.55,0.55,4.95,10,initial,36.05,281,321,361,400,440,9,9,9,9,9,,,,,,,0,0,0,0,0,33,33,34,,,,,,,,,,,,num_5,1.105946100084111,num_5,0.35,1.0,0.5499999999999999,1.05,21.01303,40.11578,return,2.290119700017385,,,,,,,,,,,,,,,,,712,19,male,up_down_width,2024-05-29_15h39.39.822,exp1,2023.1.0,59.99041352876004,
,,,,,,,,,,,,,,,,3,8.2,10,11.8,0,0,1.8,1.55,0.25,3.85,10,match,36.05,296,361,425,0,0,9,9,9,0,0,,,,,,,0,0,0,0,0,34,34,49,,,,,,,,,,,,num_3,0.8265863000415266,num_3,0.3,1.2,0.3,1.95,11.46165,74.50073,return,4.216311500058509,,,,,,,,,,,,,,,,,712,19,male,up_down_width,2024-05-29_15h39.39.822,exp1,2023.1.0,59.99041352876004,
,,,,,,,,,,,,,,,,4,8.65,9.55,10.45,11.35,0,0.9,0.65,0.25,2.95,10,initial,36.05,312,344,377,409,0,9,9,9,9,0,,,,,,,0,0,0,0,0,35,35,30,,,,,,,,,,,,num_4,0.9684017999097705,num_4,0.3,1.3,0.15000000000000002,1.4,5.73083,53.48771,return,2.0780258999438956,,,,,,,,,,,,,,,,,712,19,male,up_down_width,2024-05-29_15h39.39.822,exp1,2023.1.0,59.99041352876004,
,,,,,,,,,,,,,,,,3,8.9,10,11.1,0,0,1.1,0.8500000000000001,0.25,2.45,10,initial,36.05,321,361,400,0,0,9,9,9,0,0,,,,,,,0,0,0,0,0,36,36,2,,,,,,,,,,,,num_3,0.8543854000745341,num_3,0.4,0.9,0.15000000000000008,1.15,5.73083,43.93633,return,3.0191706999903545,,,,,,,,,,,,,,,,,712,19,male,up_down_width,2024-05-29_15h39.39.822,exp1,2023.1.0,59.99041352876004,
,,,,,,,,,,,,,,,,5,8.2,9.1,10,10.9,11.8,0.9,0.35,0.55,4.15,10,initial,36.05,296,328,361,393,425,9,9,9,9,9,,,,,,,0,0,0,0,0,37,37,46,,,,,,,,,,,,num_5,1.1434415000258014,num_5,0.2,1.1,0.65,1.0,24.83358,38.2055,return,3.2163728000596166,,,,,,,,,,,,,,,,,712,19,male,up_down_width,2024-05-29_15h39.39.822,exp1,2023.1.0,59.99041352876004,
,,,,,,,,,,,,,,,,5,8.65,9.325,10,10.675,11.35,0.675,0.125,0.55,3.25,10,match,36.05,312,336,361,385,409,9,9,9,9,9,,,,,,,0,0,0,0,0,38,38,29,,,,,,,,,,,,num_4,1.9897633999353275,num_4,0.25,1.0,0.8000000000000002,1.1,30.5644,42.02605,return,3.459747100016102,,,,,,,,,,,,,,,,,712,19,male,up_down_width,2024-05-29_15h39.39.822,exp1,2023.1.0,59.99041352876004,
,,,,,,,,,,,,,,,,3,8.2,10,11.8,0,0,1.7999999999999998,1.4,0.4,4,10,match,36.05,296,361,425,0,0,9,9,9,0,0,,,,,,,0,0,0,0,0,39,39,51,,,,,,,,,,,,num_3,0.8123546000570059,num_3,0.5,1,0.35000000000000003,1.75,13.37193,66.85963,return,3.9159683000762016,,,,,,,,,,,,,,,,,712,19,male,up_down_width,2024-05-29_15h39.39.822,exp1,2023.1.0,59.99041352876004,
,,,,,,,,,,,,,,,,3,8.6,10,11.4,0,0,1.4,1.15,0.25,3.05,10,match,36.05,310,361,411,0,0,9,9,9,0,0,,,,,,,0,0,0,0,0,40,40,43,,,,,,,,,,,,num_3,0.9018061000388116,num_3,0.35,0.5,0.25,1.45,9.55138,55.39798,return,4.124333800049499,,,,,,,,,,,,,,,,,712,19,male,up_down_width,2024-05-29_15h39.39.822,exp1,2023.1.0,59.99041352876004,
,,,,,,,,,,,,,,,,5,8.35,9.175,10,10.825,11.65,0.8250000000000001,0.275,0.55,3.85,10,match,36.05,301,331,361,390,420,9,9,9,9,9,,,,,,,0,0,0,0,0,41,41,18,,,,,,,,,,,,num_4,0.899228599970229,num_4,0.2,0.6,0.8500000000000002,1.1,32.47468,42.02605,return,5.434214800014161,,,,,,,,,,,,,,,,,712,19,male,up_down_width,2024-05-29_15h39.39.822,exp1,2023.1.0,59.99041352876004,
,,,,,,,,,,,,,,,,4,8.35,9.45,10.55,11.65,0,1.1,0.8500000000000001,0.25,3.5500000000000003,10,initial,36.05,301,341,380,420,0,9,9,9,9,0,,,,,,,0,0,0,0,0,42,42,19,,,,,,,,,,,,num_4,0.9489067000104114,num_4,0.35,1.1,0.25,1.2,9.55138,45.8466,return,1.4016017999965698,,,,,,,,,,,,,,,,,712,19,male,up_down_width,2024-05-29_15h39.39.822,exp1,2023.1.0,59.99041352876004,
,,,,,,,,,,,,,,,,4,8.65,9.55,10.45,11.35,0,0.9,0.35,0.55,3.25,10,initial,36.05,312,344,377,409,0,9,9,9,9,0,,,,,,,0,0,0,0,0,43,43,28,,,,,,,,,,,,num_4,1.335079799988307,num_4,0.3,0.7,0.5499999999999999,1.1,21.01303,42.02605,return,3.021530200028792,,,,,,,,,,,,,,,,,712,19,male,up_down_width,2024-05-29_15h39.39.822,exp1,2023.1.0,59.99041352876004,
,,,,,,,,,,,,,,,,5,8.65,9.325,10,10.675,11.35,0.675,0.275,0.4,3.1,10,match,36.05,312,336,361,385,409,9,9,9,9,9,,,,,,,0,0,0,0,0,44,44,33,,,,,,,,,,,,num_5,0.9767601999919862,num_5,0.35,0.5,0.39999999999999997,0.65,15.2822,24.83358,return,2.2811770999105647,,,,,,,,,,,,,,,,,712,19,male,up_down_width,2024-05-29_15h39.39.822,exp1,2023.1.0,59.99041352876004,
,,,,,,,,,,,,,,,,3,9.1,10,10.9,0,0,0.9,0.65,0.25,2.05,10,initial,36.05,328,361,393,0,0,9,9,9,0,0,,,,,,,0,0,0,0,0,45,45,13,,,,,,,,,,,,num_3,1.6162943999515846,num_3,0.35,0.8,0.35,0.85,13.37193,32.47468,return,1.402896299958229,,,,,,,,,,,,,,,,,712,19,male,up_down_width,2024-05-29_15h39.39.822,exp1,2023.1.0,59.99041352876004,
,,,,,,,,,,,,,,,,4,9.1,9.7,10.3,10.9,0,0.6,0.04999999999999997,0.55,2.35,10,match,36.05,328,350,371,393,0,9,9,9,9,0,,,,,,,0,0,0,0,0,46,46,12,,,,,,,,,,,,num_3,1.3161170000676066,num_3,0.5,0.8,0.7500000000000002,0.8,28.65413,30.5644,return,2.055286100017838,,,,,,,,,,,,,,,,,712,19,male,up_down_width,2024-05-29_15h39.39.822,exp1,2023.1.0,59.99041352876004,
,,,,,,,,,,,,,,,,4,9.3,9.766666666666667,10.233333333333333,10.7,0,0.4666666666666667,0.21666666666666665,0.25,1.65,10,match,36.05,335,352,369,386,0,9,9,9,9,0,,,,,,,0,0,0,0,0,47,47,8,,,,,,,,,,,,num_4,1.0456155999563634,num_4,0.55,0.7,0.4,0.6,15.2822,22.9233,return,2.1863315000664443,,,,,,,,,,,,,,,,,712,19,male,up_down_width,2024-05-29_15h39.39.822,exp1,2023.1.0,59.99041352876004,
,,,,,,,,,,,,,,,,4,8.9,9.633333333333333,10.366666666666667,11.1,0,0.7333333333333334,0.4833333333333334,0.25,2.45,10,match,36.05,321,347,374,400,0,9,9,9,9,0,,,,,,,0,0,0,0,0,48,48,3,,,,,,,,,,,,num_4,1.168813499971293,num_4,0.4,0.6,0.30000000000000004,0.5,11.46165,19.10275,return,2.9280443999450654,,,,,,,,,,,,,,,,,712,19,male,up_down_width,2024-05-29_15h39.39.822,exp1,2023.1.0,59.99041352876004,
,,,,,,,,,,,,,,,,3,7.8,10,12.2,0,0,2.2,1.9500000000000002,0.25,4.65,10,match,36.05,281,361,440,0,0,9,9,9,0,0,,,,,,,0,0,0,0,0,49,49,37,,,,,,,,,,,,num_3,0.9203187000239268,num_3,0.3,0.6,0.3,1.9,11.46165,72.59046,return,4.652383000007831,,,,,,,,,,,,,,,,,712,19,male,up_down_width,2024-05-29_15h39.39.822,exp1,2023.1.0,59.99041352876004,
,,,,,,,,,,,,,,,,4,8.95,9.65,10.35,11.05,0,0.7,0.29999999999999993,0.4,2.5,10,initial,36.05,323,348,373,398,0,9,9,9,9,0,,,,,,,0,0,0,0,0,50,50,26,,,,,,,,,,,,num_4,0.95930300001055,num_4,0.45,0.5,0.4,0.9,15.2822,34.38495,return,1.991690499940887,,,,,,,,,,,,,,,,,712,19,male,up_down_width,2024-05-29_15h39.39.822,exp1,2023.1.0,59.99041352876004,
,,,,,,,,,,,,,,,,5,8.275,9.1375,10,10.8625,11.725,0.8625,0.6125,0.25,3.7,10,match,36.05,298,329,361,392,423,9,9,9,9,9,,,,,,,0,0,0,0,0,51,51,22,,,,,,,,,,,,num_6,1.2059460000600666,num_6,0.25,1.2,0.35,1.1,13.37193,42.02605,return,2.5590616000117734,,,,,,,,,,,,,,,,,712,19,male,up_down_width,2024-05-29_15h39.39.822,exp1,2023.1.0,59.99041352876004,
,,,,,,,,,,,,,,,,,,,,,,,,,,,,,,,,,,,,,,,,,,,,,0,0,0,0,,,,,,,,,,,,,,,,,,,,,,,,,,,,,683.6394008999923,683.6394008999923,683.6394008999923,,,,,,,,,,,,712,19,male,up_down_width,2024-05-29_15h39.39.822,exp1,2023.1.0,59.99041352876004,
,,,,,,,,,,,,,,,,4,8.825,9.608333333333333,10.391666666666667,11.175,0,0.7833333333333333,0.5333333333333333,0.25,2.6,10,match,36.05,318,346,375,403,0,9,9,9,9,0,,,,,,,1,0,1,0,0,0,0,5,,,,,,,,,,,,num_4,0.9391743000596762,num_4,0.3,0.9,0.25,0.9,9.55138,34.38495,return,1.2515391000779346,,,,,,,,,,,,,,,,,712,19,male,up_down_width,2024-05-29_15h39.39.822,exp1,2023.1.0,59.99041352876004,
,,,,,,,,,,,,,,,,3,7.8,10,12.2,0,0,2.2,1.65,0.55,4.95,10,match,36.05,281,361,440,0,0,9,9,9,0,0,,,,,,,1,0,1,0,0,1,1,35,,,,,,,,,,,,num_3,0.8315501000033692,num_3,0.45,0.5,0.45,1.85,17.19248,70.68018,return,4.472495499998331,,,,,,,,,,,,,,,,,712,19,male,up_down_width,2024-05-29_15h39.39.822,exp1,2023.1.0,59.99041352876004,
,,,,,,,,,,,,,,,,3,8.525,10,11.475,0,0,1.475,1.225,0.25,3.2,10,match,36.05,307,361,414,0,0,9,9,9,0,0,,,,,,,1,0,1,0,0,2,2,45,,,,,,,,,,,,num_3,0.8621217999607325,num_3,0.45,1.1,0.20000000000000007,1.75,7.6411,66.85963,return,3.3346359999850392,,,,,,,,,,,,,,,,,712,19,male,up_down_width,2024-05-29_15h39.39.822,exp1,2023.1.0,59.99041352876004,
,,,,,,,,,,,,,,,,3,7.800000000000001,10,12.2,0,0,2.1999999999999997,1.7999999999999998,0.4,4.8,10,match,36.05,281,361,440,0,0,9,9,9,0,0,,,,,,,1,0,1,0,0,3,3,39,,,,,,,,,,,,num_3,0.8684989999746904,num_3,0.35,0.7,0.39999999999999997,2.1,15.2822,80.23156,return,5.214143499964848,,,,,,,,,,,,,,,,,712,19,male,up_down_width,2024-05-29_15h39.39.822,exp1,2023.1.0,59.99041352876004,
,,,,,,,,,,,,,,,,3,9.3,10,10.7,0,0,0.7,0.1499999999999999,0.55,1.95,10,initial,36.05,335,361,386,0,0,9,9,9,0,0,,,,,,,1,0,1,0,0,4,4,6,,,,,,,,,,,,num_3,0.7622281999792904,num_3,0.55,0.8,0.6500000000000001,0.75,24.83358,28.65413,return,1.6218602999579161,,,,,,,,,,,,,,,,,712,19,male,up_down_width,2024-05-29_15h39.39.822,exp1,2023.1.0,59.99041352876004,
,,,,,,,,,,,,,,,,3,8.9,10,11.1,0,0,1.1,0.7000000000000001,0.4,2.6000000000000005,10,initial,36.05,321,361,400,0,0,9,9,9,0,0,,,,,,,1,0,1,0,0,5,5,4,,,,,,,,,,,,num_3,0.9312081000534818,num_3,0.25,0.4,0.49999999999999994,1.1,19.10275,42.02605,return,4.232320199953392,,,,,,,,,,,,,,,,,712,19,male,up_down_width,2024-05-29_15h39.39.822,exp1,2023.1.0,59.99041352876004,
,,,,,,,,,,,,,,,,4,8.95,9.65,10.35,11.05,0,0.7,0.29999999999999993,0.4,2.5,10,initial,36.05,323,348,373,398,0,9,9,9,9,0,,,,,,,1,0,1,0,0,6,6,26,,,,,,,,,,,,num_4,1.5427620999980718,num_4,0.3,1.3,0.39999999999999997,0.6,15.2822,22.9233,return,2.723909000051208,,,,,,,,,,,,,,,,,712,19,male,up_down_width,2024-05-29_15h39.39.822,exp1,2023.1.0,59.99041352876004,
,,,,,,,,,,,,,,,,4,9.1,9.7,10.3,10.9,0,0.5999999999999999,0.3499999999999999,0.25,2.05,10,match,36.05,328,350,371,393,0,9,9,9,9,0,,,,,,,1,0,1,0,0,7,7,14,,,,,,,,,,,,num_4,0.9348704000003636,num_4,0.3,0.9,0.3,0.7,11.46165,26.74385,return,1.8358687999425456,,,,,,,,,,,,,,,,,712,19,male,up_down_width,2024-05-29_15h39.39.822,exp1,2023.1.0,59.99041352876004,
,,,,,,,,,,,,,,,,3,8.2,10,11.8,0,0,1.7999999999999998,1.4,0.4,4,10,match,36.05,296,361,425,0,0,9,9,9,0,0,,,,,,,1,0,1,0,0,8,8,51,,,,,,,,,,,,num_2,1.1946060999762267,num_2,0.4,0.6,0.4,2.7,15.2822,103.15486,return,5.1392794999992475,,,,,,,,,,,,,,,,,712,19,male,up_down_width,2024-05-29_15h39.39.822,exp1,2023.1.0,59.99041352876004,
,,,,,,,,,,,,,,,,3,8.2,10,11.8,0,0,1.8,1.55,0.25,3.85,10,match,36.05,296,361,425,0,0,9,9,9,0,0,,,,,,,1,0,1,0,0,9,9,49,,,,,,,,,,,,num_3,0.8183233999880031,num_3,0.3,1.1,0.35,1.7,13.37193,64.94936,return,3.184610399999656,,,,,,,,,,,,,,,,,712,19,male,up_down_width,2024-05-29_15h39.39.822,exp1,2023.1.0,59.99041352876004,
,,,,,,,,,,,,,,,,5,8.2,9.1,10,10.9,11.8,0.9,0.5,0.4,4,10,initial,36.05,296,328,361,393,425,9,9,9,9,9,,,,,,,1,0,1,0,0,10,10,50,,,,,,,,,,,,num_6,1.139482400030829,num_6,0.25,0.9,0.39999999999999997,0.8,15.2822,30.5644,return,1.903492100071162,,,,,,,,,,,,,,,,,712,19,male,up_down_width,2024-05-29_15h39.39.822,exp1,2023.1.0,59.99041352876004,
,,,,,,,,,,,,,,,,3,8.9,10,11.1,0,0,1.1,0.55,0.55,2.75,10,initial,36.05,321,361,400,0,0,9,9,9,0,0,,,,,,,1,0,1,0,0,11,11,0,,,,,,,,,,,,num_3,0.788819000008516,num_3,0.55,1.2,0.6000000000000001,1.1,22.9233,42.02605,return,2.1268421999411657,,,,,,,,,,,,,,,,,712,19,male,up_down_width,2024-05-29_15h39.39.822,exp1,2023.1.0,59.99041352876004,
,,,,,,,,,,,,,,,,5,8.2,9.1,10,10.9,11.8,0.9,0.35,0.55,4.15,10,initial,36.05,296,328,361,393,425,9,9,9,9,9,,,,,,,1,0,1,0,0,12,12,46,,,,,,,,,,,,num_6,1.0104278000071645,num_6,0.25,0.9,0.49999999999999994,0.8,19.10275,30.5644,return,2.4649723999900743,,,,,,,,,,,,,,,,,712,19,male,up_down_width,2024-05-29_15h39.39.822,exp1,2023.1.0,59.99041352876004,
,,,,,,,,,,,,,,,,4,8.65,9.55,10.45,11.35,0,0.9,0.5,0.4,3.1,10,initial,36.05,312,344,377,409,0,9,9,9,9,0,,,,,,,1,0,1,0,0,13,13,32,,,,,,,,,,,,num_5,1.0710558000719175,num_5,0.45,0.5,0.4,0.7,15.2822,26.74385,return,3.586466900072992,,,,,,,,,,,,,,,,,712,19,male,up_down_width,2024-05-29_15h39.39.822,exp1,2023.1.0,59.99041352876004,
,,,,,,,,,,,,,,,,3,8.9,10,11.1,0,0,1.1,0.8500000000000001,0.25,2.45,10,initial,36.05,321,361,400,0,0,9,9,9,0,0,,,,,,,1,0,1,0,0,14,14,2,,,,,,,,,,,,num_3,0.8327468000352383,num_3,0.4,0.9,0.15000000000000008,0.9,5.73083,34.38495,return,1.5945664999308065,,,,,,,,,,,,,,,,,712,19,male,up_down_width,2024-05-29_15h39.39.822,exp1,2023.1.0,59.99041352876004,
,,,,,,,,,,,,,,,,4,8.95,9.65,10.35,11.05,0,0.7,0.1499999999999999,0.55,2.65,10,initial,36.05,323,348,373,398,0,9,9,9,9,0,,,,,,,1,0,1,0,0,15,15,23,,,,,,,,,,,,num_3,0.8766003000782803,num_3,0.25,1.3,0.7000000000000001,0.95,26.74385,36.29523,return,3.1118317999644205,,,,,,,,,,,,,,,,,712,19,male,up_down_width,2024-05-29_15h39.39.822,exp1,2023.1.0,59.99041352876004,
,,,,,,,,,,,,,,,,5,8.65,9.325,10,10.675,11.35,0.675,0.275,0.4,3.1,10,match,36.05,312,336,361,385,409,9,9,9,9,9,,,,,,,1,0,1,0,0,16,16,33,,,,,,,,,,,,num_4,0.959298700094223,num_4,0.4,0.8,0.4,0.8,15.2822,30.5644,return,0.8544463999569416,,,,,,,,,,,,,,,,,712,19,male,up_down_width,2024-05-29_15h39.39.822,exp1,2023.1.0,59.99041352876004,
,,,,,,,,,,,,,,,,5,8.275,9.1375,10,10.8625,11.725,0.8625,0.6125,0.25,3.7,10,match,36.05,298,329,361,392,423,9,9,9,9,9,,,,,,,1,0,1,0,0,17,17,22,,,,,,,,,,,,num_6,1.038135000038892,num_6,0.2,0.4,0.10000000000000002,0.7,3.82055,26.74385,return,2.499794099945575,,,,,,,,,,,,,,,,,712,19,male,up_down_width,2024-05-29_15h39.39.822,exp1,2023.1.0,59.99041352876004,
,,,,,,,,,,,,,,,,4,8.65,9.55,10.45,11.35,0,0.9,0.65,0.25,2.95,10,initial,36.05,312,344,377,409,0,9,9,9,9,0,,,,,,,1,0,1,0,0,18,18,30,,,,,,,,,,,,num_4,1.0631702999817207,num_4,0.2,0.9,0.2,1.0,7.6411,38.2055,return,1.2275660999584943,,,,,,,,,,,,,,,,,712,19,male,up_down_width,2024-05-29_15h39.39.822,exp1,2023.1.0,59.99041352876004,
,,,,,,,,,,,,,,,,3,8.6,10,11.4,0,0,1.4,1.15,0.25,3.05,10,match,36.05,310,361,411,0,0,9,9,9,0,0,,,,,,,1,0,1,0,0,19,19,43,,,,,,,,,,,,num_2,0.8428721000673249,num_2,0.5,0.6,0.15000000000000008,2.1,5.73083,80.23156,return,4.727889199974015,,,,,,,,,,,,,,,,,712,19,male,up_down_width,2024-05-29_15h39.39.822,exp1,2023.1.0,59.99041352876004,
,,,,,,,,,,,,,,,,3,9.1,10,10.9,0,0,0.9,0.35,0.55,2.35,10,initial,36.05,328,361,393,0,0,9,9,9,0,0,,,,,,,1,0,1,0,0,20,20,11,,,,,,,,,,,,num_2,1.874734599958174,num_2,0.4,1.2,0.6000000000000001,0.8,22.9233,30.5644,return,2.162243300001137,,,,,,,,,,,,,,,,,712,19,male,up_down_width,2024-05-29_15h39.39.822,exp1,2023.1.0,59.99041352876004,
,,,,,,,,,,,,,,,,5,8.65,9.325,10,10.675,11.35,0.675,0.42500000000000004,0.25,2.95,10,match,36.05,312,336,361,385,409,9,9,9,9,9,,,,,,,1,0,1,0,0,21,21,31,,,,,,,,,,,,num_6,1.2135574999265373,num_6,0.35,0.9,0.25,0.6,9.55138,22.9233,return,2.6446731999749318,,,,,,,,,,,,,,,,,712,19,male,up_down_width,2024-05-29_15h39.39.822,exp1,2023.1.0,59.99041352876004,
,,,,,,,,,,,,,,,,4,9.1,9.7,10.3,10.9,0,0.6,0.04999999999999997,0.55,2.35,10,match,36.05,328,350,371,393,0,9,9,9,9,0,,,,,,,1,0,1,0,0,22,22,12,,,,,,,,,,,,num_3,2.342037199996412,num_3,0.2,1,0.6,0.65,22.9233,24.83358,return,3.4470797000685707,,,,,,,,,,,,,,,,,712,19,male,up_down_width,2024-05-29_15h39.39.822,exp1,2023.1.0,59.99041352876004,
,,,,,,,,,,,,,,,,5,8.6,9.3,10,10.7,11.4,0.7,0.44999999999999996,0.25,3.05,10,initial,36.05,310,335,361,386,411,9,9,9,9,9,,,,,,,1,0,1,0,0,23,23,42,,,,,,,,,,,,num_5,1.09905219997745,num_5,0.35,1.3,0.25,0.95,9.55138,36.29523,return,2.445186600089073,,,,,,,,,,,,,,,,,712,19,male,up_down_width,2024-05-29_15h39.39.822,exp1,2023.1.0,59.99041352876004,
,,,,,,,,,,,,,,,,4,9.1,9.7,10.3,10.9,0,0.6000000000000001,0.20000000000000004,0.4,2.2,10,match,36.05,328,350,371,393,0,9,9,9,9,0,,,,,,,1,0,1,0,0,24,24,16,,,,,,,,,,,,num_3,1.1253766999579966,num_3,0.55,0.9,0.45,0.75,17.19248,28.65413,return,2.498704000026919,,,,,,,,,,,,,,,,,712,19,male,up_down_width,2024-05-29_15h39.39.822,exp1,2023.1.0,59.99041352876004,
,,,,,,,,,,,,,,,,3,8.6,10,11.4,0,0,1.4,0.85,0.55,3.35,10,match,36.05,310,361,411,0,0,9,9,9,0,0,,,,,,,1,0,1,0,0,25,25,41,,,,,,,,,,,,num_3,0.9964247000170872,num_3,0.55,1.2,0.45,1.4,17.19248,53.48771,return,1.9774163000984117,,,,,,,,,,,,,,,,,712,19,male,up_down_width,2024-05-29_15h39.39.822,exp1,2023.1.0,59.99041352876004,
,,,,,,,,,,,,,,,,5,7.8,8.9,10,11.1,12.2,1.1,0.8500000000000001,0.25,4.65,10,initial,36.05,281,321,361,400,440,9,9,9,9,9,,,,,,,1,0,1,0,0,26,26,36,,,,,,,,,,,,num_5,0.8933866999577731,num_5,0.3,0.4,0.25,0.9,9.55138,34.38495,return,2.536437400034629,,,,,,,,,,,,,,,,,712,19,male,up_down_width,2024-05-29_15h39.39.822,exp1,2023.1.0,59.99041352876004,
,,,,,,,,,,,,,,,,3,8.2,10,11.8,0,0,1.8,1.25,0.55,4.15,10,match,36.05,296,361,425,0,0,9,9,9,0,0,,,,,,,1,0,1,0,0,27,27,47,,,,,,,,,,,,num_3,0.7327083999989554,num_3,0.5,0.7,0.7000000000000002,1.9,26.74385,72.59046,return,5.929848200059496,,,,,,,,,,,,,,,,,712,19,male,up_down_width,2024-05-29_15h39.39.822,exp1,2023.1.0,59.99041352876004,
,,,,,,,,,,,,,,,,5,8.6,9.3,10,10.7,11.4,0.7,0.1499999999999999,0.55,3.3499999999999996,10,initial,36.05,310,335,361,386,411,9,9,9,9,9,,,,,,,1,0,1,0,0,28,28,40,,,,,,,,,,,,num_4,1.634538699989207,num_4,0.3,0.7,0.5499999999999999,0.9,21.01303,34.38495,return,3.8405372999841347,,,,,,,,,,,,,,,,,712,19,male,up_down_width,2024-05-29_15h39.39.822,exp1,2023.1.0,59.99041352876004,
,,,,,,,,,,,,,,,,4,8.35,9.45,10.55,11.65,0,1.1,0.8500000000000001,0.25,3.5500000000000003,10,initial,36.05,301,341,380,420,0,9,9,9,9,0,,,,,,,1,0,1,0,0,29,29,19,,,,,,,,,,,,num_4,1.0330314999446273,num_4,0.45,1.0,0.15000000000000008,1.3,5.73083,49.66716,return,2.365709299920127,,,,,,,,,,,,,,,,,712,19,male,up_down_width,2024-05-29_15h39.39.822,exp1,2023.1.0,59.99041352876004,
,,,,,,,,,,,,,,,,3,7.8,10,12.2,0,0,2.2,1.9500000000000002,0.25,4.65,10,match,36.05,281,361,440,0,0,9,9,9,0,0,,,,,,,1,0,1,0,0,30,30,37,,,,,,,,,,,,num_3,1.091296699945815,num_3,0.55,0.7,0.20000000000000007,1.55,7.6411,59.21853,return,4.753146499977447,,,,,,,,,,,,,,,,,712,19,male,up_down_width,2024-05-29_15h39.39.822,exp1,2023.1.0,59.99041352876004,
,,,,,,,,,,,,,,,,5,8.2,9.1,10,10.9,11.8,0.9,0.65,0.25,3.85,10,initial,36.05,296,328,361,393,425,9,9,9,9,9,,,,,,,1,0,1,0,0,31,31,48,,,,,,,,,,,,num_6,1.0195497000822797,num_6,0.45,0.8,0.15000000000000008,1.0,5.73083,38.2055,return,2.287014100002125,,,,,,,,,,,,,,,,,712,19,male,up_down_width,2024-05-29_15h39.39.822,exp1,2023.1.0,59.99041352876004,
,,,,,,,,,,,,,,,,5,8.35,9.175,10,10.825,11.65,0.8250000000000001,0.275,0.55,3.85,10,match,36.05,301,331,361,390,420,9,9,9,9,9,,,,,,,1,0,1,0,0,32,32,18,,,,,,,,,,,,num_6,1.1756896999431774,num_6,0.45,1.2,0.6500000000000001,0.9,24.83358,34.38495,return,2.1479875000659376,,,,,,,,,,,,,,,,,712,19,male,up_down_width,2024-05-29_15h39.39.822,exp1,2023.1.0,59.99041352876004,
,,,,,,,,,,,,,,,,4,9.3,9.766666666666667,10.233333333333333,10.7,0,0.4666666666666667,0.06666666666666665,0.4,1.8,10,match,36.05,335,352,369,386,0,9,9,9,9,0,,,,,,,1,0,1,0,0,33,33,10,,,,,,,,,,,,num_4,1.0271571999182925,num_4,0.35,0.7,0.49999999999999994,0.6,19.10275,22.9233,return,3.752116500050761,,,,,,,,,,,,,,,,,712,19,male,up_down_width,2024-05-29_15h39.39.822,exp1,2023.1.0,59.99041352876004,
,,,,,,,,,,,,,,,,5,8.6,9.3,10,10.7,11.4,0.7,0.29999999999999993,0.4,3.1999999999999997,10,initial,36.05,310,335,361,386,411,9,9,9,9,9,,,,,,,1,0,1,0,0,34,34,44,,,,,,,,,,,,num_5,0.9051863000495359,num_5,0.4,1.3,0.5,0.8,19.10275,30.5644,return,3.2797840000130236,,,,,,,,,,,,,,,,,712,19,male,up_down_width,2024-05-29_15h39.39.822,exp1,2023.1.0,59.99041352876004,
,,,,,,,,,,,,,,,,4,8.65,9.55,10.45,11.35,0,0.9,0.35,0.55,3.25,10,initial,36.05,312,344,377,409,0,9,9,9,9,0,,,,,,,1,0,1,0,0,35,35,28,,,,,,,,,,,,num_4,0.7822909000096843,num_4,0.3,1.3,0.49999999999999994,0.7,19.10275,26.74385,return,2.7345008000265807,,,,,,,,,,,,,,,,,712,19,male,up_down_width,2024-05-29_15h39.39.822,exp1,2023.1.0,59.99041352876004,
,,,,,,,,,,,,,,,,4,8.35,9.45,10.55,11.65,0,1.1,0.55,0.55,3.8500000000000005,10,initial,36.05,301,341,380,420,0,9,9,9,9,0,,,,,,,1,0,1,0,0,36,36,17,,,,,,,,,,,,num_4,0.8402145999716595,num_4,0.3,0.3,0.39999999999999997,0.8,15.2822,30.5644,return,4.477435600012541,,,,,,,,,,,,,,,,,712,19,male,up_down_width,2024-05-29_15h39.39.822,exp1,2023.1.0,59.99041352876004,
,,,,,,,,,,,,,,,,4,8.95,9.65,10.35,11.05,0,0.7,0.44999999999999996,0.25,2.3499999999999996,10,initial,36.05,323,348,373,398,0,9,9,9,9,0,,,,,,,1,0,1,0,0,37,37,24,,,,,,,,,,,,num_4,0.932298899977468,num_4,0.3,1.2,0.3,1.0,11.46165,38.2055,return,1.356496199965477,,,,,,,,,,,,,,,,,712,19,male,up_down_width,2024-05-29_15h39.39.822,exp1,2023.1.0,59.99041352876004,
,,,,,,,,,,,,,,,,5,7.8,8.9,10,11.1,12.2,1.1,0.55,0.55,4.95,10,initial,36.05,281,321,361,400,440,9,9,9,9,9,,,,,,,1,0,1,0,0,38,38,34,,,,,,,,,,,,num_6,1.2357581000542268,num_6,0.55,0.8,0.5,0.9,19.10275,34.38495,return,2.689546399982646,,,,,,,,,,,,,,,,,712,19,male,up_down_width,2024-05-29_15h39.39.822,exp1,2023.1.0,59.99041352876004,
,,,,,,,,,,,,,,,,4,8.9,9.633333333333333,10.366666666666667,11.1,0,0.7333333333333333,0.18333333333333326,0.55,2.75,10,match,36.05,321,347,374,400,0,9,9,9,9,0,,,,,,,1,0,1,0,0,39,39,1,,,,,,,,,,,,num_4,0.7612449999433011,num_4,0.4,0.6,0.5,0.7,19.10275,26.74385,return,3.1243569999933243,,,,,,,,,,,,,,,,,712,19,male,up_down_width,2024-05-29_15h39.39.822,exp1,2023.1.0,59.99041352876004,
,,,,,,,,,,,,,,,,5,8.95,9.475,10,10.525,11.05,0.525,0.125,0.4,2.5,10,match,36.05,323,342,361,379,398,9,9,9,9,9,,,,,,,1,0,1,0,0,40,40,27,,,,,,,,,,,,num_6,1.337240600027144,num_6,0.25,0.4,0.3,0.4,11.46165,15.2822,return,1.94888139993418,,,,,,,,,,,,,,,,,712,19,male,up_down_width,2024-05-29_15h39.39.822,exp1,2023.1.0,59.99041352876004,
,,,,,,,,,,,,,,,,3,9.1,10,10.9,0,0,0.9,0.65,0.25,2.05,10,initial,36.05,328,361,393,0,0,9,9,9,0,0,,,,,,,1,0,1,0,0,41,41,13,,,,,,,,,,,,num_3,1.0372953000478446,num_3,0.2,1.2,0.10000000000000002,1.2,3.82055,45.8466,return,1.2468586000613868,,,,,,,,,,,,,,,,,712,19,male,up_down_width,2024-05-29_15h39.39.822,exp1,2023.1.0,59.99041352876004,
,,,,,,,,,,,,,,,,3,9.3,10,10.7,0,0,0.7,0.44999999999999996,0.25,1.65,10,initial,36.05,335,361,386,0,0,9,9,9,0,0,,,,,,,1,0,1,0,0,42,42,7,,,,,,,,,,,,num_3,1.091921400045976,num_3,0.55,0.7,0.20000000000000007,0.85,7.6411,32.47468,return,3.026757700019516,,,,,,,,,,,,,,,,,712,19,male,up_down_width,2024-05-29_15h39.39.822,exp1,2023.1.0,59.99041352876004,
,,,,,,,,,,,,,,,,4,8.35,9.45,10.55,11.65,0,1.1,0.7000000000000001,0.4,3.7,10,initial,36.05,301,341,380,420,0,9,9,9,9,0,,,,,,,1,0,1,0,0,43,43,21,,,,,,,,,,,,num_5,1.231555899954401,num_5,0.2,1.0,0.44999999999999996,1.05,17.19248,40.11578,return,2.380661099916324,,,,,,,,,,,,,,,,,712,19,male,up_down_width,2024-05-29_15h39.39.822,exp1,2023.1.0,59.99041352876004,
,,,,,,,,,,,,,,,,4,8.9,9.633333333333333,10.366666666666667,11.1,0,0.7333333333333334,0.4833333333333334,0.25,2.45,10,match,36.05,321,347,374,400,0,9,9,9,9,0,,,,,,,1,0,1,0,0,44,44,3,,,,,,,,,,,,num_4,1.8235569999087602,num_4,0.25,1.2,0.25,0.9,9.55138,34.38495,return,1.5098040000302717,,,,,,,,,,,,,,,,,712,19,male,up_down_width,2024-05-29_15h39.39.822,exp1,2023.1.0,59.99041352876004,
,,,,,,,,,,,,,,,,3,9.1,10,10.9,0,0,0.9,0.5,0.4,2.2,10,initial,36.05,328,361,393,0,0,9,9,9,0,0,,,,,,,1,0,1,0,0,45,45,15,,,,,,,,,,,,num_3,1.0992479000706226,num_3,0.35,1.1,0.49999999999999994,1.0,19.10275,38.2055,return,2.3303078999742866,,,,,,,,,,,,,,,,,712,19,male,up_down_width,2024-05-29_15h39.39.822,exp1,2023.1.0,59.99041352876004,
,,,,,,,,,,,,,,,,3,9.3,10,10.7,0,0,0.7,0.29999999999999993,0.4,1.8,10,initial,36.05,335,361,386,0,0,9,9,9,0,0,,,,,,,1,0,1,0,0,46,46,9,,,,,,,,,,,,num_3,0.8961107999784872,num_3,0.55,0.9,0.6000000000000001,0.85,22.9233,32.47468,return,1.1312166000716388,,,,,,,,,,,,,,,,,712,19,male,up_down_width,2024-05-29_15h39.39.822,exp1,2023.1.0,59.99041352876004,
,,,,,,,,,,,,,,,,5,7.8,8.9,10,11.1,12.2,1.1,0.7000000000000001,0.4,4.800000000000001,10,initial,36.05,281,321,361,400,440,9,9,9,9,9,,,,,,,1,0,1,0,0,47,47,38,,,,,,,,,,,,num_6,0.9826219000387937,num_6,0.2,0.4,0.35,1.0,13.37193,38.2055,return,3.2110601000022143,,,,,,,,,,,,,,,,,712,19,male,up_down_width,2024-05-29_15h39.39.822,exp1,2023.1.0,59.99041352876004,
,,,,,,,,,,,,,,,,5,8.95,9.475,10,10.525,11.05,0.525,0.275,0.25,2.35,10,match,36.05,323,342,361,379,398,9,9,9,9,9,,,,,,,1,0,1,0,0,48,48,25,,,,,,,,,,,,num_5,0.8432085999520496,num_5,0.25,1.1,0.25,0.95,9.55138,36.29523,return,3.224067799979821,,,,,,,,,,,,,,,,,712,19,male,up_down_width,2024-05-29_15h39.39.822,exp1,2023.1.0,59.99041352876004,
,,,,,,,,,,,,,,,,5,8.65,9.325,10,10.675,11.35,0.675,0.125,0.55,3.25,10,match,36.05,312,336,361,385,409,9,9,9,9,9,,,,,,,1,0,1,0,0,49,49,29,,,,,,,,,,,,num_5,1.1730379000073299,num_5,0.35,1.1,0.65,0.85,24.83358,32.47468,return,4.44972819997929,,,,,,,,,,,,,,,,,712,19,male,up_down_width,2024-05-29_15h39.39.822,exp1,2023.1.0,59.99041352876004,
,,,,,,,,,,,,,,,,4,9.3,9.766666666666667,10.233333333333333,10.7,0,0.4666666666666667,0.21666666666666665,0.25,1.65,10,match,36.05,335,352,369,386,0,9,9,9,9,0,,,,,,,1,0,1,0,0,50,50,8,,,,,,,,,,,,num_5,1.1779722000937909,num_5,0.25,0.6,0.25,0.55,9.55138,21.01303,return,1.4958317000418901,,,,,,,,,,,,,,,,,712,19,male,up_down_width,2024-05-29_15h39.39.822,exp1,2023.1.0,59.99041352876004,
,,,,,,,,,,,,,,,,5,8.35,9.175,10,10.825,11.65,0.825,0.575,0.25,3.55,10,match,36.05,301,331,361,390,420,9,9,9,9,9,,,,,,,1,0,1,0,0,51,51,20,,,,,,,,,,,,num_6,0.9778527000453323,num_6,0.3,0.8,0.25,0.9,9.55138,34.38495,return,3.1387558999704197,,,,,,,,,,,,,,,,,712,19,male,up_down_width,2024-05-29_15h39.39.822,exp1,2023.1.0,59.99041352876004,
,,,,,,,,,,,,,,,,,,,,,,,,,,,,,,,,,,,,,,,,,,,,,1,0,1,0,,,,,,,,,,,,,,,,,,,,,,,,,,,,,1015.6893939999864,1015.6893939999864,1015.6893939999864,,,,,,,,,,,,712,19,male,up_down_width,2024-05-29_15h39.39.822,exp1,2023.1.0,59.99041352876004,
,,,,,,,,,,,,,,,,5,8.6,9.3,10,10.7,11.4,0.7,0.1499999999999999,0.55,3.3499999999999996,10,initial,36.05,310,335,361,386,411,9,9,9,9,9,,,,,,,2,0,2,0,0,0,0,40,,,,,,,,,,,,num_5,0.9493545999284834,num_5,0.5,0.9,0.6000000000000001,0.8,22.9233,30.5644,return,1.6107199999969453,,,,,,,,,,,,,,,,,712,19,male,up_down_width,2024-05-29_15h39.39.822,exp1,2023.1.0,59.99041352876004,
,,,,,,,,,,,,,,,,4,8.95,9.65,10.35,11.05,0,0.7,0.29999999999999993,0.4,2.5,10,initial,36.05,323,348,373,398,0,9,9,9,9,0,,,,,,,2,0,2,0,0,1,1,26,,,,,,,,,,,,num_4,0.9126564000034705,num_4,0.2,1.3,0.39999999999999997,0.8,15.2822,30.5644,return,1.9730217000469565,,,,,,,,,,,,,,,,,712,19,male,up_down_width,2024-05-29_15h39.39.822,exp1,2023.1.0,59.99041352876004,
,,,,,,,,,,,,,,,,5,7.8,8.9,10,11.1,12.2,1.1,0.8500000000000001,0.25,4.65,10,initial,36.05,281,321,361,400,440,9,9,9,9,9,,,,,,,2,0,2,0,0,2,2,36,,,,,,,,,,,,num_7,1.1901005000108853,num_7,0.55,1.0,0.35000000000000003,0.8,13.37193,30.5644,return,2.5164628999773413,,,,,,,,,,,,,,,,,712,19,male,up_down_width,2024-05-29_15h39.39.822,exp1,2023.1.0,59.99041352876004,
,,,,,,,,,,,,,,,,4,9.1,9.7,10.3,10.9,0,0.6,0.04999999999999997,0.55,2.35,10,match,36.05,328,350,371,393,0,9,9,9,9,0,,,,,,,2,0,2,0,0,3,3,12,,,,,,,,,,,,num_4,1.2418071000138298,num_4,0.25,0.5,0.65,0.7,24.83358,26.74385,return,4.6729367999359965,,,,,,,,,,,,,,,,,712,19,male,up_down_width,2024-05-29_15h39.39.822,exp1,2023.1.0,59.99041352876004,
,,,,,,,,,,,,,,,,4,8.35,9.45,10.55,11.65,0,1.1,0.8500000000000001,0.25,3.5500000000000003,10,initial,36.05,301,341,380,420,0,9,9,9,9,0,,,,,,,2,0,2,0,0,4,4,19,,,,,,,,,,,,num_4,1.0160293000517413,num_4,0.3,0.5,0.25,1.1,9.55138,42.02605,return,2.6799532000441104,,,,,,,,,,,,,,,,,712,19,male,up_down_width,2024-05-29_15h39.39.822,exp1,2023.1.0,59.99041352876004,
,,,,,,,,,,,,,,,,3,8.9,10,11.1,0,0,1.1,0.7000000000000001,0.4,2.6000000000000005,10,initial,36.05,321,361,400,0,0,9,9,9,0,0,,,,,,,2,0,2,0,0,5,5,4,,,,,,,,,,,,num_3,0.8173523999284953,num_3,0.2,0.8,0.44999999999999996,1.0,17.19248,38.2055,return,2.4303214999381453,,,,,,,,,,,,,,,,,712,19,male,up_down_width,2024-05-29_15h39.39.822,exp1,2023.1.0,59.99041352876004,
,,,,,,,,,,,,,,,,5,8.35,9.175,10,10.825,11.65,0.8250000000000001,0.275,0.55,3.85,10,match,36.05,301,331,361,390,420,9,9,9,9,9,,,,,,,2,0,2,0,0,6,6,18,,,,,,,,,,,,num_5,0.9917697999626398,num_5,0.55,1.1,0.5,0.95,19.10275,36.29523,return,2.5300185000523925,,,,,,,,,,,,,,,,,712,19,male,up_down_width,2024-05-29_15h39.39.822,exp1,2023.1.0,59.99041352876004,
,,,,,,,,,,,,,,,,5,8.65,9.325,10,10.675,11.35,0.675,0.42500000000000004,0.25,2.95,10,match,36.05,312,336,361,385,409,9,9,9,9,9,,,,,,,2,0,2,0,0,7,7,31,,,,,,,,,,,,num_5,0.9710495999315754,num_5,0.2,0.9,0.2,0.7,7.6411,26.74385,return,1.4859279999509454,,,,,,,,,,,,,,,,,712,19,male,up_down_width,2024-05-29_15h39.39.822,exp1,2023.1.0,59.99041352876004,
,,,,,,,,,,,,,,,,5,8.2,9.1,10,10.9,11.8,0.9,0.35,0.55,4.15,10,initial,36.05,296,328,361,393,425,9,9,9,9,9,,,,,,,2,0,2,0,0,8,8,46,,,,,,,,,,,,num_6,1.024416200001724,num_6,0.4,0.8,0.5,0.9,19.10275,34.38495,return,1.8306267000734806,,,,,,,,,,,,,,,,,712,19,male,up_down_width,2024-05-29_15h39.39.822,exp1,2023.1.0,59.99041352876004,
,,,,,,,,,,,,,,,,3,9.1,10,10.9,0,0,0.9,0.65,0.25,2.05,10,initial,36.05,328,361,393,0,0,9,9,9,0,0,,,,,,,2,0,2,0,0,9,9,13,,,,,,,,,,,,num_3,0.9291849000146613,num_3,0.55,1,0.30000000000000004,1,11.46165,38.2055,return,1.7178704999387264,,,,,,,,,,,,,,,,,712,19,male,up_down_width,2024-05-29_15h39.39.822,exp1,2023.1.0,59.99041352876004,
,,,,,,,,,,,,,,,,3,8.9,10,11.1,0,0,1.1,0.8500000000000001,0.25,2.45,10,initial,36.05,321,361,400,0,0,9,9,9,0,0,,,,,,,2,0,2,0,0,10,10,2,,,,,,,,,,,,num_3,0.92050239990931,num_3,0.25,1.3,0.15000000000000002,1.3,5.73083,49.66716,return,1.458213399979286,,,,,,,,,,,,,,,,,712,19,male,up_down_width,2024-05-29_15h39.39.822,exp1,2023.1.0,59.99041352876004,
,,,,,,,,,,,,,,,,5,8.6,9.3,10,10.7,11.4,0.7,0.29999999999999993,0.4,3.1999999999999997,10,initial,36.05,310,335,361,386,411,9,9,9,9,9,,,,,,,2,0,2,0,0,11,11,44,,,,,,,,,,,,num_6,0.8748390000546351,num_6,0.2,0.5,0.3,0.7,11.46165,26.74385,return,2.397171300021,,,,,,,,,,,,,,,,,712,19,male,up_down_width,2024-05-29_15h39.39.822,exp1,2023.1.0,59.99041352876004,
,,,,,,,,,,,,,,,,4,8.95,9.65,10.35,11.05,0,0.7,0.44999999999999996,0.25,2.3499999999999996,10,initial,36.05,323,348,373,398,0,9,9,9,9,0,,,,,,,2,0,2,0,0,12,12,24,,,,,,,,,,,,num_4,0.8252358000027016,num_4,0.25,1.3,0.25,0.8,9.55138,30.5644,return,1.7631690999260172,,,,,,,,,,,,,,,,,712,19,male,up_down_width,2024-05-29_15h39.39.822,exp1,2023.1.0,59.99041352876004,
,,,,,,,,,,,,,,,,4,8.35,9.45,10.55,11.65,0,1.1,0.55,0.55,3.8500000000000005,10,initial,36.05,301,341,380,420,0,9,9,9,9,0,,,,,,,2,0,2,0,0,13,13,17,,,,,,,,,,,,num_6,0.9640036000637338,num_6,0.2,1.0,0.44999999999999996,0.7,17.19248,26.74385,return,2.377615400007926,,,,,,,,,,,,,,,,,712,19,male,up_down_width,2024-05-29_15h39.39.822,exp1,2023.1.0,59.99041352876004,
,,,,,,,,,,,,,,,,4,8.35,9.45,10.55,11.65,0,1.1,0.7000000000000001,0.4,3.7,10,initial,36.05,301,341,380,420,0,9,9,9,9,0,,,,,,,2,0,2,0,0,14,14,21,,,,,,,,,,,,num_6,1.1752487999619916,num_6,0.4,0.5,0.30000000000000004,0.6,11.46165,22.9233,return,2.4022803000407293,,,,,,,,,,,,,,,,,712,19,male,up_down_width,2024-05-29_15h39.39.822,exp1,2023.1.0,59.99041352876004,
,,,,,,,,,,,,,,,,5,8.95,9.475,10,10.525,11.05,0.525,0.275,0.25,2.35,10,match,36.05,323,342,361,379,398,9,9,9,9,9,,,,,,,2,0,2,0,0,15,15,25,,,,,,,,,,,,num_5,0.9759043999947608,num_5,0.2,0.9,0.2,0.75,7.6411,28.65413,return,1.4644459000555798,,,,,,,,,,,,,,,,,712,19,male,up_down_width,2024-05-29_15h39.39.822,exp1,2023.1.0,59.99041352876004,
,,,,,,,,,,,,,,,,3,8.2,10,11.8,0,0,1.8,1.55,0.25,3.85,10,match,36.05,296,361,425,0,0,9,9,9,0,0,,,,,,,2,0,2,0,0,16,16,49,,,,,,,,,,,,num_2,0.9860669999616221,num_2,0.55,0.6,0.25000000000000006,2.5,9.55138,95.51376,return,4.2728182000573725,,,,,,,,,,,,,,,,,712,19,male,up_down_width,2024-05-29_15h39.39.822,exp1,2023.1.0,59.99041352876004,
,,,,,,,,,,,,,,,,3,8.9,10,11.1,0,0,1.1,0.55,0.55,2.75,10,initial,36.05,321,361,400,0,0,9,9,9,0,0,,,,,,,2,0,2,0,0,17,17,0,,,,,,,,,,,,num_2,1.0852540000341833,num_2,0.2,1.0,0.7000000000000001,2.0,26.74385,76.41101,return,3.7770637999055907,,,,,,,,,,,,,,,,,712,19,male,up_down_width,2024-05-29_15h39.39.822,exp1,2023.1.0,59.99041352876004,
,,,,,,,,,,,,,,,,5,8.6,9.3,10,10.7,11.4,0.7,0.44999999999999996,0.25,3.05,10,initial,36.05,310,335,361,386,411,9,9,9,9,9,,,,,,,2,0,2,0,0,18,18,42,,,,,,,,,,,,num_6,1.1968701999867335,num_6,0.45,0.5,0.35000000000000003,0.7,13.37193,26.74385,return,2.357791699934751,,,,,,,,,,,,,,,,,712,19,male,up_down_width,2024-05-29_15h39.39.822,exp1,2023.1.0,59.99041352876004,
,,,,,,,,,,,,,,,,4,8.65,9.55,10.45,11.35,0,0.9,0.65,0.25,2.95,10,initial,36.05,312,344,377,409,0,9,9,9,9,0,,,,,,,2,0,2,0,0,19,19,30,,,,,,,,,,,,num_4,1.4250756000401452,num_4,0.35,0.4,0.35,0.7,13.37193,26.74385,return,1.8553818999789655,,,,,,,,,,,,,,,,,712,19,male,up_down_width,2024-05-29_15h39.39.822,exp1,2023.1.0,59.99041352876004,
,,,,,,,,,,,,,,,,4,9.3,9.766666666666667,10.233333333333333,10.7,0,0.4666666666666667,0.21666666666666665,0.25,1.65,10,match,36.05,335,352,369,386,0,9,9,9,9,0,,,,,,,2,0,2,0,0,20,20,8,,,,,,,,,,,,num_4,1.2535689000505954,num_4,0.55,1.0,0.4,0.6,15.2822,22.9233,return,2.081024300074205,,,,,,,,,,,,,,,,,712,19,male,up_down_width,2024-05-29_15h39.39.822,exp1,2023.1.0,59.99041352876004,
,,,,,,,,,,,,,,,,4,9.3,9.766666666666667,10.233333333333333,10.7,0,0.4666666666666667,0.06666666666666665,0.4,1.8,10,match,36.05,335,352,369,386,0,9,9,9,9,0,,,,,,,2,0,2,0,0,21,21,10,,,,,,,,,,,,num_4,1.0945253999670967,num_4,0.2,0.8,0.5499999999999999,0.6,21.01303,22.9233,return,3.410369399935007,,,,,,,,,,,,,,,,,712,19,male,up_down_width,2024-05-29_15h39.39.822,exp1,2023.1.0,59.99041352876004,
,,,,,,,,,,,,,,,,4,8.65,9.55,10.45,11.35,0,0.9,0.35,0.55,3.25,10,initial,36.05,312,344,377,409,0,9,9,9,9,0,,,,,,,2,0,2,0,0,22,22,28,,,,,,,,,,,,num_5,1.1443905999185517,num_5,0.25,0.9,0.49999999999999994,0.65,19.10275,24.83358,return,2.563763399957679,,,,,,,,,,,,,,,,,712,19,male,up_down_width,2024-05-29_15h39.39.822,exp1,2023.1.0,59.99041352876004,
,,,,,,,,,,,,,,,,5,8.275,9.1375,10,10.8625,11.725,0.8625,0.6125,0.25,3.7,10,match,36.05,298,329,361,392,423,9,9,9,9,9,,,,,,,2,0,2,0,0,23,23,22,,,,,,,,,,,,num_6,0.9922958000097424,num_6,0.2,0.7,0.2,0.9,7.6411,34.38495,return,2.070412299945019,,,,,,,,,,,,,,,,,712,19,male,up_down_width,2024-05-29_15h39.39.822,exp1,2023.1.0,59.99041352876004,
,,,,,,,,,,,,,,,,3,7.8,10,12.2,0,0,2.2,1.65,0.55,4.95,10,match,36.05,281,361,440,0,0,9,9,9,0,0,,,,,,,2,0,2,0,0,24,24,35,,,,,,,,,,,,num_3,1.0196730999741703,num_3,0.25,1.2,0.8500000000000002,2.15,32.47468,82.14183,return,4.911580999963917,,,,,,,,,,,,,,,,,712,19,male,up_down_width,2024-05-29_15h39.39.822,exp1,2023.1.0,59.99041352876004,
,,,,,,,,,,,,,,,,3,9.3,10,10.7,0,0,0.7,0.29999999999999993,0.4,1.8,10,initial,36.05,335,361,386,0,0,9,9,9,0,0,,,,,,,2,0,2,0,0,25,25,9,,,,,,,,,,,,num_4,1.459251599968411,num_4,0.4,1.2,0.5,0.7,19.10275,26.74385,return,2.024037699913606,,,,,,,,,,,,,,,,,712,19,male,up_down_width,2024-05-29_15h39.39.822,exp1,2023.1.0,59.99041352876004,
,,,,,,,,,,,,,,,,3,7.8,10,12.2,0,0,2.2,1.9500000000000002,0.25,4.65,10,match,36.05,281,361,440,0,0,9,9,9,0,0,,,,,,,2,0,2,0,0,26,26,37,,,,,,,,,,,,num_3,1.0450350000755861,num_3,0.4,1.3,0.35000000000000003,1.7,13.37193,64.94936,return,2.425793300033547,,,,,,,,,,,,,,,,,712,19,male,up_down_width,2024-05-29_15h39.39.822,exp1,2023.1.0,59.99041352876004,
,,,,,,,,,,,,,,,,4,9.1,9.7,10.3,10.9,0,0.6000000000000001,0.20000000000000004,0.4,2.2,10,match,36.05,328,350,371,393,0,9,9,9,9,0,,,,,,,2,0,2,0,0,27,27,16,,,,,,,,,,,,num_4,1.1041926000034437,num_4,0.45,0.5,0.45,0.7,17.19248,26.74385,return,1.4868715000338852,,,,,,,,,,,,,,,,,712,19,male,up_down_width,2024-05-29_15h39.39.822,exp1,2023.1.0,59.99041352876004,
,,,,,,,,,,,,,,,,4,9.1,9.7,10.3,10.9,0,0.5999999999999999,0.3499999999999999,0.25,2.05,10,match,36.05,328,350,371,393,0,9,9,9,9,0,,,,,,,2,0,2,0,0,28,28,14,,,,,,,,,,,,num_4,1.080948599963449,num_4,0.55,1.1,0.30000000000000004,0.7,11.46165,26.74385,return,2.6353891999460757,,,,,,,,,,,,,,,,,712,19,male,up_down_width,2024-05-29_15h39.39.822,exp1,2023.1.0,59.99041352876004,
,,,,,,,,,,,,,,,,5,8.65,9.325,10,10.675,11.35,0.675,0.275,0.4,3.1,10,match,36.05,312,336,361,385,409,9,9,9,9,9,,,,,,,2,0,2,0,0,29,29,33,,,,,,,,,,,,num_5,0.9327044999226928,num_5,0.35,1.3,0.39999999999999997,0.75,15.2822,28.65413,return,3.0696066999807954,,,,,,,,,,,,,,,,,712,19,male,up_down_width,2024-05-29_15h39.39.822,exp1,2023.1.0,59.99041352876004,
,,,,,,,,,,,,,,,,4,8.65,9.55,10.45,11.35,0,0.9,0.5,0.4,3.1,10,initial,36.05,312,344,377,409,0,9,9,9,9,0,,,,,,,2,0,2,0,0,30,30,32,,,,,,,,,,,,num_5,1.0659786999458447,num_5,0.25,0.3,0.39999999999999997,0.65,15.2822,24.83358,return,2.8280971000203863,,,,,,,,,,,,,,,,,712,19,male,up_down_width,2024-05-29_15h39.39.822,exp1,2023.1.0,59.99041352876004,
,,,,,,,,,,,,,,,,3,8.6,10,11.4,0,0,1.4,1.15,0.25,3.05,10,match,36.05,310,361,411,0,0,9,9,9,0,0,,,,,,,2,0,2,0,0,31,31,43,,,,,,,,,,,,num_2,0.9226404000073671,num_2,0.2,0.6,0.2,3.0,7.6411,114.61651,return,4.533019699971192,,,,,,,,,,,,,,,,,712,19,male,up_down_width,2024-05-29_15h39.39.822,exp1,2023.1.0,59.99041352876004,
,,,,,,,,,,,,,,,,4,8.9,9.633333333333333,10.366666666666667,11.1,0,0.7333333333333334,0.4833333333333334,0.25,2.45,10,match,36.05,321,347,374,400,0,9,9,9,9,0,,,,,,,2,0,2,0,0,32,32,3,,,,,,,,,,,,num_4,1.1374023000244051,num_4,0.3,0.7,0.3,1.0,11.46165,38.2055,return,1.13859250000678,,,,,,,,,,,,,,,,,712,19,male,up_down_width,2024-05-29_15h39.39.822,exp1,2023.1.0,59.99041352876004,
,,,,,,,,,,,,,,,,3,8.525,10,11.475,0,0,1.475,1.225,0.25,3.2,10,match,36.05,307,361,414,0,0,9,9,9,0,0,,,,,,,2,0,2,0,0,33,33,45,,,,,,,,,,,,num_2,0.8140056999400258,num_2,0.2,0.8,0.2,3.0,7.6411,114.61651,return,3.591416100040078,,,,,,,,,,,,,,,,,712,19,male,up_down_width,2024-05-29_15h39.39.822,exp1,2023.1.0,59.99041352876004,
,,,,,,,,,,,,,,,,5,8.35,9.175,10,10.825,11.65,0.825,0.575,0.25,3.55,10,match,36.05,301,331,361,390,420,9,9,9,9,9,,,,,,,2,0,2,0,0,34,34,20,,,,,,,,,,,,num_6,1.124104900052771,num_6,0.3,1.1,0.25,0.7,9.55138,26.74385,return,2.018585800076835,,,,,,,,,,,,,,,,,712,19,male,up_down_width,2024-05-29_15h39.39.822,exp1,2023.1.0,59.99041352876004,
,,,,,,,,,,,,,,,,5,8.2,9.1,10,10.9,11.8,0.9,0.65,0.25,3.85,10,initial,36.05,296,328,361,393,425,9,9,9,9,9,,,,,,,2,0,2,0,0,35,35,48,,,,,,,,,,,,num_6,0.9563512000022456,num_6,0.25,0.6,0.25,0.9,9.55138,34.38495,return,1.140272399992682,,,,,,,,,,,,,,,,,712,19,male,up_down_width,2024-05-29_15h39.39.822,exp1,2023.1.0,59.99041352876004,
,,,,,,,,,,,,,,,,5,8.65,9.325,10,10.675,11.35,0.675,0.125,0.55,3.25,10,match,36.05,312,336,361,385,409,9,9,9,9,9,,,,,,,2,0,2,0,0,36,36,29,,,,,,,,,,,,num_5,1.0873975999420509,num_5,0.25,0.5,0.49999999999999994,0.6,19.10275,22.9233,return,2.487328700022772,,,,,,,,,,,,,,,,,712,19,male,up_down_width,2024-05-29_15h39.39.822,exp1,2023.1.0,59.99041352876004,
,,,,,,,,,,,,,,,,5,8.2,9.1,10,10.9,11.8,0.9,0.5,0.4,4,10,initial,36.05,296,328,361,393,425,9,9,9,9,9,,,,,,,2,0,2,0,0,37,37,50,,,,,,,,,,,,num_7,1.0787640999769792,num_7,0.45,0.7,0.5,0.8,19.10275,30.5644,return,1.9609471000730991,,,,,,,,,,,,,,,,,712,19,male,up_down_width,2024-05-29_15h39.39.822,exp1,2023.1.0,59.99041352876004,
,,,,,,,,,,,,,,,,5,7.8,8.9,10,11.1,12.2,1.1,0.7000000000000001,0.4,4.800000000000001,10,initial,36.05,281,321,361,400,440,9,9,9,9,9,,,,,,,2,0,2,0,0,38,38,38,,,,,,,,,,,,num_6,1.4881071998970583,num_6,0.2,1.2,0.44999999999999996,0.9,17.19248,34.38495,return,2.0490828999318182,,,,,,,,,,,,,,,,,712,19,male,up_down_width,2024-05-29_15h39.39.822,exp1,2023.1.0,59.99041352876004,
,,,,,,,,,,,,,,,,5,7.8,8.9,10,11.1,12.2,1.1,0.55,0.55,4.95,10,initial,36.05,281,321,361,400,440,9,9,9,9,9,,,,,,,2,0,2,0,0,39,39,34,,,,,,,,,,,,num_7,1.4647090999642387,num_7,0.5,0.7,0.5,0.85,19.10275,32.47468,return,1.2454382999567315,,,,,,,,,,,,,,,,,712,19,male,up_down_width,2024-05-29_15h39.39.822,exp1,2023.1.0,59.99041352876004,
,,,,,,,,,,,,,,,,3,9.1,10,10.9,0,0,0.9,0.35,0.55,2.35,10,initial,36.05,328,361,393,0,0,9,9,9,0,0,,,,,,,2,0,2,0,0,40,40,11,,,,,,,,,,,,num_2,0.8011603000340983,num_2,0.5,1.2,0.55,1.0,21.01303,38.2055,return,1.4519465999910608,,,,,,,,,,,,,,,,,712,19,male,up_down_width,2024-05-29_15h39.39.822,exp1,2023.1.0,59.99041352876004,
,,,,,,,,,,,,,,,,3,8.6,10,11.4,0,0,1.4,0.85,0.55,3.35,10,match,36.05,310,361,411,0,0,9,9,9,0,0,,,,,,,2,0,2,0,0,41,41,41,,,,,,,,,,,,num_2,0.828758200048469,num_2,0.4,1.6,0.6500000000000001,2.2,24.83358,84.05211,return,2.5548108000075445,,,,,,,,,,,,,,,,,712,19,male,up_down_width,2024-05-29_15h39.39.822,exp1,2023.1.0,59.99041352876004,
,,,,,,,,,,,,,,,,3,8.2,10,11.8,0,0,1.7999999999999998,1.4,0.4,4,10,match,36.05,296,361,425,0,0,9,9,9,0,0,,,,,,,2,0,2,0,0,42,42,51,,,,,,,,,,,,num_2,1.0063773998990655,num_2,0.2,0.8,0.44999999999999996,2.2,17.19248,84.05211,return,4.977800599997863,,,,,,,,,,,,,,,,,712,19,male,up_down_width,2024-05-29_15h39.39.822,exp1,2023.1.0,59.99041352876004,
,,,,,,,,,,,,,,,,3,7.800000000000001,10,12.2,0,0,2.1999999999999997,1.7999999999999998,0.4,4.8,10,match,36.05,281,361,440,0,0,9,9,9,0,0,,,,,,,2,0,2,0,0,43,43,39,,,,,,,,,,,,num_2,0.9322485999437049,num_2,0.4,1.4,0.4,3.6,15.2822,137.53981,return,4.126029499922879,,,,,,,,,,,,,,,,,712,19,male,up_down_width,2024-05-29_15h39.39.822,exp1,2023.1.0,59.99041352876004,
,,,,,,,,,,,,,,,,4,8.825,9.608333333333333,10.391666666666667,11.175,0,0.7833333333333333,0.5333333333333333,0.25,2.6,10,match,36.05,318,346,375,403,0,9,9,9,9,0,,,,,,,2,0,2,0,0,44,44,5,,,,,,,,,,,,num_4,1.0748330000787973,num_4,0.25,1.0,0.25,1.2,9.55138,45.8466,return,1.204747200012207,,,,,,,,,,,,,,,,,712,19,male,up_down_width,2024-05-29_15h39.39.822,exp1,2023.1.0,59.99041352876004,
,,,,,,,,,,,,,,,,3,9.3,10,10.7,0,0,0.7,0.44999999999999996,0.25,1.65,10,initial,36.05,335,361,386,0,0,9,9,9,0,0,,,,,,,2,0,2,0,0,45,45,7,,,,,,,,,,,,num_2,0.7714813000056893,num_2,0.2,1.6,0.2,0.6,7.6411,22.9233,return,2.099194400012493,,,,,,,,,,,,,,,,,712,19,male,up_down_width,2024-05-29_15h39.39.822,exp1,2023.1.0,59.99041352876004,
,,,,,,,,,,,,,,,,4,8.9,9.633333333333333,10.366666666666667,11.1,0,0.7333333333333333,0.18333333333333326,0.55,2.75,10,match,36.05,321,347,374,400,0,9,9,9,9,0,,,,,,,2,0,2,0,0,46,46,1,,,,,,,,,,,,num_4,1.655079000047408,num_4,0.3,0.4,0.65,0.9,24.83358,34.38495,return,2.3331905999220908,,,,,,,,,,,,,,,,,712,19,male,up_down_width,2024-05-29_15h39.39.822,exp1,2023.1.0,59.99041352876004,
,,,,,,,,,,,,,,,,3,9.3,10,10.7,0,0,0.7,0.1499999999999999,0.55,1.95,10,initial,36.05,335,361,386,0,0,9,9,9,0,0,,,,,,,2,0,2,0,0,47,47,6,,,,,,,,,,,,num_2,0.7657650000182912,num_2,0.2,0.8,0.6,0.7,22.9233,26.74385,return,2.748907299945131,,,,,,,,,,,,,,,,,712,19,male,up_down_width,2024-05-29_15h39.39.822,exp1,2023.1.0,59.99041352876004,
,,,,,,,,,,,,,,,,4,8.95,9.65,10.35,11.05,0,0.7,0.1499999999999999,0.55,2.65,10,initial,36.05,323,348,373,398,0,9,9,9,9,0,,,,,,,2,0,2,0,0,48,48,23,,,,,,,,,,,,num_4,1.1686969000147656,num_4,0.3,1.0,0.6,0.7,22.9233,26.74385,return,2.1388908999506384,,,,,,,,,,,,,,,,,712,19,male,up_down_width,2024-05-29_15h39.39.822,exp1,2023.1.0,59.99041352876004,
,,,,,,,,,,,,,,,,3,9.1,10,10.9,0,0,0.9,0.5,0.4,2.2,10,initial,36.05,328,361,393,0,0,9,9,9,0,0,,,,,,,2,0,2,0,0,49,49,15,,,,,,,,,,,,num_3,0.8658572999993339,num_3,0.3,1.3,0.6,0.9,22.9233,34.38495,return,2.570776400039904,,,,,,,,,,,,,,,,,712,19,male,up_down_width,2024-05-29_15h39.39.822,exp1,2023.1.0,59.99041352876004,
,,,,,,,,,,,,,,,,3,8.2,10,11.8,0,0,1.8,1.25,0.55,4.15,10,match,36.05,296,361,425,0,0,9,9,9,0,0,,,,,,,2,0,2,0,0,50,50,47,,,,,,,,,,,,num_3,0.7133200999815017,num_3,0.55,1,0.55,1.65,21.01303,63.03908,return,2.7268485999666154,,,,,,,,,,,,,,,,,712,19,male,up_down_width,2024-05-29_15h39.39.822,exp1,2023.1.0,59.99041352876004,
,,,,,,,,,,,,,,,,5,8.95,9.475,10,10.525,11.05,0.525,0.125,0.4,2.5,10,match,36.05,323,342,361,379,398,9,9,9,9,9,,,,,,,2,0,2,0,0,51,51,27,,,,,,,,,,,,num_5,0.935184600064531,num_5,0.2,1.0,0.39999999999999997,0.55,15.2822,21.01303,return,2.1727940000128,,,,,,,,,,,,,,,,,712,19,male,up_down_width,2024-05-29_15h39.39.822,exp1,2023.1.0,59.99041352876004,
,,,,,,,,,,,,,,,,,,,,,,,,,,,,,,,,,,,,,,,,,,,,,2,0,2,0,,,,,,,,,,,,,,,,,,,,,,,,,,,,,1289.339554300066,1289.339554300066,1289.339554300066,,,,,,,,,,,,712,19,male,up_down_width,2024-05-29_15h39.39.822,exp1,2023.1.0,59.99041352876004,
,,,,,,,,,,,,,,,,3,8.2,10,11.8,0,0,1.7999999999999998,1.4,0.4,4,10,match,36.05,296,361,425,0,0,9,9,9,0,0,,,,,,,3,0,3,0,0,0,0,51,,,,,,,,,,,,num_2,0.9978309000143781,num_2,0.45,1.0,0.45,3.2,17.19248,122.25761,return,4.348028199980035,,,,,,,,,,,,,,,,,712,19,male,up_down_width,2024-05-29_15h39.39.822,exp1,2023.1.0,59.99041352876004,
,,,,,,,,,,,,,,,,5,8.2,9.1,10,10.9,11.8,0.9,0.35,0.55,4.15,10,initial,36.05,296,328,361,393,425,9,9,9,9,9,,,,,,,3,0,3,0,0,1,1,46,,,,,,,,,,,,num_5,1.3682557999854907,num_5,0.3,0.6,0.5499999999999999,0.9,21.01303,34.38495,return,2.2395223999628797,,,,,,,,,,,,,,,,,712,19,male,up_down_width,2024-05-29_15h39.39.822,exp1,2023.1.0,59.99041352876004,
,,,,,,,,,,,,,,,,3,8.2,10,11.8,0,0,1.8,1.25,0.55,4.15,10,match,36.05,296,361,425,0,0,9,9,9,0,0,,,,,,,3,0,3,0,0,2,2,47,,,,,,,,,,,,num_2,0.9537944999756292,num_2,0.25,0.8,0.6,2.9,22.9233,110.79596,return,5.169665799941868,,,,,,,,,,,,,,,,,712,19,male,up_down_width,2024-05-29_15h39.39.822,exp1,2023.1.0,59.99041352876004,
,,,,,,,,,,,,,,,,4,8.65,9.55,10.45,11.35,0,0.9,0.65,0.25,2.95,10,initial,36.05,312,344,377,409,0,9,9,9,9,0,,,,,,,3,0,3,0,0,3,3,30,,,,,,,,,,,,num_4,1.0185155000071973,num_4,0.2,1.1,0.2,1.1,7.6411,42.02605,return,10.013705100049265,,,,,,,,,,,,,,,,,712,19,male,up_down_width,2024-05-29_15h39.39.822,exp1,2023.1.0,59.99041352876004,
,,,,,,,,,,,,,,,,3,8.9,10,11.1,0,0,1.1,0.7000000000000001,0.4,2.6000000000000005,10,initial,36.05,321,361,400,0,0,9,9,9,0,0,,,,,,,3,0,3,0,0,4,4,4,,,,,,,,,,,,num_3,0.8734277000185102,num_3,0.45,1.1,0.45,1.05,17.19248,40.11578,return,1.0568493000464514,,,,,,,,,,,,,,,,,712,19,male,up_down_width,2024-05-29_15h39.39.822,exp1,2023.1.0,59.99041352876004,
,,,,,,,,,,,,,,,,3,8.525,10,11.475,0,0,1.475,1.225,0.25,3.2,10,match,36.05,307,361,414,0,0,9,9,9,0,0,,,,,,,3,0,3,0,0,5,5,45,,,,,,,,,,,,num_3,0.89430580008775,num_3,0.45,1.3,0.25000000000000006,1.2,9.55138,45.8466,return,2.037329300073907,,,,,,,,,,,,,,,,,712,19,male,up_down_width,2024-05-29_15h39.39.822,exp1,2023.1.0,59.99041352876004,
,,,,,,,,,,,,,,,,5,8.6,9.3,10,10.7,11.4,0.7,0.44999999999999996,0.25,3.05,10,initial,36.05,310,335,361,386,411,9,9,9,9,9,,,,,,,3,0,3,0,0,6,6,42,,,,,,,,,,,,num_6,0.9448638000758365,num_6,0.25,1.1,0.25,0.6,9.55138,22.9233,return,1.732613499974832,,,,,,,,,,,,,,,,,712,19,male,up_down_width,2024-05-29_15h39.39.822,exp1,2023.1.0,59.99041352876004,
,,,,,,,,,,,,,,,,5,8.65,9.325,10,10.675,11.35,0.675,0.42500000000000004,0.25,2.95,10,match,36.05,312,336,361,385,409,9,9,9,9,9,,,,,,,3,0,3,0,0,7,7,31,,,,,,,,,,,,num_6,0.7640647999942303,num_6,0.25,0.9,0.2,0.6,7.6411,22.9233,return,1.5611491999588907,,,,,,,,,,,,,,,,,712,19,male,up_down_width,2024-05-29_15h39.39.822,exp1,2023.1.0,59.99041352876004,
,,,,,,,,,,,,,,,,5,8.6,9.3,10,10.7,11.4,0.7,0.1499999999999999,0.55,3.3499999999999996,10,initial,36.05,310,335,361,386,411,9,9,9,9,9,,,,,,,3,0,3,0,0,8,8,40,,,,,,,,,,,,num_5,0.8851188999833539,num_5,0.35,1.1,0.49999999999999994,0.65,19.10275,24.83358,return,2.5647048000246286,,,,,,,,,,,,,,,,,712,19,male,up_down_width,2024-05-29_15h39.39.822,exp1,2023.1.0,59.99041352876004,
,,,,,,,,,,,,,,,,4,8.825,9.608333333333333,10.391666666666667,11.175,0,0.7833333333333333,0.5333333333333333,0.25,2.6,10,match,36.05,318,346,375,403,0,9,9,9,9,0,,,,,,,3,0,3,0,0,9,9,5,,,,,,,,,,,,num_4,0.9548139999387786,num_4,0.25,0.3,0.25,0.6,9.55138,22.9233,return,1.0741416999371722,,,,,,,,,,,,,,,,,712,19,male,up_down_width,2024-05-29_15h39.39.822,exp1,2023.1.0,59.99041352876004,
,,,,,,,,,,,,,,,,4,9.3,9.766666666666667,10.233333333333333,10.7,0,0.4666666666666667,0.06666666666666665,0.4,1.8,10,match,36.05,335,352,369,386,0,9,9,9,9,0,,,,,,,3,0,3,0,0,10,10,10,,,,,,,,,,,,num_5,0.8650802000192925,num_5,0.35,1.0,0.35,0.55,13.37193,21.01303,return,1.92721969995182,,,,,,,,,,,,,,,,,712,19,male,up_down_width,2024-05-29_15h39.39.822,exp1,2023.1.0,59.99041352876004,
,,,,,,,,,,,,,,,,3,9.3,10,10.7,0,0,0.7,0.44999999999999996,0.25,1.65,10,initial,36.05,335,361,386,0,0,9,9,9,0,0,,,,,,,3,0,3,0,0,11,11,7,,,,,,,,,,,,num_2,0.8825968999881297,num_2,0.25,0.8,0.25,0.6,9.55138,22.9233,return,1.0357441001106054,,,,,,,,,,,,,,,,,712,19,male,up_down_width,2024-05-29_15h39.39.822,exp1,2023.1.0,59.99041352876004,
,,,,,,,,,,,,,,,,3,9.3,10,10.7,0,0,0.7,0.29999999999999993,0.4,1.8,10,initial,36.05,335,361,386,0,0,9,9,9,0,0,,,,,,,3,0,3,0,0,12,12,9,,,,,,,,,,,,num_3,1.2091009999858215,num_3,0.3,0.8,0.44999999999999996,0.65,17.19248,24.83358,return,1.3959049999248236,,,,,,,,,,,,,,,,,712,19,male,up_down_width,2024-05-29_15h39.39.822,exp1,2023.1.0,59.99041352876004,
,,,,,,,,,,,,,,,,5,8.6,9.3,10,10.7,11.4,0.7,0.29999999999999993,0.4,3.1999999999999997,10,initial,36.05,310,335,361,386,411,9,9,9,9,9,,,,,,,3,0,3,0,0,13,13,44,,,,,,,,,,,,num_6,0.9631747000385076,num_6,0.3,0.6,0.44999999999999996,0.7,17.19248,26.74385,return,1.8988411000464112,,,,,,,,,,,,,,,,,712,19,male,up_down_width,2024-05-29_15h39.39.822,exp1,2023.1.0,59.99041352876004,
,,,,,,,,,,,,,,,,4,8.95,9.65,10.35,11.05,0,0.7,0.29999999999999993,0.4,2.5,10,initial,36.05,323,348,373,398,0,9,9,9,9,0,,,,,,,3,0,3,0,0,14,14,26,,,,,,,,,,,,num_5,0.8342918999260291,num_5,0.4,1.3,0.35000000000000003,0.7,13.37193,26.74385,return,2.505364300101064,,,,,,,,,,,,,,,,,712,19,male,up_down_width,2024-05-29_15h39.39.822,exp1,2023.1.0,59.99041352876004,
,,,,,,,,,,,,,,,,4,8.95,9.65,10.35,11.05,0,0.7,0.1499999999999999,0.55,2.65,10,initial,36.05,323,348,373,398,0,9,9,9,9,0,,,,,,,3,0,3,0,0,15,15,23,,,,,,,,,,,,num_4,0.7929817000404,num_4,0.35,0.4,0.44999999999999996,0.8,17.19248,30.5644,return,1.7524898999836296,,,,,,,,,,,,,,,,,712,19,male,up_down_width,2024-05-29_15h39.39.822,exp1,2023.1.0,59.99041352876004,
,,,,,,,,,,,,,,,,3,8.9,10,11.1,0,0,1.1,0.55,0.55,2.75,10,initial,36.05,321,361,400,0,0,9,9,9,0,0,,,,,,,3,0,3,0,0,16,16,0,,,,,,,,,,,,num_3,0.7988367000361905,num_3,0.45,0.7,0.45,1.0,17.19248,38.2055,return,1.772621599957347,,,,,,,,,,,,,,,,,712,19,male,up_down_width,2024-05-29_15h39.39.822,exp1,2023.1.0,59.99041352876004,
,,,,,,,,,,,,,,,,3,9.1,10,10.9,0,0,0.9,0.35,0.55,2.35,10,initial,36.05,328,361,393,0,0,9,9,9,0,0,,,,,,,3,0,3,0,0,17,17,11,,,,,,,,,,,,num_3,0.8210919999983162,num_3,0.55,0.9,0.55,0.9,21.01303,34.38495,return,0.8294955000746995,,,,,,,,,,,,,,,,,712,19,male,up_down_width,2024-05-29_15h39.39.822,exp1,2023.1.0,59.99041352876004,
,,,,,,,,,,,,,,,,3,7.8,10,12.2,0,0,2.2,1.9500000000000002,0.25,4.65,10,match,36.05,281,361,440,0,0,9,9,9,0,0,,,,,,,3,0,3,0,0,18,18,37,,,,,,,,,,,,num_3,0.9228422000305727,num_3,0.2,1.3,0.2,2.35,7.6411,89.78293,return,4.19418999995105,,,,,,,,,,,,,,,,,712,19,male,up_down_width,2024-05-29_15h39.39.822,exp1,2023.1.0,59.99041352876004,
,,,,,,,,,,,,,,,,4,8.65,9.55,10.45,11.35,0,0.9,0.5,0.4,3.1,10,initial,36.05,312,344,377,409,0,9,9,9,9,0,,,,,,,3,0,3,0,0,19,19,32,,,,,,,,,,,,num_5,0.9287750000366941,num_5,0.5,1.3,0.45,1.05,17.19248,40.11578,return,1.7696212000446394,,,,,,,,,,,,,,,,,712,19,male,up_down_width,2024-05-29_15h39.39.822,exp1,2023.1.0,59.99041352876004,
,,,,,,,,,,,,,,,,4,8.35,9.45,10.55,11.65,0,1.1,0.7000000000000001,0.4,3.7,10,initial,36.05,301,341,380,420,0,9,9,9,9,0,,,,,,,3,0,3,0,0,20,20,21,,,,,,,,,,,,num_4,1.0729007000336424,num_4,0.2,0.8,0.35,1.2,13.37193,45.8466,return,1.714224399998784,,,,,,,,,,,,,,,,,712,19,male,up_down_width,2024-05-29_15h39.39.822,exp1,2023.1.0,59.99041352876004,
,,,,,,,,,,,,,,,,5,8.65,9.325,10,10.675,11.35,0.675,0.275,0.4,3.1,10,match,36.05,312,336,361,385,409,9,9,9,9,9,,,,,,,3,0,3,0,0,21,21,33,,,,,,,,,,,,num_7,1.201411799993366,num_7,0.5,0.7,0.4,0.75,15.2822,28.65413,return,1.9021210999926552,,,,,,,,,,,,,,,,,712,19,male,up_down_width,2024-05-29_15h39.39.822,exp1,2023.1.0,59.99041352876004,
,,,,,,,,,,,,,,,,3,8.6,10,11.4,0,0,1.4,1.15,0.25,3.05,10,match,36.05,310,361,411,0,0,9,9,9,0,0,,,,,,,3,0,3,0,0,22,22,43,,,,,,,,,,,,num_2,0.812815900077112,num_2,0.45,1.6,0.20000000000000007,3.0,7.6411,114.61651,return,3.3342979000881314,,,,,,,,,,,,,,,,,712,19,male,up_down_width,2024-05-29_15h39.39.822,exp1,2023.1.0,59.99041352876004,
,,,,,,,,,,,,,,,,4,9.1,9.7,10.3,10.9,0,0.6,0.04999999999999997,0.55,2.35,10,match,36.05,328,350,371,393,0,9,9,9,9,0,,,,,,,3,0,3,0,0,23,23,12,,,,,,,,,,,,num_4,1.005129599943757,num_4,0.45,0.9,0.55,0.6,21.01303,22.9233,return,1.7768270000815392,,,,,,,,,,,,,,,,,712,19,male,up_down_width,2024-05-29_15h39.39.822,exp1,2023.1.0,59.99041352876004,
,,,,,,,,,,,,,,,,5,8.95,9.475,10,10.525,11.05,0.525,0.275,0.25,2.35,10,match,36.05,323,342,361,379,398,9,9,9,9,9,,,,,,,3,0,3,0,0,24,24,25,,,,,,,,,,,,num_6,1.2259211000055075,num_6,0.25,0.6,0.25,0.5,9.55138,19.10275,return,1.1850659000920132,,,,,,,,,,,,,,,,,712,19,male,up_down_width,2024-05-29_15h39.39.822,exp1,2023.1.0,59.99041352876004,
,,,,,,,,,,,,,,,,5,7.8,8.9,10,11.1,12.2,1.1,0.55,0.55,4.95,10,initial,36.05,281,321,361,400,440,9,9,9,9,9,,,,,,,3,0,3,0,0,25,25,34,,,,,,,,,,,,num_7,0.9648982000071555,num_7,0.4,1.0,0.45,0.95,17.19248,36.29523,return,1.6102394999470562,,,,,,,,,,,,,,,,,712,19,male,up_down_width,2024-05-29_15h39.39.822,exp1,2023.1.0,59.99041352876004,
,,,,,,,,,,,,,,,,5,8.35,9.175,10,10.825,11.65,0.8250000000000001,0.275,0.55,3.85,10,match,36.05,301,331,361,390,420,9,9,9,9,9,,,,,,,3,0,3,0,0,26,26,18,,,,,,,,,,,,num_7,1.077758300001733,num_7,0.3,1.3,0.49999999999999994,0.75,19.10275,28.65413,return,2.921443499973975,,,,,,,,,,,,,,,,,712,19,male,up_down_width,2024-05-29_15h39.39.822,exp1,2023.1.0,59.99041352876004,
,,,,,,,,,,,,,,,,3,9.3,10,10.7,0,0,0.7,0.1499999999999999,0.55,1.95,10,initial,36.05,335,361,386,0,0,9,9,9,0,0,,,,,,,3,0,3,0,0,27,27,6,,,,,,,,,,,,num_3,1.0061362999258563,num_3,0.55,1.2,0.55,0.65,21.01303,24.83358,return,2.4330440000630915,,,,,,,,,,,,,,,,,712,19,male,up_down_width,2024-05-29_15h39.39.822,exp1,2023.1.0,59.99041352876004,
,,,,,,,,,,,,,,,,3,8.6,10,11.4,0,0,1.4,0.85,0.55,3.35,10,match,36.05,310,361,411,0,0,9,9,9,0,0,,,,,,,3,0,3,0,0,28,28,41,,,,,,,,,,,,num_3,0.8913862999761477,num_3,0.55,1.2,0.5,2.05,19.10275,78.32128,return,3.0431832999456674,,,,,,,,,,,,,,,,,712,19,male,up_down_width,2024-05-29_15h39.39.822,exp1,2023.1.0,59.99041352876004,
,,,,,,,,,,,,,,,,4,8.9,9.633333333333333,10.366666666666667,11.1,0,0.7333333333333334,0.4833333333333334,0.25,2.45,10,match,36.05,321,347,374,400,0,9,9,9,9,0,,,,,,,3,0,3,0,0,29,29,3,,,,,,,,,,,,num_3,0.8422414000378922,num_3,0.55,1.1,0.20000000000000007,1.55,7.6411,59.21853,return,2.7431336999870837,,,,,,,,,,,,,,,,,712,19,male,up_down_width,2024-05-29_15h39.39.822,exp1,2023.1.0,59.99041352876004,
,,,,,,,,,,,,,,,,4,9.1,9.7,10.3,10.9,0,0.5999999999999999,0.3499999999999999,0.25,2.05,10,match,36.05,328,350,371,393,0,9,9,9,9,0,,,,,,,3,0,3,0,0,30,30,14,,,,,,,,,,,,num_4,0.8988402000395581,num_4,0.3,1.3,0.25,0.6,9.55138,22.9233,return,1.8374270999338478,,,,,,,,,,,,,,,,,712,19,male,up_down_width,2024-05-29_15h39.39.822,exp1,2023.1.0,59.99041352876004,
,,,,,,,,,,,,,,,,4,8.9,9.633333333333333,10.366666666666667,11.1,0,0.7333333333333333,0.18333333333333326,0.55,2.75,10,match,36.05,321,347,374,400,0,9,9,9,9,0,,,,,,,3,0,3,0,0,31,31,1,,,,,,,,,,,,num_5,1.0772062999894843,num_5,0.2,1.2,0.44999999999999996,0.65,17.19248,24.83358,return,2.8722961000166833,,,,,,,,,,,,,,,,,712,19,male,up_down_width,2024-05-29_15h39.39.822,exp1,2023.1.0,59.99041352876004,
,,,,,,,,,,,,,,,,5,8.65,9.325,10,10.675,11.35,0.675,0.125,0.55,3.25,10,match,36.05,312,336,361,385,409,9,9,9,9,9,,,,,,,3,0,3,0,0,32,32,29,,,,,,,,,,,,num_6,1.0631827000761405,num_6,0.45,0.9,0.5,0.6,19.10275,22.9233,return,1.7546308999881148,,,,,,,,,,,,,,,,,712,19,male,up_down_width,2024-05-29_15h39.39.822,exp1,2023.1.0,59.99041352876004,
,,,,,,,,,,,,,,,,3,9.1,10,10.9,0,0,0.9,0.5,0.4,2.2,10,initial,36.05,328,361,393,0,0,9,9,9,0,0,,,,,,,3,0,3,0,0,33,33,15,,,,,,,,,,,,num_3,1.054808600107208,num_3,0.35,1.1,0.44999999999999996,0.75,17.19248,28.65413,return,1.809881899971515,,,,,,,,,,,,,,,,,712,19,male,up_down_width,2024-05-29_15h39.39.822,exp1,2023.1.0,59.99041352876004,
,,,,,,,,,,,,,,,,5,8.35,9.175,10,10.825,11.65,0.825,0.575,0.25,3.55,10,match,36.05,301,331,361,390,420,9,9,9,9,9,,,,,,,3,0,3,0,0,34,34,20,,,,,,,,,,,,num_7,1.153688200050965,num_7,0.4,1.1,0.20000000000000007,0.75,7.6411,28.65413,return,2.4121794999809936,,,,,,,,,,,,,,,,,712,19,male,up_down_width,2024-05-29_15h39.39.822,exp1,2023.1.0,59.99041352876004,
,,,,,,,,,,,,,,,,4,8.95,9.65,10.35,11.05,0,0.7,0.44999999999999996,0.25,2.3499999999999996,10,initial,36.05,323,348,373,398,0,9,9,9,9,0,,,,,,,3,0,3,0,0,35,35,24,,,,,,,,,,,,num_4,0.87308289995417,num_4,0.25,0.3,0.25,0.8,9.55138,30.5644,return,2.015950599918142,,,,,,,,,,,,,,,,,712,19,male,up_down_width,2024-05-29_15h39.39.822,exp1,2023.1.0,59.99041352876004,
,,,,,,,,,,,,,,,,3,8.2,10,11.8,0,0,1.8,1.55,0.25,3.85,10,match,36.05,296,361,425,0,0,9,9,9,0,0,,,,,,,3,0,3,0,0,36,36,49,,,,,,,,,,,,num_3,0.9549048999324441,num_3,0.25,1,0.25,2.15,9.55138,82.14183,return,4.5087315000128,,,,,,,,,,,,,,,,,712,19,male,up_down_width,2024-05-29_15h39.39.822,exp1,2023.1.0,59.99041352876004,
,,,,,,,,,,,,,,,,5,7.8,8.9,10,11.1,12.2,1.1,0.7000000000000001,0.4,4.800000000000001,10,initial,36.05,281,321,361,400,440,9,9,9,9,9,,,,,,,3,0,3,0,0,37,37,38,,,,,,,,,,,,num_7,0.9287175999488682,num_7,0.25,0.3,0.3,0.85,11.46165,32.47468,return,2.3282850000541657,,,,,,,,,,,,,,,,,712,19,male,up_down_width,2024-05-29_15h39.39.822,exp1,2023.1.0,59.99041352876004,
,,,,,,,,,,,,,,,,4,8.65,9.55,10.45,11.35,0,0.9,0.35,0.55,3.25,10,initial,36.05,312,344,377,409,0,9,9,9,9,0,,,,,,,3,0,3,0,0,38,38,28,,,,,,,,,,,,num_5,0.9775919000385329,num_5,0.3,0.7,0.5499999999999999,0.8,21.01303,30.5644,return,1.8330195000162348,,,,,,,,,,,,,,,,,712,19,male,up_down_width,2024-05-29_15h39.39.822,exp1,2023.1.0,59.99041352876004,
,,,,,,,,,,,,,,,,4,8.35,9.45,10.55,11.65,0,1.1,0.55,0.55,3.8500000000000005,10,initial,36.05,301,341,380,420,0,9,9,9,9,0,,,,,,,3,0,3,0,0,39,39,17,,,,,,,,,,,,num_5,0.8633677000179887,num_5,0.2,0.6,0.44999999999999996,0.8,17.19248,30.5644,return,2.406552500091493,,,,,,,,,,,,,,,,,712,19,male,up_down_width,2024-05-29_15h39.39.822,exp1,2023.1.0,59.99041352876004,
,,,,,,,,,,,,,,,,3,9.1,10,10.9,0,0,0.9,0.65,0.25,2.05,10,initial,36.05,328,361,393,0,0,9,9,9,0,0,,,,,,,3,0,3,0,0,40,40,13,,,,,,,,,,,,num_3,0.9539422000525519,num_3,0.35,1.2,0.3,0.8,11.46165,30.5644,return,2.2529748000670224,,,,,,,,,,,,,,,,,712,19,male,up_down_width,2024-05-29_15h39.39.822,exp1,2023.1.0,59.99041352876004,
,,,,,,,,,,,,,,,,5,8.95,9.475,10,10.525,11.05,0.525,0.125,0.4,2.5,10,match,36.05,323,342,361,379,398,9,9,9,9,9,,,,,,,3,0,3,0,0,41,41,27,,,,,,,,,,,,num_6,1.359640400041826,num_6,0.5,1.2,0.30000000000000004,0.6,11.46165,22.9233,return,2.8220944000640884,,,,,,,,,,,,,,,,,712,19,male,up_down_width,2024-05-29_15h39.39.822,exp1,2023.1.0,59.99041352876004,
,,,,,,,,,,,,,,,,3,8.9,10,11.1,0,0,1.1,0.8500000000000001,0.25,2.45,10,initial,36.05,321,361,400,0,0,9,9,9,0,0,,,,,,,3,0,3,0,0,42,42,2,,,,,,,,,,,,num_2,0.9632100000744686,num_2,0.3,1.4,0.3,2.5,11.46165,95.51376,return,2.5720124000217766,,,,,,,,,,,,,,,,,712,19,male,up_down_width,2024-05-29_15h39.39.822,exp1,2023.1.0,59.99041352876004,
,,,,,,,,,,,,,,,,5,8.2,9.1,10,10.9,11.8,0.9,0.65,0.25,3.85,10,initial,36.05,296,328,361,393,425,9,9,9,9,9,,,,,,,3,0,3,0,0,43,43,48,,,,,,,,,,,,num_7,0.9177215999225155,num_7,0.25,0.8,0.25,0.8,9.55138,30.5644,return,0.76233180006966,,,,,,,,,,,,,,,,,712,19,male,up_down_width,2024-05-29_15h39.39.822,exp1,2023.1.0,59.99041352876004,
,,,,,,,,,,,,,,,,3,7.8,10,12.2,0,0,2.2,1.65,0.55,4.95,10,match,36.05,281,361,440,0,0,9,9,9,0,0,,,,,,,3,0,3,0,0,44,44,35,,,,,,,,,,,,num_2,0.9006665999768302,num_2,0.4,1.0,0.6500000000000001,3.6,24.83358,137.53981,return,5.3886652999790385,,,,,,,,,,,,,,,,,712,19,male,up_down_width,2024-05-29_15h39.39.822,exp1,2023.1.0,59.99041352876004,
,,,,,,,,,,,,,,,,3,7.800000000000001,10,12.2,0,0,2.1999999999999997,1.7999999999999998,0.4,4.8,10,match,36.05,281,361,440,0,0,9,9,9,0,0,,,,,,,3,0,3,0,0,45,45,39,,,,,,,,,,,,num_2,1.1790354000404477,num_2,0.2,0.8,0.5499999999999999,3.8,21.01303,145.18092,return,6.561375500052236,,,,,,,,,,,,,,,,,712,19,male,up_down_width,2024-05-29_15h39.39.822,exp1,2023.1.0,59.99041352876004,
,,,,,,,,,,,,,,,,5,7.8,8.9,10,11.1,12.2,1.1,0.8500000000000001,0.25,4.65,10,initial,36.05,281,321,361,400,440,9,9,9,9,9,,,,,,,3,0,3,0,0,46,46,36,,,,,,,,,,,,num_7,1.2536568000214174,num_7,0.25,1.1,0.2,1.15,7.6411,43.93633,return,1.598734200000763,,,,,,,,,,,,,,,,,712,19,male,up_down_width,2024-05-29_15h39.39.822,exp1,2023.1.0,59.99041352876004,
,,,,,,,,,,,,,,,,4,8.35,9.45,10.55,11.65,0,1.1,0.8500000000000001,0.25,3.5500000000000003,10,initial,36.05,301,341,380,420,0,9,9,9,9,0,,,,,,,3,0,3,0,0,47,47,19,,,,,,,,,,,,num_4,1.4647228999529034,num_4,0.55,0.7,0.25000000000000006,1.4,9.55138,53.48771,return,2.5106547999894246,,,,,,,,,,,,,,,,,712,19,male,up_down_width,2024-05-29_15h39.39.822,exp1,2023.1.0,59.99041352876004,
,,,,,,,,,,,,,,,,5,8.275,9.1375,10,10.8625,11.725,0.8625,0.6125,0.25,3.7,10,match,36.05,298,329,361,392,423,9,9,9,9,9,,,,,,,3,0,3,0,0,48,48,22,,,,,,,,,,,,num_6,1.8094819999532774,num_6,0.45,0.7,0.25000000000000006,1.1,9.55138,42.02605,return,2.052209199988283,,,,,,,,,,,,,,,,,712,19,male,up_down_width,2024-05-29_15h39.39.822,exp1,2023.1.0,59.99041352876004,
,,,,,,,,,,,,,,,,4,9.1,9.7,10.3,10.9,0,0.6000000000000001,0.20000000000000004,0.4,2.2,10,match,36.05,328,350,371,393,0,9,9,9,9,0,,,,,,,3,0,3,0,0,49,49,16,,,,,,,,,,,,num_5,0.9742089998908341,num_5,0.55,1.0,0.4,0.85,15.2822,32.47468,return,1.926320799975656,,,,,,,,,,,,,,,,,712,19,male,up_down_width,2024-05-29_15h39.39.822,exp1,2023.1.0,59.99041352876004,
,,,,,,,,,,,,,,,,5,8.2,9.1,10,10.9,11.8,0.9,0.5,0.4,4,10,initial,36.05,296,328,361,393,425,9,9,9,9,9,,,,,,,3,0,3,0,0,50,50,50,,,,,,,,,,,,num_6,0.9537684000097215,num_6,0.2,1.1,0.39999999999999997,0.7,15.2822,26.74385,return,2.2735516000539064,,,,,,,,,,,,,,,,,712,19,male,up_down_width,2024-05-29_15h39.39.822,exp1,2023.1.0,59.99041352876004,
,,,,,,,,,,,,,,,,4,9.3,9.766666666666667,10.233333333333333,10.7,0,0.4666666666666667,0.21666666666666665,0.25,1.65,10,match,36.05,335,352,369,386,0,9,9,9,9,0,,,,,,,3,0,3,0,0,51,51,8,,,,,,,,,,,,num_4,0.9772790999850258,num_4,0.3,0.7,0.3,0.6,11.46165,22.9233,return,1.0456373000051826,,,,,,,,,,,,,,,,,712,19,male,up_down_width,2024-05-29_15h39.39.822,exp1,2023.1.0,59.99041352876004,
,,,,,,,,,,,,,,,,,,,,,,,,,,,,,,,,,,,,,,,,,,,,,3,0,3,0,,,,,,,,,,,,,,,,,,,,,,,,,,,,,1640.0063232000684,1640.0063232000684,1640.0063232000684,,,,,,,,,,,,712,19,male,up_down_width,2024-05-29_15h39.39.822,exp1,2023.1.0,59.99041352876004,
,,,,,,,,,,,,,,,,3,8.9,10,11.1,0,0,1.1,0.8500000000000001,0.25,2.45,10,initial,36.05,321,361,400,0,0,9,9,9,0,0,,,,,,,4,0,4,0,0,0,0,2,,,,,,,,,,,,num_2,1.4587541999062523,num_2,0.45,0.8,0.25000000000000006,2.2,9.55138,84.05211,return,3.318588300026022,,,,,,,,,,,,,,,,,712,19,male,up_down_width,2024-05-29_15h39.39.822,exp1,2023.1.0,59.99041352876004,
,,,,,,,,,,,,,,,,4,8.65,9.55,10.45,11.35,0,0.9,0.5,0.4,3.1,10,initial,36.05,312,344,377,409,0,9,9,9,9,0,,,,,,,4,0,4,0,0,1,1,32,,,,,,,,,,,,num_4,1.0851421999977902,num_4,0.4,0.8,0.4,1.2,15.2822,45.8466,return,1.0710929000051692,,,,,,,,,,,,,,,,,712,19,male,up_down_width,2024-05-29_15h39.39.822,exp1,2023.1.0,59.99041352876004,
,,,,,,,,,,,,,,,,4,8.9,9.633333333333333,10.366666666666667,11.1,0,0.7333333333333334,0.4833333333333334,0.25,2.45,10,match,36.05,321,347,374,400,0,9,9,9,9,0,,,,,,,4,0,4,0,0,2,2,3,,,,,,,,,,,,num_4,0.7537111999699846,num_4,0.25,1.1,0.2,0.9,7.6411,34.38495,return,1.0573795000091195,,,,,,,,,,,,,,,,,712,19,male,up_down_width,2024-05-29_15h39.39.822,exp1,2023.1.0,59.99041352876004,
,,,,,,,,,,,,,,,,4,8.825,9.608333333333333,10.391666666666667,11.175,0,0.7833333333333333,0.5333333333333333,0.25,2.6,10,match,36.05,318,346,375,403,0,9,9,9,9,0,,,,,,,4,0,4,0,0,3,3,5,,,,,,,,,,,,num_4,0.7445582000073045,num_4,0.55,0.7,0.25000000000000006,0.7,9.55138,26.74385,return,2.259832000010647,,,,,,,,,,,,,,,,,712,19,male,up_down_width,2024-05-29_15h39.39.822,exp1,2023.1.0,59.99041352876004,
,,,,,,,,,,,,,,,,5,7.8,8.9,10,11.1,12.2,1.1,0.8500000000000001,0.25,4.65,10,initial,36.05,281,321,361,400,440,9,9,9,9,9,,,,,,,4,0,4,0,0,4,4,36,,,,,,,,,,,,num_6,0.9521620000014082,num_6,0.2,0.6,0.2,1.0,7.6411,38.2055,return,1.7696410999633372,,,,,,,,,,,,,,,,,712,19,male,up_down_width,2024-05-29_15h39.39.822,exp1,2023.1.0,59.99041352876004,
,,,,,,,,,,,,,,,,5,8.6,9.3,10,10.7,11.4,0.7,0.1499999999999999,0.55,3.3499999999999996,10,initial,36.05,310,335,361,386,411,9,9,9,9,9,,,,,,,4,0,4,0,0,5,5,40,,,,,,,,,,,,num_5,0.89286720007658,num_5,0.55,1.1,0.5,0.8,19.10275,30.5644,return,1.937993000028655,,,,,,,,,,,,,,,,,712,19,male,up_down_width,2024-05-29_15h39.39.822,exp1,2023.1.0,59.99041352876004,
,,,,,,,,,,,,,,,,4,8.35,9.45,10.55,11.65,0,1.1,0.8500000000000001,0.25,3.5500000000000003,10,initial,36.05,301,341,380,420,0,9,9,9,9,0,,,,,,,4,0,4,0,0,6,6,19,,,,,,,,,,,,num_6,0.9802992000477389,num_6,0.55,1.1,0.15000000000000008,0.8,5.73083,30.5644,return,2.1235274000791833,,,,,,,,,,,,,,,,,712,19,male,up_down_width,2024-05-29_15h39.39.822,exp1,2023.1.0,59.99041352876004,
,,,,,,,,,,,,,,,,3,8.6,10,11.4,0,0,1.4,0.85,0.55,3.35,10,match,36.05,310,361,411,0,0,9,9,9,0,0,,,,,,,4,0,4,0,0,7,7,41,,,,,,,,,,,,num_3,0.990285599953495,num_3,0.55,1,0.6500000000000001,1.75,24.83358,66.85963,return,3.4578926999820396,,,,,,,,,,,,,,,,,712,19,male,up_down_width,2024-05-29_15h39.39.822,exp1,2023.1.0,59.99041352876004,
,,,,,,,,,,,,,,,,5,8.65,9.325,10,10.675,11.35,0.675,0.42500000000000004,0.25,2.95,10,match,36.05,312,336,361,385,409,9,9,9,9,9,,,,,,,4,0,4,0,0,8,8,31,,,,,,,,,,,,num_6,5.156658300082199,num_6,0.35,0.4,0.35,0.9,13.37193,34.38495,return,9.93791840004269,,,,,,,,,,,,,,,,,712,19,male,up_down_width,2024-05-29_15h39.39.822,exp1,2023.1.0,59.99041352876004,
,,,,,,,,,,,,,,,,4,9.3,9.766666666666667,10.233333333333333,10.7,0,0.4666666666666667,0.21666666666666665,0.25,1.65,10,match,36.05,335,352,369,386,0,9,9,9,9,0,,,,,,,4,0,4,0,0,9,9,8,,,,,,,,,,,,num_4,0.8747744000284001,num_4,0.25,0.6,0.25,0.6,9.55138,22.9233,return,0.8497045999392867,,,,,,,,,,,,,,,,,712,19,male,up_down_width,2024-05-29_15h39.39.822,exp1,2023.1.0,59.99041352876004,
,,,,,,,,,,,,,,,,4,9.1,9.7,10.3,10.9,0,0.6000000000000001,0.20000000000000004,0.4,2.2,10,match,36.05,328,350,371,393,0,9,9,9,9,0,,,,,,,4,0,4,0,0,10,10,16,,,,,,,,,,,,num_4,1.1207624999806285,num_4,0.35,0.5,0.39999999999999997,0.6,15.2822,22.9233,return,1.121328999986872,,,,,,,,,,,,,,,,,712,19,male,up_down_width,2024-05-29_15h39.39.822,exp1,2023.1.0,59.99041352876004,
,,,,,,,,,,,,,,,,3,8.2,10,11.8,0,0,1.8,1.55,0.25,3.85,10,match,36.05,296,361,425,0,0,9,9,9,0,0,,,,,,,4,0,4,0,0,11,11,49,,,,,,,,,,,,num_3,1.106814100057818,num_3,0.35,0.5,0.2,1.45,7.6411,55.39798,return,4.013881799997762,,,,,,,,,,,,,,,,,712,19,male,up_down_width,2024-05-29_15h39.39.822,exp1,2023.1.0,59.99041352876004,
,,,,,,,,,,,,,,,,4,8.9,9.633333333333333,10.366666666666667,11.1,0,0.7333333333333333,0.18333333333333326,0.55,2.75,10,match,36.05,321,347,374,400,0,9,9,9,9,0,,,,,,,4,0,4,0,0,12,12,1,,,,,,,,,,,,num_4,1.0827863999875262,num_4,0.2,0.5,0.6,1.0,22.9233,38.2055,return,2.496210900018923,,,,,,,,,,,,,,,,,712,19,male,up_down_width,2024-05-29_15h39.39.822,exp1,2023.1.0,59.99041352876004,
,,,,,,,,,,,,,,,,3,8.2,10,11.8,0,0,1.8,1.25,0.55,4.15,10,match,36.05,296,361,425,0,0,9,9,9,0,0,,,,,,,4,0,4,0,0,13,13,47,,,,,,,,,,,,num_3,0.8729328999761492,num_3,0.55,1,0.55,1.35,21.01303,51.57743,return,2.197071300004609,,,,,,,,,,,,,,,,,712,19,male,up_down_width,2024-05-29_15h39.39.822,exp1,2023.1.0,59.99041352876004,
,,,,,,,,,,,,,,,,3,8.9,10,11.1,0,0,1.1,0.7000000000000001,0.4,2.6000000000000005,10,initial,36.05,321,361,400,0,0,9,9,9,0,0,,,,,,,4,0,4,0,0,14,14,4,,,,,,,,,,,,num_3,0.7192816999740899,num_3,0.35,1.1,0.35,1.2,13.37193,45.8466,return,0.9102726998971775,,,,,,,,,,,,,,,,,712,19,male,up_down_width,2024-05-29_15h39.39.822,exp1,2023.1.0,59.99041352876004,
,,,,,,,,,,,,,,,,5,8.275,9.1375,10,10.8625,11.725,0.8625,0.6125,0.25,3.7,10,match,36.05,298,329,361,392,423,9,9,9,9,9,,,,,,,4,0,4,0,0,15,15,22,,,,,,,,,,,,num_6,0.9297399000497535,num_6,0.35,0.5,0.3,1.0,11.46165,38.2055,return,1.7029252999927849,,,,,,,,,,,,,,,,,712,19,male,up_down_width,2024-05-29_15h39.39.822,exp1,2023.1.0,59.99041352876004,
,,,,,,,,,,,,,,,,3,7.8,10,12.2,0,0,2.2,1.9500000000000002,0.25,4.65,10,match,36.05,281,361,440,0,0,9,9,9,0,0,,,,,,,4,0,4,0,0,16,16,37,,,,,,,,,,,,num_3,0.7721698000095785,num_3,0.35,1.3,0.3,2.25,11.46165,85.96238,return,3.3590310000581667,,,,,,,,,,,,,,,,,712,19,male,up_down_width,2024-05-29_15h39.39.822,exp1,2023.1.0,59.99041352876004,
,,,,,,,,,,,,,,,,3,8.525,10,11.475,0,0,1.475,1.225,0.25,3.2,10,match,36.05,307,361,414,0,0,9,9,9,0,0,,,,,,,4,0,4,0,0,17,17,45,,,,,,,,,,,,num_3,0.8141338001005352,num_3,0.25,0.6,0.2,1.5,7.6411,57.30826,return,3.529185099992901,,,,,,,,,,,,,,,,,712,19,male,up_down_width,2024-05-29_15h39.39.822,exp1,2023.1.0,59.99041352876004,
,,,,,,,,,,,,,,,,5,7.8,8.9,10,11.1,12.2,1.1,0.55,0.55,4.95,10,initial,36.05,281,321,361,400,440,9,9,9,9,9,,,,,,,4,0,4,0,0,18,18,34,,,,,,,,,,,,num_7,1.29267319990322,num_7,0.2,0.3,0.49999999999999994,0.8,19.10275,30.5644,return,3.1408023999538273,,,,,,,,,,,,,,,,,712,19,male,up_down_width,2024-05-29_15h39.39.822,exp1,2023.1.0,59.99041352876004,
,,,,,,,,,,,,,,,,5,8.35,9.175,10,10.825,11.65,0.825,0.575,0.25,3.55,10,match,36.05,301,331,361,390,420,9,9,9,9,9,,,,,,,4,0,4,0,0,19,19,20,,,,,,,,,,,,num_5,1.1468271999619901,num_5,0.3,0.5,0.3,0.9,11.46165,34.38495,return,2.1151188999647275,,,,,,,,,,,,,,,,,712,19,male,up_down_width,2024-05-29_15h39.39.822,exp1,2023.1.0,59.99041352876004,
,,,,,,,,,,,,,,,,4,8.65,9.55,10.45,11.35,0,0.9,0.35,0.55,3.25,10,initial,36.05,312,344,377,409,0,9,9,9,9,0,,,,,,,4,0,4,0,0,20,20,28,,,,,,,,,,,,num_5,1.2910479999845847,num_5,0.25,1.3,0.5499999999999999,0.85,21.01303,32.47468,return,2.7544197000097483,,,,,,,,,,,,,,,,,712,19,male,up_down_width,2024-05-29_15h39.39.822,exp1,2023.1.0,59.99041352876004,
,,,,,,,,,,,,,,,,3,7.800000000000001,10,12.2,0,0,2.1999999999999997,1.7999999999999998,0.4,4.8,10,match,36.05,281,361,440,0,0,9,9,9,0,0,,,,,,,4,0,4,0,0,21,21,39,,,,,,,,,,,,num_3,0.9748290999559686,num_3,0.55,1.3,0.4,2.1,15.2822,80.23156,return,3.0892504000803456,,,,,,,,,,,,,,,,,712,19,male,up_down_width,2024-05-29_15h39.39.822,exp1,2023.1.0,59.99041352876004,
,,,,,,,,,,,,,,,,4,8.95,9.65,10.35,11.05,0,0.7,0.44999999999999996,0.25,2.3499999999999996,10,initial,36.05,323,348,373,398,0,9,9,9,9,0,,,,,,,4,0,4,0,0,22,22,24,,,,,,,,,,,,num_5,1.1864196999231353,num_5,0.4,1.2,0.35000000000000003,0.9,13.37193,34.38495,return,1.8370578000321984,,,,,,,,,,,,,,,,,712,19,male,up_down_width,2024-05-29_15h39.39.822,exp1,2023.1.0,59.99041352876004,
,,,,,,,,,,,,,,,,3,9.1,10,10.9,0,0,0.9,0.65,0.25,2.05,10,initial,36.05,328,361,393,0,0,9,9,9,0,0,,,,,,,4,0,4,0,0,23,23,13,,,,,,,,,,,,num_3,0.9380903000710532,num_3,0.45,1.2,0.30000000000000004,1.0,11.46165,38.2055,return,1.8759792998898774,,,,,,,,,,,,,,,,,712,19,male,up_down_width,2024-05-29_15h39.39.822,exp1,2023.1.0,59.99041352876004,
,,,,,,,,,,,,,,,,3,9.1,10,10.9,0,0,0.9,0.5,0.4,2.2,10,initial,36.05,328,361,393,0,0,9,9,9,0,0,,,,,,,4,0,4,0,0,24,24,15,,,,,,,,,,,,num_2,1.301786599913612,num_2,0.55,0.6,0.6000000000000001,1.5,22.9233,57.30826,return,1.933541200007312,,,,,,,,,,,,,,,,,712,19,male,up_down_width,2024-05-29_15h39.39.822,exp1,2023.1.0,59.99041352876004,
,,,,,,,,,,,,,,,,5,8.65,9.325,10,10.675,11.35,0.675,0.125,0.55,3.25,10,match,36.05,312,336,361,385,409,9,9,9,9,9,,,,,,,4,0,4,0,0,25,25,29,,,,,,,,,,,,num_6,1.20655949995853,num_6,0.45,0.5,0.45,0.6,17.19248,22.9233,return,1.215922400006093,,,,,,,,,,,,,,,,,712,19,male,up_down_width,2024-05-29_15h39.39.822,exp1,2023.1.0,59.99041352876004,
,,,,,,,,,,,,,,,,5,8.65,9.325,10,10.675,11.35,0.675,0.275,0.4,3.1,10,match,36.05,312,336,361,385,409,9,9,9,9,9,,,,,,,4,0,4,0,0,26,26,33,,,,,,,,,,,,num_7,1.553471100050956,num_7,0.4,0.5,0.4,0.5,15.2822,19.10275,return,1.0804213000228629,,,,,,,,,,,,,,,,,712,19,male,up_down_width,2024-05-29_15h39.39.822,exp1,2023.1.0,59.99041352876004,
,,,,,,,,,,,,,,,,5,8.6,9.3,10,10.7,11.4,0.7,0.44999999999999996,0.25,3.05,10,initial,36.05,310,335,361,386,411,9,9,9,9,9,,,,,,,4,0,4,0,0,27,27,42,,,,,,,,,,,,num_5,1.374049699981697,num_5,0.45,0.6,0.35000000000000003,0.7,13.37193,26.74385,return,2.1134151000296697,,,,,,,,,,,,,,,,,712,19,male,up_down_width,2024-05-29_15h39.39.822,exp1,2023.1.0,59.99041352876004,
,,,,,,,,,,,,,,,,3,7.8,10,12.2,0,0,2.2,1.65,0.55,4.95,10,match,36.05,281,361,440,0,0,9,9,9,0,0,,,,,,,4,0,4,0,0,28,28,35,,,,,,,,,,,,num_2,1.1699190000072122,num_2,0.2,1.4,0.7500000000000001,3.8,28.65413,145.18092,return,5.692323800059967,,,,,,,,,,,,,,,,,712,19,male,up_down_width,2024-05-29_15h39.39.822,exp1,2023.1.0,59.99041352876004,
,,,,,,,,,,,,,,,,3,9.3,10,10.7,0,0,0.7,0.29999999999999993,0.4,1.8,10,initial,36.05,335,361,386,0,0,9,9,9,0,0,,,,,,,4,0,4,0,0,29,29,9,,,,,,,,,,,,num_4,1.1256161999190226,num_4,0.4,0.8,0.45,0.6,17.19248,22.9233,return,1.431566199986264,,,,,,,,,,,,,,,,,712,19,male,up_down_width,2024-05-29_15h39.39.822,exp1,2023.1.0,59.99041352876004,
,,,,,,,,,,,,,,,,4,9.3,9.766666666666667,10.233333333333333,10.7,0,0.4666666666666667,0.06666666666666665,0.4,1.8,10,match,36.05,335,352,369,386,0,9,9,9,9,0,,,,,,,4,0,4,0,0,30,30,10,,,,,,,,,,,,num_4,1.2208255000878125,num_4,0.3,1.3,0.39999999999999997,0.6,15.2822,22.9233,return,2.2031686999835074,,,,,,,,,,,,,,,,,712,19,male,up_down_width,2024-05-29_15h39.39.822,exp1,2023.1.0,59.99041352876004,
,,,,,,,,,,,,,,,,4,8.35,9.45,10.55,11.65,0,1.1,0.55,0.55,3.8500000000000005,10,initial,36.05,301,341,380,420,0,9,9,9,9,0,,,,,,,4,0,4,0,0,31,31,17,,,,,,,,,,,,num_5,2.4715187000110745,num_5,0.5,0.9,0.5,0.9,19.10275,34.38495,return,0.9707767999498174,,,,,,,,,,,,,,,,,712,19,male,up_down_width,2024-05-29_15h39.39.822,exp1,2023.1.0,59.99041352876004,
,,,,,,,,,,,,,,,,5,7.8,8.9,10,11.1,12.2,1.1,0.7000000000000001,0.4,4.800000000000001,10,initial,36.05,281,321,361,400,440,9,9,9,9,9,,,,,,,4,0,4,0,0,32,32,38,,,,,,,,,,,,num_7,1.0941545000532642,num_7,0.4,1.3,0.4,1.2,15.2822,45.8466,return,1.160617099958472,,,,,,,,,,,,,,,,,712,19,male,up_down_width,2024-05-29_15h39.39.822,exp1,2023.1.0,59.99041352876004,
,,,,,,,,,,,,,,,,5,8.2,9.1,10,10.9,11.8,0.9,0.65,0.25,3.85,10,initial,36.05,296,328,361,393,425,9,9,9,9,9,,,,,,,4,0,4,0,0,33,33,48,,,,,,,,,,,,num_7,1.8513013001065701,num_7,0.2,0.9,0.2,0.9,7.6411,34.38495,return,0.7500884999753907,,,,,,,,,,,,,,,,,712,19,male,up_down_width,2024-05-29_15h39.39.822,exp1,2023.1.0,59.99041352876004,
,,,,,,,,,,,,,,,,3,8.6,10,11.4,0,0,1.4,1.15,0.25,3.05,10,match,36.05,310,361,411,0,0,9,9,9,0,0,,,,,,,4,0,4,0,0,34,34,43,,,,,,,,,,,,num_2,0.9285179000580683,num_2,0.55,1.0,0.30000000000000004,2.1,11.46165,80.23156,return,3.6096503000007942,,,,,,,,,,,,,,,,,712,19,male,up_down_width,2024-05-29_15h39.39.822,exp1,2023.1.0,59.99041352876004,
,,,,,,,,,,,,,,,,3,9.3,10,10.7,0,0,0.7,0.1499999999999999,0.55,1.95,10,initial,36.05,335,361,386,0,0,9,9,9,0,0,,,,,,,4,0,4,0,0,35,35,6,,,,,,,,,,,,num_2,0.851268200087361,num_2,0.25,1.4,0.49999999999999994,0.7,19.10275,26.74385,return,2.3462774999206886,,,,,,,,,,,,,,,,,712,19,male,up_down_width,2024-05-29_15h39.39.822,exp1,2023.1.0,59.99041352876004,
,,,,,,,,,,,,,,,,4,8.65,9.55,10.45,11.35,0,0.9,0.65,0.25,2.95,10,initial,36.05,312,344,377,409,0,9,9,9,9,0,,,,,,,4,0,4,0,0,36,36,30,,,,,,,,,,,,num_4,1.2686141000594944,num_4,0.5,0.8,0.30000000000000004,0.8,11.46165,30.5644,return,3.0999167999252677,,,,,,,,,,,,,,,,,712,19,male,up_down_width,2024-05-29_15h39.39.822,exp1,2023.1.0,59.99041352876004,
,,,,,,,,,,,,,,,,4,8.95,9.65,10.35,11.05,0,0.7,0.29999999999999993,0.4,2.5,10,initial,36.05,323,348,373,398,0,9,9,9,9,0,,,,,,,4,0,4,0,0,37,37,26,,,,,,,,,,,,num_5,1.095535800093785,num_5,0.25,0.3,0.3,0.55,11.46165,21.01303,return,1.9895421999972314,,,,,,,,,,,,,,,,,712,19,male,up_down_width,2024-05-29_15h39.39.822,exp1,2023.1.0,59.99041352876004,
,,,,,,,,,,,,,,,,5,8.95,9.475,10,10.525,11.05,0.525,0.125,0.4,2.5,10,match,36.05,323,342,361,379,398,9,9,9,9,9,,,,,,,4,0,4,0,0,38,38,27,,,,,,,,,,,,num_5,1.1317202999489382,num_5,0.2,0.6,0.35,0.5,13.37193,19.10275,return,1.9605034999549389,,,,,,,,,,,,,,,,,712,19,male,up_down_width,2024-05-29_15h39.39.822,exp1,2023.1.0,59.99041352876004,
,,,,,,,,,,,,,,,,3,8.9,10,11.1,0,0,1.1,0.55,0.55,2.75,10,initial,36.05,321,361,400,0,0,9,9,9,0,0,,,,,,,4,0,4,0,0,39,39,0,,,,,,,,,,,,num_3,0.9054434000281617,num_3,0.3,1,0.44999999999999996,0.85,17.19248,32.47468,return,1.550503799924627,,,,,,,,,,,,,,,,,712,19,male,up_down_width,2024-05-29_15h39.39.822,exp1,2023.1.0,59.99041352876004,
,,,,,,,,,,,,,,,,5,8.2,9.1,10,10.9,11.8,0.9,0.35,0.55,4.15,10,initial,36.05,296,328,361,393,425,9,9,9,9,9,,,,,,,4,0,4,0,0,40,40,46,,,,,,,,,,,,num_6,1.0388304999796674,num_6,0.3,0.8,0.44999999999999996,0.7,17.19248,26.74385,return,1.3423130000010133,,,,,,,,,,,,,,,,,712,19,male,up_down_width,2024-05-29_15h39.39.822,exp1,2023.1.0,59.99041352876004,
,,,,,,,,,,,,,,,,5,8.95,9.475,10,10.525,11.05,0.525,0.275,0.25,2.35,10,match,36.05,323,342,361,379,398,9,9,9,9,9,,,,,,,4,0,4,0,0,41,41,25,,,,,,,,,,,,num_5,0.8590545000042766,num_5,0.25,1.3,0.2,0.55,7.6411,21.01303,return,3.3318623000523075,,,,,,,,,,,,,,,,,712,19,male,up_down_width,2024-05-29_15h39.39.822,exp1,2023.1.0,59.99041352876004,
,,,,,,,,,,,,,,,,4,8.35,9.45,10.55,11.65,0,1.1,0.7000000000000001,0.4,3.7,10,initial,36.05,301,341,380,420,0,9,9,9,9,0,,,,,,,4,0,4,0,0,42,42,21,,,,,,,,,,,,num_6,1.2914094000589103,num_6,0.45,1.2,0.45,0.6,17.19248,22.9233,return,1.4419262999435887,,,,,,,,,,,,,,,,,712,19,male,up_down_width,2024-05-29_15h39.39.822,exp1,2023.1.0,59.99041352876004,
,,,,,,,,,,,,,,,,3,8.2,10,11.8,0,0,1.7999999999999998,1.4,0.4,4,10,match,36.05,296,361,425,0,0,9,9,9,0,0,,,,,,,4,0,4,0,0,43,43,51,,,,,,,,,,,,num_3,0.916102199931629,num_3,0.25,0.6,0.35,1.65,13.37193,63.03908,return,5.0202967000659555,,,,,,,,,,,,,,,,,712,19,male,up_down_width,2024-05-29_15h39.39.822,exp1,2023.1.0,59.99041352876004,
,,,,,,,,,,,,,,,,4,8.95,9.65,10.35,11.05,0,0.7,0.1499999999999999,0.55,2.65,10,initial,36.05,323,348,373,398,0,9,9,9,9,0,,,,,,,4,0,4,0,0,44,44,23,,,,,,,,,,,,num_5,1.3843968000728637,num_5,0.25,1.0,0.5499999999999999,0.65,21.01303,24.83358,return,2.1874276000307873,,,,,,,,,,,,,,,,,712,19,male,up_down_width,2024-05-29_15h39.39.822,exp1,2023.1.0,59.99041352876004,
,,,,,,,,,,,,,,,,4,9.1,9.7,10.3,10.9,0,0.5999999999999999,0.3499999999999999,0.25,2.05,10,match,36.05,328,350,371,393,0,9,9,9,9,0,,,,,,,4,0,4,0,0,45,45,14,,,,,,,,,,,,num_4,0.8640357999829575,num_4,0.3,0.6,0.25,0.7,9.55138,26.74385,return,1.1925165000138804,,,,,,,,,,,,,,,,,712,19,male,up_down_width,2024-05-29_15h39.39.822,exp1,2023.1.0,59.99041352876004,
,,,,,,,,,,,,,,,,3,9.3,10,10.7,0,0,0.7,0.44999999999999996,0.25,1.65,10,initial,36.05,335,361,386,0,0,9,9,9,0,0,,,,,,,4,0,4,0,0,46,46,7,,,,,,,,,,,,num_3,0.8539682000409812,num_3,0.4,1,0.30000000000000004,0.8,11.46165,30.5644,return,2.0294640000211075,,,,,,,,,,,,,,,,,712,19,male,up_down_width,2024-05-29_15h39.39.822,exp1,2023.1.0,59.99041352876004,
,,,,,,,,,,,,,,,,5,8.2,9.1,10,10.9,11.8,0.9,0.5,0.4,4,10,initial,36.05,296,328,361,393,425,9,9,9,9,9,,,,,,,4,0,4,0,0,47,47,50,,,,,,,,,,,,num_7,1.066000199993141,num_7,0.2,0.6,0.35,0.7,13.37193,26.74385,return,1.8663377000484616,,,,,,,,,,,,,,,,,712,19,male,up_down_width,2024-05-29_15h39.39.822,exp1,2023.1.0,59.99041352876004,
,,,,,,,,,,,,,,,,4,9.1,9.7,10.3,10.9,0,0.6,0.04999999999999997,0.55,2.35,10,match,36.05,328,350,371,393,0,9,9,9,9,0,,,,,,,4,0,4,0,0,48,48,12,,,,,,,,,,,,num_4,0.9651425000047311,num_4,0.25,0.4,0.6,0.7,22.9233,26.74385,return,2.5197672999929637,,,,,,,,,,,,,,,,,712,19,male,up_down_width,2024-05-29_15h39.39.822,exp1,2023.1.0,59.99041352876004,
,,,,,,,,,,,,,,,,5,8.35,9.175,10,10.825,11.65,0.8250000000000001,0.275,0.55,3.85,10,match,36.05,301,331,361,390,420,9,9,9,9,9,,,,,,,4,0,4,0,0,49,49,18,,,,,,,,,,,,num_5,0.9928032000316307,num_5,0.3,0.8,0.5499999999999999,0.7,21.01303,26.74385,return,1.4751325000543147,,,,,,,,,,,,,,,,,712,19,male,up_down_width,2024-05-29_15h39.39.822,exp1,2023.1.0,59.99041352876004,
,,,,,,,,,,,,,,,,5,8.6,9.3,10,10.7,11.4,0.7,0.29999999999999993,0.4,3.1999999999999997,10,initial,36.05,310,335,361,386,411,9,9,9,9,9,,,,,,,4,0,4,0,0,50,50,44,,,,,,,,,,,,num_7,0.9517361000180244,num_7,0.5,1.2,0.45,0.75,17.19248,28.65413,return,2.3844150999793783,,,,,,,,,,,,,,,,,712,19,male,up_down_width,2024-05-29_15h39.39.822,exp1,2023.1.0,59.99041352876004,
,,,,,,,,,,,,,,,,3,9.1,10,10.9,0,0,0.9,0.35,0.55,2.35,10,initial,36.05,328,361,393,0,0,9,9,9,0,0,,,,,,,4,0,4,0,0,51,51,11,,,,,,,,,,,,num_3,1.2560672999825329,num_3,0.2,0.5,0.49999999999999994,0.6,19.10275,22.9233,return,2.288098999997601,,,,,,,,,,,,,,,,,712,19,male,up_down_width,2024-05-29_15h39.39.822,exp1,2023.1.0,59.99041352876004,
,,,,,,,,,,,,,,,,,,,,,,,,,,,,,,,,,,,,,,,,,,,,,4,0,4,0,,,,,,,,,,,,,,,,,,,,,,,,,,,,,1981.3730804000515,1981.3730804000515,1981.3730804000515,,,,,,,,,,,,712,19,male,up_down_width,2024-05-29_15h39.39.822,exp1,2023.1.0,59.99041352876004,
,,,,,,,,,,,,,,,,5,8.2,9.1,10,10.9,11.8,0.9,0.65,0.25,3.85,10,initial,36.05,296,328,361,393,425,9,9,9,9,9,,,,,,,5,0,5,0,0,0,0,48,,,,,,,,,,,,num_6,1.0327850000467151,num_6,0.35,1.3,0.25,0.9,9.55138,34.38495,return,1.6885423000203446,,,,,,,,,,,,,,,,,712,19,male,up_down_width,2024-05-29_15h39.39.822,exp1,2023.1.0,59.99041352876004,
,,,,,,,,,,,,,,,,5,8.2,9.1,10,10.9,11.8,0.9,0.35,0.55,4.15,10,initial,36.05,296,328,361,393,425,9,9,9,9,9,,,,,,,5,0,5,0,0,1,1,46,,,,,,,,,,,,num_6,0.7860084999119863,num_6,0.55,0.9,0.55,0.9,21.01303,34.38495,return,0.784950100001879,,,,,,,,,,,,,,,,,712,19,male,up_down_width,2024-05-29_15h39.39.822,exp1,2023.1.0,59.99041352876004,
,,,,,,,,,,,,,,,,4,8.95,9.65,10.35,11.05,0,0.7,0.44999999999999996,0.25,2.3499999999999996,10,initial,36.05,323,348,373,398,0,9,9,9,9,0,,,,,,,5,0,5,0,0,2,2,24,,,,,,,,,,,,num_4,0.8851008000783622,num_4,0.35,1.0,0.35,1.2,13.37193,45.8466,return,1.2011981999967247,,,,,,,,,,,,,,,,,712,19,male,up_down_width,2024-05-29_15h39.39.822,exp1,2023.1.0,59.99041352876004,
,,,,,,,,,,,,,,,,4,8.65,9.55,10.45,11.35,0,0.9,0.35,0.55,3.25,10,initial,36.05,312,344,377,409,0,9,9,9,9,0,,,,,,,5,0,5,0,0,3,3,28,,,,,,,,,,,,num_5,0.802304600016214,num_5,0.35,1.2,0.49999999999999994,1.0,19.10275,38.2055,return,1.575283599901013,,,,,,,,,,,,,,,,,712,19,male,up_down_width,2024-05-29_15h39.39.822,exp1,2023.1.0,59.99041352876004,
,,,,,,,,,,,,,,,,3,8.525,10,11.475,0,0,1.475,1.225,0.25,3.2,10,match,36.05,307,361,414,0,0,9,9,9,0,0,,,,,,,5,0,5,0,0,4,4,45,,,,,,,,,,,,num_3,0.9915985999396071,num_3,0.55,0.8,0.20000000000000007,1.85,7.6411,70.68018,return,4.117791900062002,,,,,,,,,,,,,,,,,712,19,male,up_down_width,2024-05-29_15h39.39.822,exp1,2023.1.0,59.99041352876004,
,,,,,,,,,,,,,,,,3,9.3,10,10.7,0,0,0.7,0.44999999999999996,0.25,1.65,10,initial,36.05,335,361,386,0,0,9,9,9,0,0,,,,,,,5,0,5,0,0,5,5,7,,,,,,,,,,,,num_4,1.1288510999875143,num_4,0.4,0.7,0.25000000000000006,0.6,9.55138,22.9233,return,1.685680300113745,,,,,,,,,,,,,,,,,712,19,male,up_down_width,2024-05-29_15h39.39.822,exp1,2023.1.0,59.99041352876004,
,,,,,,,,,,,,,,,,5,7.8,8.9,10,11.1,12.2,1.1,0.55,0.55,4.95,10,initial,36.05,281,321,361,400,440,9,9,9,9,9,,,,,,,5,0,5,0,0,6,6,34,,,,,,,,,,,,num_7,1.0964812999591231,num_7,0.2,0.7,0.44999999999999996,0.85,17.19248,32.47468,return,1.799521700013429,,,,,,,,,,,,,,,,,712,19,male,up_down_width,2024-05-29_15h39.39.822,exp1,2023.1.0,59.99041352876004,
,,,,,,,,,,,,,,,,3,7.8,10,12.2,0,0,2.2,1.9500000000000002,0.25,4.65,10,match,36.05,281,361,440,0,0,9,9,9,0,0,,,,,,,5,0,5,0,0,7,7,37,,,,,,,,,,,,num_3,1.6540421999525279,num_3,0.3,0.5,0.3,1.75,11.46165,66.85963,return,5.084475900046527,,,,,,,,,,,,,,,,,712,19,male,up_down_width,2024-05-29_15h39.39.822,exp1,2023.1.0,59.99041352876004,
,,,,,,,,,,,,,,,,4,8.9,9.633333333333333,10.366666666666667,11.1,0,0.7333333333333333,0.18333333333333326,0.55,2.75,10,match,36.05,321,347,374,400,0,9,9,9,9,0,,,,,,,5,0,5,0,0,8,8,1,,,,,,,,,,,,num_4,1.061403900035657,num_4,0.45,0.9,0.6000000000000001,0.8,22.9233,30.5644,return,1.2053639000514522,,,,,,,,,,,,,,,,,712,19,male,up_down_width,2024-05-29_15h39.39.822,exp1,2023.1.0,59.99041352876004,
,,,,,,,,,,,,,,,,4,8.95,9.65,10.35,11.05,0,0.7,0.29999999999999993,0.4,2.5,10,initial,36.05,323,348,373,398,0,9,9,9,9,0,,,,,,,5,0,5,0,0,9,9,26,,,,,,,,,,,,num_4,0.7785067000659183,num_4,0.2,1.0,0.3,0.8,11.46165,30.5644,return,1.5294606999959797,,,,,,,,,,,,,,,,,712,19,male,up_down_width,2024-05-29_15h39.39.822,exp1,2023.1.0,59.99041352876004,
