amount_p,posx1_p,posx2_p,posx3_p,posx4_p,posx5_p,center_to_center_p,edge_to_edge_p,w_p,stim_lengt_p,eccentricity_p,line1_p,line2_p,line3_p,line4_p,line5_p,amount,posx1,posx2,posx3,posx4,posx5,center_to_center,edge_to_edge,w,stim_length,eccentricity,trial_type,deg_to_pix_index,posx1_in_pix,posx2_in_pix,posx3_in_pix,posx4_in_pix,posx5_in_pix,line1,line2,line3,line4,line5,posx,setsize_cobdi,trials.thisRepN,trials.thisTrialN,trials.thisN,trials.thisIndex,blocks.thisRepN,blocks.thisTrialN,blocks.thisN,blocks.thisIndex,loop.thisRepN,loop.thisTrialN,loop.thisN,loop.thisIndex,first.thisRepN,first.thisTrialN,first.thisN,first.thisIndex,second.thisRepN,second.thisTrialN,second.thisN,second.thisIndex,thisRow.t,notes,key_resp_3.started,key_resp_3.keys,key_resp_3.rt,key_resp.keys,key_resp.rt,response,starting_width_deg,response_width_degree,response_width_pixel,next_5.keys,next_5.rt,key_resp_4.keys,key_resp_4.rt,text_3.started,text_4.started,key_resp_2.started,text_2.started,key_resp_2.keys,key_resp_2.rt,adjusting.started,next.keys,next.rt,text_control2.started,key_resp.started,key_resp.corr,text_bye.started,text_bye.stopped,participant,age,gender,resp_group,date,expName,psychopyVersion,frameRate,
,,,,,,,,,,,,,,,,,,,,,,,,,,,,,,,,,,,,,,,,,,,,,,,,,,,,,,,,,,,,,,,282.5818797000102,c,220.31055270001525,,,,,,,,,,,,,,,,,,,,,,,,,p301,23,female,left_right_width,2025-11-11_12h37.09.721,exp1,2023.1.0,59.99044951755282,
4,8.65,9.55,10.45,11.35,0,0.9,0.5,0.4,3.1,10,9,9,9,9,0,,,,,,,,,,,,,,,,,,,,,,,,,,0,0,0,5,,,,,,,,,,,,,,,,,,,,,,4,2.674297299992759,4,0.3,0.2,7.20859,return,5.478544800018426,,,,,,,,,,,,,,,,,p301,23,female,left_right_width,2025-11-11_12h37.09.721,exp1,2023.1.0,59.99044951755282,
3,9,10,11,0,0,1,0.9,0.1,2.1,10,9,9,9,0,0,,,,,,,,,,,,,,,,,,,,,,,,,,0,1,1,1,,,,,,,,,,,,,,,,,,,,,,3,0.9844542000209913,3,0.3,0.10000000000000002,3.60429,return,4.062566099979449,,,,,,,,,,,,,,,,,p301,23,female,left_right_width,2025-11-11_12h37.09.721,exp1,2023.1.0,59.99044951755282,
5,8.6,9.3,10,10.7,11.4,0.7,0.29999999999999993,0.4,3.1999999999999997,10,9,9,9,9,9,,,,,,,,,,,,,,,,,,,,,,,,,,0,2,2,7,,,,,,,,,,,,,,,,,,,,,,4,1.2633688999922015,4,0.5,0.45,16.21932,return,3.261201399960555,,,,,,,,,,,,,,,,,p301,23,female,left_right_width,2025-11-11_12h37.09.721,exp1,2023.1.0,59.99044951755282,
4,9.5,9.833333333333334,10.166666666666666,10.5,0,0.33333333333333337,0.23333333333333336,0.1,1.1,10,9,9,9,9,0,,,,,,,,,,,,,,,,,,,,,,,,,,0,3,3,3,,,,,,,,,,,,,,,,,,,,,,4,1.6236195999663323,4,0.3,0.10000000000000002,3.60429,return,4.038451500004157,,,,,,,,,,,,,,,,,p301,23,female,left_right_width,2025-11-11_12h37.09.721,exp1,2023.1.0,59.99044951755282,
4,9.25,9.75,10.25,10.75,0,0.5,0.25,0.25,1.75,10,9,9,9,9,0,,,,,,,,,,,,,,,,,,,,,,,,,,0,4,4,4,,,,,,,,,,,,,,,,,,,,,,4,1.429321000003256,4,0.35,0.25,9.01073,return,2.362503200012725,,,,,,,,,,,,,,,,,p301,23,female,left_right_width,2025-11-11_12h37.09.721,exp1,2023.1.0,59.99044951755282,
5,9.25,9.625,10,10.375,10.75,0.375,0.125,0.25,1.75,10,9,9,9,9,9,,,,,,,,,,,,,,,,,,,,,,,,,,0,5,5,6,,,,,,,,,,,,,,,,,,,,,,4,1.2778904999722727,4,0.3,0.15000000000000002,5.40644,return,3.6579006999963894,,,,,,,,,,,,,,,,,p301,23,female,left_right_width,2025-11-11_12h37.09.721,exp1,2023.1.0,59.99044951755282,
3,9.5,10,10.5,0,0,0.5,0.4,0.1,1.1,10,9,9,9,0,0,,,,,,,,,,,,,,,,,,,,,,,,,,0,6,6,0,,,,,,,,,,,,,,,,,,,,,,3,1.2518656000029296,3,0.4,0.10000000000000007,3.60429,return,4.272548299981281,,,,,,,,,,,,,,,,,p301,23,female,left_right_width,2025-11-11_12h37.09.721,exp1,2023.1.0,59.99044951755282,
3,8.2,10,11.8,0,0,1.7999999999999998,1.4,0.4,4,10,9,9,9,0,0,,,,,,,,,,,,,,,,,,,,,,,,,,0,7,7,2,,,,,,,,,,,,,,,,,,,,,,3,1.2725753000122495,3,0.35,0.3,10.81288,return,1.732849299965892,,,,,,,,,,,,,,,,,p301,23,female,left_right_width,2025-11-11_12h37.09.721,exp1,2023.1.0,59.99044951755282,
5,9,9.5,10,10.5,11,0.5,0.09999999999999998,0.4,2.4,10,9,9,9,9,9,,,,,,,,,,,,,,,,,,,,,,,,,,0,8,8,8,,,,,,,,,,,,,,,,,,,,,,4,1.1046577999950387,4,0.25,0.3,10.81288,return,2.5465599999879487,,,,,,,,,,,,,,,,,p301,23,female,left_right_width,2025-11-11_12h37.09.721,exp1,2023.1.0,59.99044951755282,
,,,,,,,,,,,,,,,,,,,,,,,,,,,,,,,,,,,,,,,,,,,,,,,,,,,,,,,,,,,,,,,,,,,,,,,,,,c,39.33969180000713,,,,,,,,,,,,,,,p301,23,female,left_right_width,2025-11-11_12h37.09.721,exp1,2023.1.0,59.99044951755282,
,,,,,,,,,,,,,,,,5,8.65,9.325,10,10.675,11.35,0.675,0.42500000000000004,0.25,2.95,10,match,36.05,312,336,361,385,409,9,9,9,9,9,,,,,,,0,0,0,0,0,0,0,31,,,,,,,,,,,,,,4,0.717617699992843,4,0.25,0.15000000000000002,5.40644,return,1.2318773999577388,,,,,,,,,,,,,,,,,p301,23,female,left_right_width,2025-11-11_12h37.09.721,exp1,2023.1.0,59.99044951755282,
,,,,,,,,,,,,,,,,3,9.3,10,10.7,0,0,0.7,0.29999999999999993,0.4,1.8,10,initial,36.05,335,361,386,0,0,9,9,9,0,0,,,,,,,0,0,0,0,0,1,1,9,,,,,,,,,,,,,,3,1.1443606999819167,3,0.4,0.30000000000000004,10.81288,return,1.6895796999451704,,,,,,,,,,,,,,,,,p301,23,female,left_right_width,2025-11-11_12h37.09.721,exp1,2023.1.0,59.99044951755282,
,,,,,,,,,,,,,,,,3,8.6,10,11.4,0,0,1.4,0.85,0.55,3.35,10,match,36.05,310,361,411,0,0,9,9,9,0,0,,,,,,,0,0,0,0,0,2,2,41,,,,,,,,,,,,,,3,0.7179667000309564,3,0.35,0.35,12.61502,return,1.5523202999611385,,,,,,,,,,,,,,,,,p301,23,female,left_right_width,2025-11-11_12h37.09.721,exp1,2023.1.0,59.99044951755282,
,,,,,,,,,,,,,,,,3,7.8,10,12.2,0,0,2.2,1.65,0.55,4.95,10,match,36.05,281,361,440,0,0,9,9,9,0,0,,,,,,,0,0,0,0,0,3,3,35,,,,,,,,,,,,,,3,1.2440253000240773,3,0.3,0.35,12.61502,return,2.5518400000291876,,,,,,,,,,,,,,,,,p301,23,female,left_right_width,2025-11-11_12h37.09.721,exp1,2023.1.0,59.99044951755282,
,,,,,,,,,,,,,,,,3,8.2,10,11.8,0,0,1.7999999999999998,1.4,0.4,4,10,match,36.05,296,361,425,0,0,9,9,9,0,0,,,,,,,0,0,0,0,0,4,4,51,,,,,,,,,,,,,,3,1.2673340000328608,3,0.2,0.3,10.81288,return,1.83984720002627,,,,,,,,,,,,,,,,,p301,23,female,left_right_width,2025-11-11_12h37.09.721,exp1,2023.1.0,59.99044951755282,
,,,,,,,,,,,,,,,,5,8.275,9.1375,10,10.8625,11.725,0.8625,0.6125,0.25,3.7,10,match,36.05,298,329,361,392,423,9,9,9,9,9,,,,,,,0,0,0,0,0,5,5,22,,,,,,,,,,,,,,4,0.8184756999835372,4,0.2,0.2,7.20859,return,1.4091375999851152,,,,,,,,,,,,,,,,,p301,23,female,left_right_width,2025-11-11_12h37.09.721,exp1,2023.1.0,59.99044951755282,
,,,,,,,,,,,,,,,,3,9.1,10,10.9,0,0,0.9,0.5,0.4,2.2,10,initial,36.05,328,361,393,0,0,9,9,9,0,0,,,,,,,0,0,0,0,0,6,6,15,,,,,,,,,,,,,,3,1.0522752000251785,3,0.25,0.3,10.81288,return,2.0963525000261143,,,,,,,,,,,,,,,,,p301,23,female,left_right_width,2025-11-11_12h37.09.721,exp1,2023.1.0,59.99044951755282,
,,,,,,,,,,,,,,,,5,8.95,9.475,10,10.525,11.05,0.525,0.125,0.4,2.5,10,match,36.05,323,342,361,379,398,9,9,9,9,9,,,,,,,0,0,0,0,0,7,7,27,,,,,,,,,,,,,,4,1.222669799986761,4,0.25,0.3,10.81288,return,1.3800061999936588,,,,,,,,,,,,,,,,,p301,23,female,left_right_width,2025-11-11_12h37.09.721,exp1,2023.1.0,59.99044951755282,
,,,,,,,,,,,,,,,,5,8.6,9.3,10,10.7,11.4,0.7,0.44999999999999996,0.25,3.05,10,initial,36.05,310,335,361,386,411,9,9,9,9,9,,,,,,,0,0,0,0,0,8,8,42,,,,,,,,,,,,,,4,0.8226166000240482,4,0.55,0.25000000000000006,9.01073,return,1.987241199996788,,,,,,,,,,,,,,,,,p301,23,female,left_right_width,2025-11-11_12h37.09.721,exp1,2023.1.0,59.99044951755282,
,,,,,,,,,,,,,,,,5,8.2,9.1,10,10.9,11.8,0.9,0.35,0.55,4.15,10,initial,36.05,296,328,361,393,425,9,9,9,9,9,,,,,,,0,0,0,0,0,9,9,46,,,,,,,,,,,,,,4,0.6213138999883085,4,0.25,0.35,12.61502,return,1.2994488999829628,,,,,,,,,,,,,,,,,p301,23,female,left_right_width,2025-11-11_12h37.09.721,exp1,2023.1.0,59.99044951755282,
,,,,,,,,,,,,,,,,3,8.525,10,11.475,0,0,1.475,1.225,0.25,3.2,10,match,36.05,307,361,414,0,0,9,9,9,0,0,,,,,,,0,0,0,0,0,10,10,45,,,,,,,,,,,,,,3,0.7160118999890983,3,0.45,0.25000000000000006,9.01073,return,2.1749686999828555,,,,,,,,,,,,,,,,,p301,23,female,left_right_width,2025-11-11_12h37.09.721,exp1,2023.1.0,59.99044951755282,
,,,,,,,,,,,,,,,,3,9.1,10,10.9,0,0,0.9,0.35,0.55,2.35,10,initial,36.05,328,361,393,0,0,9,9,9,0,0,,,,,,,0,0,0,0,0,11,11,11,,,,,,,,,,,,,,3,1.435530699964147,3,0.3,0.35,12.61502,return,1.441200300003402,,,,,,,,,,,,,,,,,p301,23,female,left_right_width,2025-11-11_12h37.09.721,exp1,2023.1.0,59.99044951755282,
,,,,,,,,,,,,,,,,4,9.3,9.766666666666667,10.233333333333333,10.7,0,0.4666666666666667,0.21666666666666665,0.25,1.65,10,match,36.05,335,352,369,386,0,9,9,9,9,0,,,,,,,0,0,0,0,0,12,12,8,,,,,,,,,,,,,,3,1.635619000007864,3,0.25,0.25,9.01073,return,1.7293380000046454,,,,,,,,,,,,,,,,,p301,23,female,left_right_width,2025-11-11_12h37.09.721,exp1,2023.1.0,59.99044951755282,
,,,,,,,,,,,,,,,,3,9.3,10,10.7,0,0,0.7,0.44999999999999996,0.25,1.65,10,initial,36.05,335,361,386,0,0,9,9,9,0,0,,,,,,,0,0,0,0,0,13,13,7,,,,,,,,,,,,,,3,0.6705555000226013,3,0.55,0.20000000000000007,7.20859,return,2.194578199996613,,,,,,,,,,,,,,,,,p301,23,female,left_right_width,2025-11-11_12h37.09.721,exp1,2023.1.0,59.99044951755282,
,,,,,,,,,,,,,,,,5,7.8,8.9,10,11.1,12.2,1.1,0.7000000000000001,0.4,4.800000000000001,10,initial,36.05,281,321,361,400,440,9,9,9,9,9,,,,,,,0,0,0,0,0,14,14,38,,,,,,,,,,,,,,4,0.6069619000190869,4,0.3,0.3,10.81288,return,1.444575099973008,,,,,,,,,,,,,,,,,p301,23,female,left_right_width,2025-11-11_12h37.09.721,exp1,2023.1.0,59.99044951755282,
,,,,,,,,,,,,,,,,4,8.35,9.45,10.55,11.65,0,1.1,0.7000000000000001,0.4,3.7,10,initial,36.05,301,341,380,420,0,9,9,9,9,0,,,,,,,0,0,0,0,0,15,15,21,,,,,,,,,,,,,,4,0.7130788000067696,4,0.55,0.30000000000000004,10.81288,return,2.346526700013783,,,,,,,,,,,,,,,,,p301,23,female,left_right_width,2025-11-11_12h37.09.721,exp1,2023.1.0,59.99044951755282,
,,,,,,,,,,,,,,,,3,7.800000000000001,10,12.2,0,0,2.1999999999999997,1.7999999999999998,0.4,4.8,10,match,36.05,281,361,440,0,0,9,9,9,0,0,,,,,,,0,0,0,0,0,16,16,39,,,,,,,,,,,,,,3,0.8149438000400551,3,0.4,0.25000000000000006,9.01073,return,1.5966188000165857,,,,,,,,,,,,,,,,,p301,23,female,left_right_width,2025-11-11_12h37.09.721,exp1,2023.1.0,59.99044951755282,
,,,,,,,,,,,,,,,,5,8.6,9.3,10,10.7,11.4,0.7,0.1499999999999999,0.55,3.3499999999999996,10,initial,36.05,310,335,361,386,411,9,9,9,9,9,,,,,,,0,0,0,0,0,17,17,40,,,,,,,,,,,,,,4,1.0726553000276908,4,0.35,0.3,10.81288,return,2.660441300016828,,,,,,,,,,,,,,,,,p301,23,female,left_right_width,2025-11-11_12h37.09.721,exp1,2023.1.0,59.99044951755282,
,,,,,,,,,,,,,,,,4,9.1,9.7,10.3,10.9,0,0.6,0.04999999999999997,0.55,2.35,10,match,36.05,328,350,371,393,0,9,9,9,9,0,,,,,,,0,0,0,0,0,18,18,12,,,,,,,,,,,,,,3,1.1166927999584004,3,0.55,0.5,18.02146,return,2.0327661000192165,,,,,,,,,,,,,,,,,p301,23,female,left_right_width,2025-11-11_12h37.09.721,exp1,2023.1.0,59.99044951755282,
,,,,,,,,,,,,,,,,4,9.1,9.7,10.3,10.9,0,0.5999999999999999,0.3499999999999999,0.25,2.05,10,match,36.05,328,350,371,393,0,9,9,9,9,0,,,,,,,0,0,0,0,0,19,19,14,,,,,,,,,,,,,,3,1.4330715999822132,3,0.55,0.30000000000000004,10.81288,return,2.6371904999832623,,,,,,,,,,,,,,,,,p301,23,female,left_right_width,2025-11-11_12h37.09.721,exp1,2023.1.0,59.99044951755282,
,,,,,,,,,,,,,,,,5,8.35,9.175,10,10.825,11.65,0.825,0.575,0.25,3.55,10,match,36.05,301,331,361,390,420,9,9,9,9,9,,,,,,,0,0,0,0,0,20,20,20,,,,,,,,,,,,,,4,1.0682763999793679,4,0.25,0.2,7.20859,return,1.407362500031013,,,,,,,,,,,,,,,,,p301,23,female,left_right_width,2025-11-11_12h37.09.721,exp1,2023.1.0,59.99044951755282,
,,,,,,,,,,,,,,,,4,8.825,9.608333333333333,10.391666666666667,11.175,0,0.7833333333333333,0.5333333333333333,0.25,2.6,10,match,36.05,318,346,375,403,0,9,9,9,9,0,,,,,,,0,0,0,0,0,21,21,5,,,,,,,,,,,,,,4,1.2800329999881797,4,0.35,0.2,7.20859,return,1.6916747000068426,,,,,,,,,,,,,,,,,p301,23,female,left_right_width,2025-11-11_12h37.09.721,exp1,2023.1.0,59.99044951755282,
,,,,,,,,,,,,,,,,4,8.35,9.45,10.55,11.65,0,1.1,0.8500000000000001,0.25,3.5500000000000003,10,initial,36.05,301,341,380,420,0,9,9,9,9,0,,,,,,,0,0,0,0,0,22,22,19,,,,,,,,,,,,,,3,1.1506778999464586,3,0.4,0.25000000000000006,9.01073,return,2.2406908000120893,,,,,,,,,,,,,,,,,p301,23,female,left_right_width,2025-11-11_12h37.09.721,exp1,2023.1.0,59.99044951755282,
,,,,,,,,,,,,,,,,3,8.9,10,11.1,0,0,1.1,0.8500000000000001,0.25,2.45,10,initial,36.05,321,361,400,0,0,9,9,9,0,0,,,,,,,0,0,0,0,0,23,23,2,,,,,,,,,,,,,,3,0.76536139997188,3,0.4,0.20000000000000007,7.20859,return,1.6292353000026196,,,,,,,,,,,,,,,,,p301,23,female,left_right_width,2025-11-11_12h37.09.721,exp1,2023.1.0,59.99044951755282,
,,,,,,,,,,,,,,,,4,8.65,9.55,10.45,11.35,0,0.9,0.5,0.4,3.1,10,initial,36.05,312,344,377,409,0,9,9,9,9,0,,,,,,,0,0,0,0,0,24,24,32,,,,,,,,,,,,,,3,2.0161821999936365,3,0.5,0.35000000000000003,12.61502,return,2.3025969000300393,,,,,,,,,,,,,,,,,p301,23,female,left_right_width,2025-11-11_12h37.09.721,exp1,2023.1.0,59.99044951755282,
,,,,,,,,,,,,,,,,4,9.1,9.7,10.3,10.9,0,0.6000000000000001,0.20000000000000004,0.4,2.2,10,match,36.05,328,350,371,393,0,9,9,9,9,0,,,,,,,0,0,0,0,0,25,25,16,,,,,,,,,,,,,,3,1.439413100015372,3,0.3,0.3,10.81288,return,4.228702199994586,,,,,,,,,,,,,,,,,p301,23,female,left_right_width,2025-11-11_12h37.09.721,exp1,2023.1.0,59.99044951755282,
,,,,,,,,,,,,,,,,5,8.35,9.175,10,10.825,11.65,0.8250000000000001,0.275,0.55,3.85,10,match,36.05,301,331,361,390,420,9,9,9,9,9,,,,,,,0,0,0,0,0,26,26,18,,,,,,,,,,,,,,3,1.9511162000126205,3,0.3,0.3,10.81288,return,1.551004299952183,,,,,,,,,,,,,,,,,p301,23,female,left_right_width,2025-11-11_12h37.09.721,exp1,2023.1.0,59.99044951755282,
,,,,,,,,,,,,,,,,3,7.8,10,12.2,0,0,2.2,1.9500000000000002,0.25,4.65,10,match,36.05,281,361,440,0,0,9,9,9,0,0,,,,,,,0,0,0,0,0,27,27,37,,,,,,,,,,,,,,3,1.0430930000147782,3,0.4,0.20000000000000007,7.20859,return,3.1438572999904864,,,,,,,,,,,,,,,,,p301,23,female,left_right_width,2025-11-11_12h37.09.721,exp1,2023.1.0,59.99044951755282,
,,,,,,,,,,,,,,,,5,8.65,9.325,10,10.675,11.35,0.675,0.125,0.55,3.25,10,match,36.05,312,336,361,385,409,9,9,9,9,9,,,,,,,0,0,0,0,0,28,28,29,,,,,,,,,,,,,,4,1.2327898999792524,4,0.25,0.35,12.61502,return,1.2949876000056975,,,,,,,,,,,,,,,,,p301,23,female,left_right_width,2025-11-11_12h37.09.721,exp1,2023.1.0,59.99044951755282,
,,,,,,,,,,,,,,,,3,8.2,10,11.8,0,0,1.8,1.25,0.55,4.15,10,match,36.05,296,361,425,0,0,9,9,9,0,0,,,,,,,0,0,0,0,0,29,29,47,,,,,,,,,,,,,,3,0.6860985000384971,3,0.35,0.35,12.61502,return,1.7303698000032455,,,,,,,,,,,,,,,,,p301,23,female,left_right_width,2025-11-11_12h37.09.721,exp1,2023.1.0,59.99044951755282,
,,,,,,,,,,,,,,,,4,8.65,9.55,10.45,11.35,0,0.9,0.65,0.25,2.95,10,initial,36.05,312,344,377,409,0,9,9,9,9,0,,,,,,,0,0,0,0,0,30,30,30,,,,,,,,,,,,,,3,0.7301497000153176,3,0.55,0.25000000000000006,9.01073,return,2.42778059997363,,,,,,,,,,,,,,,,,p301,23,female,left_right_width,2025-11-11_12h37.09.721,exp1,2023.1.0,59.99044951755282,
,,,,,,,,,,,,,,,,4,8.9,9.633333333333333,10.366666666666667,11.1,0,0.7333333333333334,0.4833333333333334,0.25,2.45,10,match,36.05,321,347,374,400,0,9,9,9,9,0,,,,,,,0,0,0,0,0,31,31,3,,,,,,,,,,,,,,3,0.6848628000007011,3,0.5,0.20000000000000007,7.20859,return,2.1272197000216693,,,,,,,,,,,,,,,,,p301,23,female,left_right_width,2025-11-11_12h37.09.721,exp1,2023.1.0,59.99044951755282,
,,,,,,,,,,,,,,,,4,8.95,9.65,10.35,11.05,0,0.7,0.29999999999999993,0.4,2.5,10,initial,36.05,323,348,373,398,0,9,9,9,9,0,,,,,,,0,0,0,0,0,32,32,26,,,,,,,,,,,,,,4,0.6506819000351243,4,0.55,0.4,14.41717,return,1.5846650999737903,,,,,,,,,,,,,,,,,p301,23,female,left_right_width,2025-11-11_12h37.09.721,exp1,2023.1.0,59.99044951755282,
,,,,,,,,,,,,,,,,5,7.8,8.9,10,11.1,12.2,1.1,0.8500000000000001,0.25,4.65,10,initial,36.05,281,321,361,400,440,9,9,9,9,9,,,,,,,0,0,0,0,0,33,33,36,,,,,,,,,,,,,,4,0.903381799987983,4,0.3,0.25,9.01073,return,1.714518600027077,,,,,,,,,,,,,,,,,p301,23,female,left_right_width,2025-11-11_12h37.09.721,exp1,2023.1.0,59.99044951755282,
,,,,,,,,,,,,,,,,3,8.2,10,11.8,0,0,1.8,1.55,0.25,3.85,10,match,36.05,296,361,425,0,0,9,9,9,0,0,,,,,,,0,0,0,0,0,34,34,49,,,,,,,,,,,,,,3,1.0609890000196174,3,0.3,0.2,7.20859,return,1.1458990999963135,,,,,,,,,,,,,,,,,p301,23,female,left_right_width,2025-11-11_12h37.09.721,exp1,2023.1.0,59.99044951755282,
,,,,,,,,,,,,,,,,4,8.65,9.55,10.45,11.35,0,0.9,0.35,0.55,3.25,10,initial,36.05,312,344,377,409,0,9,9,9,9,0,,,,,,,0,0,0,0,0,35,35,28,,,,,,,,,,,,,,4,0.8398517000023276,4,0.45,0.35000000000000003,12.61502,return,1.1583122999873012,,,,,,,,,,,,,,,,,p301,23,female,left_right_width,2025-11-11_12h37.09.721,exp1,2023.1.0,59.99044951755282,
,,,,,,,,,,,,,,,,4,9.3,9.766666666666667,10.233333333333333,10.7,0,0.4666666666666667,0.06666666666666665,0.4,1.8,10,match,36.05,335,352,369,386,0,9,9,9,9,0,,,,,,,0,0,0,0,0,36,36,10,,,,,,,,,,,,,,3,1.0859629000187851,3,0.2,0.35,12.61502,return,2.2736930000246502,,,,,,,,,,,,,,,,,p301,23,female,left_right_width,2025-11-11_12h37.09.721,exp1,2023.1.0,59.99044951755282,
,,,,,,,,,,,,,,,,5,8.6,9.3,10,10.7,11.4,0.7,0.29999999999999993,0.4,3.1999999999999997,10,initial,36.05,310,335,361,386,411,9,9,9,9,9,,,,,,,0,0,0,0,0,37,37,44,,,,,,,,,,,,,,4,0.8263414999819361,4,0.25,0.3,10.81288,return,1.3050337000167929,,,,,,,,,,,,,,,,,p301,23,female,left_right_width,2025-11-11_12h37.09.721,exp1,2023.1.0,59.99044951755282,
,,,,,,,,,,,,,,,,4,8.95,9.65,10.35,11.05,0,0.7,0.44999999999999996,0.25,2.3499999999999996,10,initial,36.05,323,348,373,398,0,9,9,9,9,0,,,,,,,0,0,0,0,0,38,38,24,,,,,,,,,,,,,,4,0.8432062999927439,4,0.2,0.3,10.81288,return,1.799499000015203,,,,,,,,,,,,,,,,,p301,23,female,left_right_width,2025-11-11_12h37.09.721,exp1,2023.1.0,59.99044951755282,
,,,,,,,,,,,,,,,,5,8.2,9.1,10,10.9,11.8,0.9,0.65,0.25,3.85,10,initial,36.05,296,328,361,393,425,9,9,9,9,9,,,,,,,0,0,0,0,0,39,39,48,,,,,,,,,,,,,,4,1.2507959000067785,4,0.2,0.25,9.01073,return,1.1676197999622673,,,,,,,,,,,,,,,,,p301,23,female,left_right_width,2025-11-11_12h37.09.721,exp1,2023.1.0,59.99044951755282,
,,,,,,,,,,,,,,,,4,8.95,9.65,10.35,11.05,0,0.7,0.1499999999999999,0.55,2.65,10,initial,36.05,323,348,373,398,0,9,9,9,9,0,,,,,,,0,0,0,0,0,40,40,23,,,,,,,,,,,,,,3,0.882704499992542,3,0.45,0.35000000000000003,12.61502,return,1.3751824999926612,,,,,,,,,,,,,,,,,p301,23,female,left_right_width,2025-11-11_12h37.09.721,exp1,2023.1.0,59.99044951755282,
,,,,,,,,,,,,,,,,5,8.65,9.325,10,10.675,11.35,0.675,0.275,0.4,3.1,10,match,36.05,312,336,361,385,409,9,9,9,9,9,,,,,,,0,0,0,0,0,41,41,33,,,,,,,,,,,,,,4,0.9452431999961846,4,0.2,0.3,10.81288,return,1.2092548999935389,,,,,,,,,,,,,,,,,p301,23,female,left_right_width,2025-11-11_12h37.09.721,exp1,2023.1.0,59.99044951755282,
,,,,,,,,,,,,,,,,5,7.8,8.9,10,11.1,12.2,1.1,0.55,0.55,4.95,10,initial,36.05,281,321,361,400,440,9,9,9,9,9,,,,,,,0,0,0,0,0,42,42,34,,,,,,,,,,,,,,4,0.6150114000192843,4,0.55,0.35000000000000003,12.61502,return,2.380602099990938,,,,,,,,,,,,,,,,,p301,23,female,left_right_width,2025-11-11_12h37.09.721,exp1,2023.1.0,59.99044951755282,
,,,,,,,,,,,,,,,,3,9.1,10,10.9,0,0,0.9,0.65,0.25,2.05,10,initial,36.05,328,361,393,0,0,9,9,9,0,0,,,,,,,0,0,0,0,0,43,43,13,,,,,,,,,,,,,,3,0.6236792999552563,3,0.5,0.30000000000000004,10.81288,return,1.5091947999899276,,,,,,,,,,,,,,,,,p301,23,female,left_right_width,2025-11-11_12h37.09.721,exp1,2023.1.0,59.99044951755282,
,,,,,,,,,,,,,,,,5,8.2,9.1,10,10.9,11.8,0.9,0.5,0.4,4,10,initial,36.05,296,328,361,393,425,9,9,9,9,9,,,,,,,0,0,0,0,0,44,44,50,,,,,,,,,,,,,,4,0.7035051999846473,4,0.4,0.25000000000000006,9.01073,return,1.5233348000328988,,,,,,,,,,,,,,,,,p301,23,female,left_right_width,2025-11-11_12h37.09.721,exp1,2023.1.0,59.99044951755282,
,,,,,,,,,,,,,,,,4,8.9,9.633333333333333,10.366666666666667,11.1,0,0.7333333333333333,0.18333333333333326,0.55,2.75,10,match,36.05,321,347,374,400,0,9,9,9,9,0,,,,,,,0,0,0,0,0,45,45,1,,,,,,,,,,,,,,3,0.7599082000087947,3,0.2,0.35,12.61502,return,1.5446494999923743,,,,,,,,,,,,,,,,,p301,23,female,left_right_width,2025-11-11_12h37.09.721,exp1,2023.1.0,59.99044951755282,
,,,,,,,,,,,,,,,,3,8.9,10,11.1,0,0,1.1,0.7000000000000001,0.4,2.6000000000000005,10,initial,36.05,321,361,400,0,0,9,9,9,0,0,,,,,,,0,0,0,0,0,46,46,4,,,,,,,,,,,,,,3,0.6933502000174485,3,0.4,0.30000000000000004,10.81288,return,1.7513885999796912,,,,,,,,,,,,,,,,,p301,23,female,left_right_width,2025-11-11_12h37.09.721,exp1,2023.1.0,59.99044951755282,
,,,,,,,,,,,,,,,,3,8.6,10,11.4,0,0,1.4,1.15,0.25,3.05,10,match,36.05,310,361,411,0,0,9,9,9,0,0,,,,,,,0,0,0,0,0,47,47,43,,,,,,,,,,,,,,3,0.6325666000484489,3,0.3,0.2,7.20859,return,1.167513800028246,,,,,,,,,,,,,,,,,p301,23,female,left_right_width,2025-11-11_12h37.09.721,exp1,2023.1.0,59.99044951755282,
,,,,,,,,,,,,,,,,4,8.35,9.45,10.55,11.65,0,1.1,0.55,0.55,3.8500000000000005,10,initial,36.05,301,341,380,420,0,9,9,9,9,0,,,,,,,0,0,0,0,0,48,48,17,,,,,,,,,,,,,,4,0.7873442000127397,4,0.35,0.3,10.81288,return,1.2674888000474311,,,,,,,,,,,,,,,,,p301,23,female,left_right_width,2025-11-11_12h37.09.721,exp1,2023.1.0,59.99044951755282,
,,,,,,,,,,,,,,,,3,9.3,10,10.7,0,0,0.7,0.1499999999999999,0.55,1.95,10,initial,36.05,335,361,386,0,0,9,9,9,0,0,,,,,,,0,0,0,0,0,49,49,6,,,,,,,,,,,,,,3,0.4587662000558339,3,0.4,0.35000000000000003,12.61502,return,1.1424478000262752,,,,,,,,,,,,,,,,,p301,23,female,left_right_width,2025-11-11_12h37.09.721,exp1,2023.1.0,59.99044951755282,
,,,,,,,,,,,,,,,,3,8.9,10,11.1,0,0,1.1,0.55,0.55,2.75,10,initial,36.05,321,361,400,0,0,9,9,9,0,0,,,,,,,0,0,0,0,0,50,50,0,,,,,,,,,,,,,,3,0.5620669000199996,3,0.2,0.35,12.61502,return,1.5472120000049472,,,,,,,,,,,,,,,,,p301,23,female,left_right_width,2025-11-11_12h37.09.721,exp1,2023.1.0,59.99044951755282,
,,,,,,,,,,,,,,,,5,8.95,9.475,10,10.525,11.05,0.525,0.275,0.25,2.35,10,match,36.05,323,342,361,379,398,9,9,9,9,9,,,,,,,0,0,0,0,0,51,51,25,,,,,,,,,,,,,,4,0.6405947000021115,4,0.4,0.25000000000000006,9.01073,return,1.5893835999886505,,,,,,,,,,,,,,,,,p301,23,female,left_right_width,2025-11-11_12h37.09.721,exp1,2023.1.0,59.99044951755282,
,,,,,,,,,,,,,,,,,,,,,,,,,,,,,,,,,,,,,,,,,,,,,0,0,0,0,,,,,,,,,,,,,,,,,,,,,,,,,,,,836.7429653999861,836.7429653999861,836.7429653999861,,,,,,,,,,,,p301,23,female,left_right_width,2025-11-11_12h37.09.721,exp1,2023.1.0,59.99044951755282,
,,,,,,,,,,,,,,,,5,7.8,8.9,10,11.1,12.2,1.1,0.55,0.55,4.95,10,initial,36.05,281,321,361,400,440,9,9,9,9,9,,,,,,,1,0,1,0,0,0,0,34,,,,,,,,,,,,,,5,1.1277890999917872,5,0.3,0.35,12.61502,return,1.6420393000007607,,,,,,,,,,,,,,,,,p301,23,female,left_right_width,2025-11-11_12h37.09.721,exp1,2023.1.0,59.99044951755282,
,,,,,,,,,,,,,,,,5,8.6,9.3,10,10.7,11.4,0.7,0.44999999999999996,0.25,3.05,10,initial,36.05,310,335,361,386,411,9,9,9,9,9,,,,,,,1,0,1,0,0,1,1,42,,,,,,,,,,,,,,4,1.547292799979914,4,0.55,0.30000000000000004,10.81288,return,2.203880199987907,,,,,,,,,,,,,,,,,p301,23,female,left_right_width,2025-11-11_12h37.09.721,exp1,2023.1.0,59.99044951755282,
,,,,,,,,,,,,,,,,5,8.6,9.3,10,10.7,11.4,0.7,0.29999999999999993,0.4,3.1999999999999997,10,initial,36.05,310,335,361,386,411,9,9,9,9,9,,,,,,,1,0,1,0,0,2,2,44,,,,,,,,,,,,,,4,0.7343820999958552,4,0.4,0.25000000000000006,9.01073,return,1.486237799981609,,,,,,,,,,,,,,,,,p301,23,female,left_right_width,2025-11-11_12h37.09.721,exp1,2023.1.0,59.99044951755282,
,,,,,,,,,,,,,,,,5,8.2,9.1,10,10.9,11.8,0.9,0.65,0.25,3.85,10,initial,36.05,296,328,361,393,425,9,9,9,9,9,,,,,,,1,0,1,0,0,3,3,48,,,,,,,,,,,,,,4,2.3356235999963246,4,0.2,0.2,7.20859,return,1.3137506000348367,,,,,,,,,,,,,,,,,p301,23,female,left_right_width,2025-11-11_12h37.09.721,exp1,2023.1.0,59.99044951755282,
,,,,,,,,,,,,,,,,5,8.65,9.325,10,10.675,11.35,0.675,0.42500000000000004,0.25,2.95,10,match,36.05,312,336,361,385,409,9,9,9,9,9,,,,,,,1,0,1,0,0,4,4,31,,,,,,,,,,,,,,5,0.9098833000170998,5,0.45,0.25000000000000006,9.01073,return,1.4654168999986723,,,,,,,,,,,,,,,,,p301,23,female,left_right_width,2025-11-11_12h37.09.721,exp1,2023.1.0,59.99044951755282,
,,,,,,,,,,,,,,,,5,8.65,9.325,10,10.675,11.35,0.675,0.275,0.4,3.1,10,match,36.05,312,336,361,385,409,9,9,9,9,9,,,,,,,1,0,1,0,0,5,5,33,,,,,,,,,,,,,,4,2.2682088000001386,4,0.3,0.25,9.01073,return,1.4707497999770567,,,,,,,,,,,,,,,,,p301,23,female,left_right_width,2025-11-11_12h37.09.721,exp1,2023.1.0,59.99044951755282,
,,,,,,,,,,,,,,,,4,8.9,9.633333333333333,10.366666666666667,11.1,0,0.7333333333333334,0.4833333333333334,0.25,2.45,10,match,36.05,321,347,374,400,0,9,9,9,9,0,,,,,,,1,0,1,0,0,6,6,3,,,,,,,,,,,,,,4,0.7751511000096798,4,0.55,0.20000000000000007,7.20859,return,2.168142499984242,,,,,,,,,,,,,,,,,p301,23,female,left_right_width,2025-11-11_12h37.09.721,exp1,2023.1.0,59.99044951755282,
,,,,,,,,,,,,,,,,5,8.35,9.175,10,10.825,11.65,0.825,0.575,0.25,3.55,10,match,36.05,301,331,361,390,420,9,9,9,9,9,,,,,,,1,0,1,0,0,7,7,20,,,,,,,,,,,,,,4,2.1884947000071406,4,0.25,0.15000000000000002,5.40644,return,1.3649429999641143,,,,,,,,,,,,,,,,,p301,23,female,left_right_width,2025-11-11_12h37.09.721,exp1,2023.1.0,59.99044951755282,
,,,,,,,,,,,,,,,,3,8.2,10,11.8,0,0,1.7999999999999998,1.4,0.4,4,10,match,36.05,296,361,425,0,0,9,9,9,0,0,,,,,,,1,0,1,0,0,8,8,51,,,,,,,,,,,,,,3,0.8241029999917373,3,0.55,0.30000000000000004,10.81288,return,2.5975432000122964,,,,,,,,,,,,,,,,,p301,23,female,left_right_width,2025-11-11_12h37.09.721,exp1,2023.1.0,59.99044951755282,
,,,,,,,,,,,,,,,,4,8.35,9.45,10.55,11.65,0,1.1,0.8500000000000001,0.25,3.5500000000000003,10,initial,36.05,301,341,380,420,0,9,9,9,9,0,,,,,,,1,0,1,0,0,9,9,19,,,,,,,,,,,,,,4,0.7913996000424959,4,0.2,0.2,7.20859,return,2.1013509000185877,,,,,,,,,,,,,,,,,p301,23,female,left_right_width,2025-11-11_12h37.09.721,exp1,2023.1.0,59.99044951755282,
,,,,,,,,,,,,,,,,3,8.9,10,11.1,0,0,1.1,0.55,0.55,2.75,10,initial,36.05,321,361,400,0,0,9,9,9,0,0,,,,,,,1,0,1,0,0,10,10,0,,,,,,,,,,,,,,3,1.2033263000193983,3,0.25,0.3,10.81288,return,1.521799899986945,,,,,,,,,,,,,,,,,p301,23,female,left_right_width,2025-11-11_12h37.09.721,exp1,2023.1.0,59.99044951755282,
,,,,,,,,,,,,,,,,3,9.1,10,10.9,0,0,0.9,0.35,0.55,2.35,10,initial,36.05,328,361,393,0,0,9,9,9,0,0,,,,,,,1,0,1,0,0,11,11,11,,,,,,,,,,,,,,3,0.7322123000049032,3,0.5,0.35000000000000003,12.61502,return,2.0300517000141554,,,,,,,,,,,,,,,,,p301,23,female,left_right_width,2025-11-11_12h37.09.721,exp1,2023.1.0,59.99044951755282,
,,,,,,,,,,,,,,,,3,7.8,10,12.2,0,0,2.2,1.65,0.55,4.95,10,match,36.05,281,361,440,0,0,9,9,9,0,0,,,,,,,1,0,1,0,0,12,12,35,,,,,,,,,,,,,,3,1.3821298000402749,3,0.2,0.35,12.61502,return,1.5012770999455824,,,,,,,,,,,,,,,,,p301,23,female,left_right_width,2025-11-11_12h37.09.721,exp1,2023.1.0,59.99044951755282,
,,,,,,,,,,,,,,,,3,9.1,10,10.9,0,0,0.9,0.65,0.25,2.05,10,initial,36.05,328,361,393,0,0,9,9,9,0,0,,,,,,,1,0,1,0,0,13,13,13,,,,,,,,,,,,,,3,1.0713121999870054,3,0.5,0.30000000000000004,10.81288,return,1.6024995999759994,,,,,,,,,,,,,,,,,p301,23,female,left_right_width,2025-11-11_12h37.09.721,exp1,2023.1.0,59.99044951755282,
,,,,,,,,,,,,,,,,5,8.35,9.175,10,10.825,11.65,0.8250000000000001,0.275,0.55,3.85,10,match,36.05,301,331,361,390,420,9,9,9,9,9,,,,,,,1,0,1,0,0,14,14,18,,,,,,,,,,,,,,5,1.3824361999868415,5,0.55,0.35000000000000003,12.61502,return,1.821930699981749,,,,,,,,,,,,,,,,,p301,23,female,left_right_width,2025-11-11_12h37.09.721,exp1,2023.1.0,59.99044951755282,
,,,,,,,,,,,,,,,,4,8.95,9.65,10.35,11.05,0,0.7,0.44999999999999996,0.25,2.3499999999999996,10,initial,36.05,323,348,373,398,0,9,9,9,9,0,,,,,,,1,0,1,0,0,15,15,24,,,,,,,,,,,,,,4,0.5785985999973491,4,0.4,0.25000000000000006,9.01073,return,1.242376999987755,,,,,,,,,,,,,,,,,p301,23,female,left_right_width,2025-11-11_12h37.09.721,exp1,2023.1.0,59.99044951755282,
,,,,,,,,,,,,,,,,3,9.1,10,10.9,0,0,0.9,0.5,0.4,2.2,10,initial,36.05,328,361,393,0,0,9,9,9,0,0,,,,,,,1,0,1,0,0,16,16,15,,,,,,,,,,,,,,3,1.0487032999517396,3,0.35,0.25,9.01073,return,1.070653599977959,,,,,,,,,,,,,,,,,p301,23,female,left_right_width,2025-11-11_12h37.09.721,exp1,2023.1.0,59.99044951755282,
,,,,,,,,,,,,,,,,3,9.3,10,10.7,0,0,0.7,0.29999999999999993,0.4,1.8,10,initial,36.05,335,361,386,0,0,9,9,9,0,0,,,,,,,1,0,1,0,0,17,17,9,,,,,,,,,,,,,,3,0.8205108999973163,3,0.35,0.3,10.81288,return,1.106394200003706,,,,,,,,,,,,,,,,,p301,23,female,left_right_width,2025-11-11_12h37.09.721,exp1,2023.1.0,59.99044951755282,
,,,,,,,,,,,,,,,,3,8.6,10,11.4,0,0,1.4,0.85,0.55,3.35,10,match,36.05,310,361,411,0,0,9,9,9,0,0,,,,,,,1,0,1,0,0,18,18,41,,,,,,,,,,,,,,3,0.8295601000427268,3,0.25,0.35,12.61502,return,1.2760480999713764,,,,,,,,,,,,,,,,,p301,23,female,left_right_width,2025-11-11_12h37.09.721,exp1,2023.1.0,59.99044951755282,
,,,,,,,,,,,,,,,,4,8.35,9.45,10.55,11.65,0,1.1,0.55,0.55,3.8500000000000005,10,initial,36.05,301,341,380,420,0,9,9,9,9,0,,,,,,,1,0,1,0,0,19,19,17,,,,,,,,,,,,,,4,0.8265905000152998,4,0.55,0.35000000000000003,12.61502,return,1.5456981000024825,,,,,,,,,,,,,,,,,p301,23,female,left_right_width,2025-11-11_12h37.09.721,exp1,2023.1.0,59.99044951755282,
,,,,,,,,,,,,,,,,3,8.525,10,11.475,0,0,1.475,1.225,0.25,3.2,10,match,36.05,307,361,414,0,0,9,9,9,0,0,,,,,,,1,0,1,0,0,20,20,45,,,,,,,,,,,,,,3,0.725541100022383,3,0.25,0.2,7.20859,return,1.3019547000294551,,,,,,,,,,,,,,,,,p301,23,female,left_right_width,2025-11-11_12h37.09.721,exp1,2023.1.0,59.99044951755282,
,,,,,,,,,,,,,,,,4,8.65,9.55,10.45,11.35,0,0.9,0.5,0.4,3.1,10,initial,36.05,312,344,377,409,0,9,9,9,9,0,,,,,,,1,0,1,0,0,21,21,32,,,,,,,,,,,,,,4,0.7080502000171691,4,0.45,0.25000000000000006,9.01073,return,1.525947600021027,,,,,,,,,,,,,,,,,p301,23,female,left_right_width,2025-11-11_12h37.09.721,exp1,2023.1.0,59.99044951755282,
,,,,,,,,,,,,,,,,5,8.2,9.1,10,10.9,11.8,0.9,0.5,0.4,4,10,initial,36.05,296,328,361,393,425,9,9,9,9,9,,,,,,,1,0,1,0,0,22,22,50,,,,,,,,,,,,,,4,1.6178691000095569,4,0.35,0.25,9.01073,return,1.4236971999634989,,,,,,,,,,,,,,,,,p301,23,female,left_right_width,2025-11-11_12h37.09.721,exp1,2023.1.0,59.99044951755282,
,,,,,,,,,,,,,,,,5,8.95,9.475,10,10.525,11.05,0.525,0.275,0.25,2.35,10,match,36.05,323,342,361,379,398,9,9,9,9,9,,,,,,,1,0,1,0,0,23,23,25,,,,,,,,,,,,,,4,1.3421775999595411,4,0.35,0.2,7.20859,return,1.5120901000336744,,,,,,,,,,,,,,,,,p301,23,female,left_right_width,2025-11-11_12h37.09.721,exp1,2023.1.0,59.99044951755282,
,,,,,,,,,,,,,,,,3,8.2,10,11.8,0,0,1.8,1.55,0.25,3.85,10,match,36.05,296,361,425,0,0,9,9,9,0,0,,,,,,,1,0,1,0,0,24,24,49,,,,,,,,,,,,,,3,0.7697343999752775,3,0.55,0.20000000000000007,7.20859,return,1.9854343000333756,,,,,,,,,,,,,,,,,p301,23,female,left_right_width,2025-11-11_12h37.09.721,exp1,2023.1.0,59.99044951755282,
,,,,,,,,,,,,,,,,4,9.1,9.7,10.3,10.9,0,0.6,0.04999999999999997,0.55,2.35,10,match,36.05,328,350,371,393,0,9,9,9,9,0,,,,,,,1,0,1,0,0,25,25,12,,,,,,,,,,,,,,4,1.9451251000282355,4,0.35,0.35,12.61502,return,2.234496399993077,,,,,,,,,,,,,,,,,p301,23,female,left_right_width,2025-11-11_12h37.09.721,exp1,2023.1.0,59.99044951755282,
,,,,,,,,,,,,,,,,3,8.6,10,11.4,0,0,1.4,1.15,0.25,3.05,10,match,36.05,310,361,411,0,0,9,9,9,0,0,,,,,,,1,0,1,0,0,26,26,43,,,,,,,,,,,,,,3,1.022879299998749,3,0.35,0.2,7.20859,return,1.236400900001172,,,,,,,,,,,,,,,,,p301,23,female,left_right_width,2025-11-11_12h37.09.721,exp1,2023.1.0,59.99044951755282,
,,,,,,,,,,,,,,,,4,9.1,9.7,10.3,10.9,0,0.5999999999999999,0.3499999999999999,0.25,2.05,10,match,36.05,328,350,371,393,0,9,9,9,9,0,,,,,,,1,0,1,0,0,27,27,14,,,,,,,,,,,,,,4,0.8517732000327669,4,0.35,0.2,7.20859,return,1.2652986999601126,,,,,,,,,,,,,,,,,p301,23,female,left_right_width,2025-11-11_12h37.09.721,exp1,2023.1.0,59.99044951755282,
,,,,,,,,,,,,,,,,3,9.3,10,10.7,0,0,0.7,0.44999999999999996,0.25,1.65,10,initial,36.05,335,361,386,0,0,9,9,9,0,0,,,,,,,1,0,1,0,0,28,28,7,,,,,,,,,,,,,,3,0.8178033000440337,3,0.3,0.15000000000000002,5.40644,return,1.534768899960909,,,,,,,,,,,,,,,,,p301,23,female,left_right_width,2025-11-11_12h37.09.721,exp1,2023.1.0,59.99044951755282,
,,,,,,,,,,,,,,,,4,8.825,9.608333333333333,10.391666666666667,11.175,0,0.7833333333333333,0.5333333333333333,0.25,2.6,10,match,36.05,318,346,375,403,0,9,9,9,9,0,,,,,,,1,0,1,0,0,29,29,5,,,,,,,,,,,,,,4,0.8579828999936581,4,0.2,0.15000000000000002,5.40644,return,0.9982049000100233,,,,,,,,,,,,,,,,,p301,23,female,left_right_width,2025-11-11_12h37.09.721,exp1,2023.1.0,59.99044951755282,
,,,,,,,,,,,,,,,,5,8.95,9.475,10,10.525,11.05,0.525,0.125,0.4,2.5,10,match,36.05,323,342,361,379,398,9,9,9,9,9,,,,,,,1,0,1,0,0,30,30,27,,,,,,,,,,,,,,4,0.7042940999963321,4,0.4,0.25000000000000006,9.01073,return,1.5857926000026055,,,,,,,,,,,,,,,,,p301,23,female,left_right_width,2025-11-11_12h37.09.721,exp1,2023.1.0,59.99044951755282,
,,,,,,,,,,,,,,,,4,8.9,9.633333333333333,10.366666666666667,11.1,0,0.7333333333333333,0.18333333333333326,0.55,2.75,10,match,36.05,321,347,374,400,0,9,9,9,9,0,,,,,,,1,0,1,0,0,31,31,1,,,,,,,,,,,,,,3,1.754434400005266,3,0.35,0.3,10.81288,return,1.0117964000091888,,,,,,,,,,,,,,,,,p301,23,female,left_right_width,2025-11-11_12h37.09.721,exp1,2023.1.0,59.99044951755282,
,,,,,,,,,,,,,,,,4,8.95,9.65,10.35,11.05,0,0.7,0.1499999999999999,0.55,2.65,10,initial,36.05,323,348,373,398,0,9,9,9,9,0,,,,,,,1,0,1,0,0,32,32,23,,,,,,,,,,,,,,4,0.9625318999751471,4,0.55,0.35000000000000003,12.61502,return,1.338752600015141,,,,,,,,,,,,,,,,,p301,23,female,left_right_width,2025-11-11_12h37.09.721,exp1,2023.1.0,59.99044951755282,
,,,,,,,,,,,,,,,,3,7.8,10,12.2,0,0,2.2,1.9500000000000002,0.25,4.65,10,match,36.05,281,361,440,0,0,9,9,9,0,0,,,,,,,1,0,1,0,0,33,33,37,,,,,,,,,,,,,,3,0.5840953000006266,3,0.4,0.20000000000000007,7.20859,return,1.392444199998863,,,,,,,,,,,,,,,,,p301,23,female,left_right_width,2025-11-11_12h37.09.721,exp1,2023.1.0,59.99044951755282,
,,,,,,,,,,,,,,,,4,8.65,9.55,10.45,11.35,0,0.9,0.35,0.55,3.25,10,initial,36.05,312,344,377,409,0,9,9,9,9,0,,,,,,,1,0,1,0,0,34,34,28,,,,,,,,,,,,,,4,0.6873763999901712,4,0.35,0.3,10.81288,return,1.073865000042133,,,,,,,,,,,,,,,,,p301,23,female,left_right_width,2025-11-11_12h37.09.721,exp1,2023.1.0,59.99044951755282,
,,,,,,,,,,,,,,,,3,8.9,10,11.1,0,0,1.1,0.7000000000000001,0.4,2.6000000000000005,10,initial,36.05,321,361,400,0,0,9,9,9,0,0,,,,,,,1,0,1,0,0,35,35,4,,,,,,,,,,,,,,3,1.1951797000365332,3,0.55,0.30000000000000004,10.81288,return,2.0425176999997348,,,,,,,,,,,,,,,,,p301,23,female,left_right_width,2025-11-11_12h37.09.721,exp1,2023.1.0,59.99044951755282,
,,,,,,,,,,,,,,,,3,8.9,10,11.1,0,0,1.1,0.8500000000000001,0.25,2.45,10,initial,36.05,321,361,400,0,0,9,9,9,0,0,,,,,,,1,0,1,0,0,36,36,2,,,,,,,,,,,,,,2,0.7854458999936469,2,0.45,0.20000000000000007,7.20859,return,3.6160393999889493,,,,,,,,,,,,,,,,,p301,23,female,left_right_width,2025-11-11_12h37.09.721,exp1,2023.1.0,59.99044951755282,
,,,,,,,,,,,,,,,,4,8.95,9.65,10.35,11.05,0,0.7,0.29999999999999993,0.4,2.5,10,initial,36.05,323,348,373,398,0,9,9,9,9,0,,,,,,,1,0,1,0,0,37,37,26,,,,,,,,,,,,,,4,1.011791400029324,4,0.25,0.25,9.01073,return,3.753553299990017,,,,,,,,,,,,,,,,,p301,23,female,left_right_width,2025-11-11_12h37.09.721,exp1,2023.1.0,59.99044951755282,
,,,,,,,,,,,,,,,,5,8.6,9.3,10,10.7,11.4,0.7,0.1499999999999999,0.55,3.3499999999999996,10,initial,36.05,310,335,361,386,411,9,9,9,9,9,,,,,,,1,0,1,0,0,38,38,40,,,,,,,,,,,,,,4,0.9456476999912411,4,0.45,0.35000000000000003,12.61502,return,3.3379836000385694,,,,,,,,,,,,,,,,,p301,23,female,left_right_width,2025-11-11_12h37.09.721,exp1,2023.1.0,59.99044951755282,
,,,,,,,,,,,,,,,,4,9.1,9.7,10.3,10.9,0,0.6000000000000001,0.20000000000000004,0.4,2.2,10,match,36.05,328,350,371,393,0,9,9,9,9,0,,,,,,,1,0,1,0,0,39,39,16,,,,,,,,,,,,,,4,1.7258438999997452,4,0.55,0.30000000000000004,10.81288,return,3.55909850000171,,,,,,,,,,,,,,,,,p301,23,female,left_right_width,2025-11-11_12h37.09.721,exp1,2023.1.0,59.99044951755282,
,,,,,,,,,,,,,,,,5,8.275,9.1375,10,10.8625,11.725,0.8625,0.6125,0.25,3.7,10,match,36.05,298,329,361,392,423,9,9,9,9,9,,,,,,,1,0,1,0,0,40,40,22,,,,,,,,,,,,,,4,0.9913000999949872,4,0.25,0.10000000000000002,3.60429,return,1.9754394999472424,,,,,,,,,,,,,,,,,p301,23,female,left_right_width,2025-11-11_12h37.09.721,exp1,2023.1.0,59.99044951755282,
,,,,,,,,,,,,,,,,4,9.3,9.766666666666667,10.233333333333333,10.7,0,0.4666666666666667,0.21666666666666665,0.25,1.65,10,match,36.05,335,352,369,386,0,9,9,9,9,0,,,,,,,1,0,1,0,0,41,41,8,,,,,,,,,,,,,,4,0.6516237999894656,4,0.35,0.15000000000000002,5.40644,return,1.520255100040231,,,,,,,,,,,,,,,,,p301,23,female,left_right_width,2025-11-11_12h37.09.721,exp1,2023.1.0,59.99044951755282,
,,,,,,,,,,,,,,,,5,8.2,9.1,10,10.9,11.8,0.9,0.35,0.55,4.15,10,initial,36.05,296,328,361,393,425,9,9,9,9,9,,,,,,,1,0,1,0,0,42,42,46,,,,,,,,,,,,,,5,0.8692725999862887,5,0.35,0.3,10.81288,return,1.3457243000157177,,,,,,,,,,,,,,,,,p301,23,female,left_right_width,2025-11-11_12h37.09.721,exp1,2023.1.0,59.99044951755282,
,,,,,,,,,,,,,,,,4,9.3,9.766666666666667,10.233333333333333,10.7,0,0.4666666666666667,0.06666666666666665,0.4,1.8,10,match,36.05,335,352,369,386,0,9,9,9,9,0,,,,,,,1,0,1,0,0,43,43,10,,,,,,,,,,,,,,3,1.2738994999672286,3,0.35,0.3,10.81288,return,1.1736594999674708,,,,,,,,,,,,,,,,,p301,23,female,left_right_width,2025-11-11_12h37.09.721,exp1,2023.1.0,59.99044951755282,
,,,,,,,,,,,,,,,,4,8.35,9.45,10.55,11.65,0,1.1,0.7000000000000001,0.4,3.7,10,initial,36.05,301,341,380,420,0,9,9,9,9,0,,,,,,,1,0,1,0,0,44,44,21,,,,,,,,,,,,,,4,1.1277558999718167,4,0.25,0.3,10.81288,return,1.4816977000446059,,,,,,,,,,,,,,,,,p301,23,female,left_right_width,2025-11-11_12h37.09.721,exp1,2023.1.0,59.99044951755282,
,,,,,,,,,,,,,,,,3,7.800000000000001,10,12.2,0,0,2.1999999999999997,1.7999999999999998,0.4,4.8,10,match,36.05,281,361,440,0,0,9,9,9,0,0,,,,,,,1,0,1,0,0,45,45,39,,,,,,,,,,,,,,3,0.6714702000026591,3,0.2,0.25,9.01073,return,1.6674250000505708,,,,,,,,,,,,,,,,,p301,23,female,left_right_width,2025-11-11_12h37.09.721,exp1,2023.1.0,59.99044951755282,
,,,,,,,,,,,,,,,,4,8.65,9.55,10.45,11.35,0,0.9,0.65,0.25,2.95,10,initial,36.05,312,344,377,409,0,9,9,9,9,0,,,,,,,1,0,1,0,0,46,46,30,,,,,,,,,,,,,,3,0.6960271000280045,3,0.4,0.20000000000000007,7.20859,return,1.7081521999789402,,,,,,,,,,,,,,,,,p301,23,female,left_right_width,2025-11-11_12h37.09.721,exp1,2023.1.0,59.99044951755282,
,,,,,,,,,,,,,,,,5,8.65,9.325,10,10.675,11.35,0.675,0.125,0.55,3.25,10,match,36.05,312,336,361,385,409,9,9,9,9,9,,,,,,,1,0,1,0,0,47,47,29,,,,,,,,,,,,,,4,0.8160526999854483,4,0.5,0.30000000000000004,10.81288,return,1.8864548000274226,,,,,,,,,,,,,,,,,p301,23,female,left_right_width,2025-11-11_12h37.09.721,exp1,2023.1.0,59.99044951755282,
,,,,,,,,,,,,,,,,3,8.2,10,11.8,0,0,1.8,1.25,0.55,4.15,10,match,36.05,296,361,425,0,0,9,9,9,0,0,,,,,,,1,0,1,0,0,48,48,47,,,,,,,,,,,,,,3,0.6926020000246353,3,0.4,0.35000000000000003,12.61502,return,1.4162830999703147,,,,,,,,,,,,,,,,,p301,23,female,left_right_width,2025-11-11_12h37.09.721,exp1,2023.1.0,59.99044951755282,
,,,,,,,,,,,,,,,,3,9.3,10,10.7,0,0,0.7,0.1499999999999999,0.55,1.95,10,initial,36.05,335,361,386,0,0,9,9,9,0,0,,,,,,,1,0,1,0,0,49,49,6,,,,,,,,,,,,,,3,0.9494874000083655,3,0.25,0.35,12.61502,return,2.6079368999926373,,,,,,,,,,,,,,,,,p301,23,female,left_right_width,2025-11-11_12h37.09.721,exp1,2023.1.0,59.99044951755282,
,,,,,,,,,,,,,,,,5,7.8,8.9,10,11.1,12.2,1.1,0.7000000000000001,0.4,4.800000000000001,10,initial,36.05,281,321,361,400,440,9,9,9,9,9,,,,,,,1,0,1,0,0,50,50,38,,,,,,,,,,,,,,5,1.7918481000233442,5,0.35,0.3,10.81288,return,2.16781880002236,,,,,,,,,,,,,,,,,p301,23,female,left_right_width,2025-11-11_12h37.09.721,exp1,2023.1.0,59.99044951755282,
,,,,,,,,,,,,,,,,5,7.8,8.9,10,11.1,12.2,1.1,0.8500000000000001,0.25,4.65,10,initial,36.05,281,321,361,400,440,9,9,9,9,9,,,,,,,1,0,1,0,0,51,51,36,,,,,,,,,,,,,,4,0.9777744000311941,4,0.4,0.15000000000000008,5.40644,return,1.9134263000451028,,,,,,,,,,,,,,,,,p301,23,female,left_right_width,2025-11-11_12h37.09.721,exp1,2023.1.0,59.99044951755282,
,,,,,,,,,,,,,,,,,,,,,,,,,,,,,,,,,,,,,,,,,,,,,1,0,1,0,,,,,,,,,,,,,,,,,,,,,,,,,,,,1140.9593569000135,1140.9593569000135,1140.9593569000135,,,,,,,,,,,,p301,23,female,left_right_width,2025-11-11_12h37.09.721,exp1,2023.1.0,59.99044951755282,
,,,,,,,,,,,,,,,,3,7.8,10,12.2,0,0,2.2,1.9500000000000002,0.25,4.65,10,match,36.05,281,361,440,0,0,9,9,9,0,0,,,,,,,2,0,2,0,0,0,0,37,,,,,,,,,,,,,,3,0.7115434000152163,3,0.2,0.15000000000000002,5.40644,return,1.1785359000205062,,,,,,,,,,,,,,,,,p301,23,female,left_right_width,2025-11-11_12h37.09.721,exp1,2023.1.0,59.99044951755282,
,,,,,,,,,,,,,,,,5,8.65,9.325,10,10.675,11.35,0.675,0.125,0.55,3.25,10,match,36.05,312,336,361,385,409,9,9,9,9,9,,,,,,,2,0,2,0,0,1,1,29,,,,,,,,,,,,,,4,1.032640099991113,4,0.2,0.3,10.81288,return,1.3105103999841958,,,,,,,,,,,,,,,,,p301,23,female,left_right_width,2025-11-11_12h37.09.721,exp1,2023.1.0,59.99044951755282,
,,,,,,,,,,,,,,,,5,8.65,9.325,10,10.675,11.35,0.675,0.275,0.4,3.1,10,match,36.05,312,336,361,385,409,9,9,9,9,9,,,,,,,2,0,2,0,0,2,2,33,,,,,,,,,,,,,,4,0.6947552000056021,4,0.5,0.25000000000000006,9.01073,return,2.4744301000027917,,,,,,,,,,,,,,,,,p301,23,female,left_right_width,2025-11-11_12h37.09.721,exp1,2023.1.0,59.99044951755282,
,,,,,,,,,,,,,,,,4,8.9,9.633333333333333,10.366666666666667,11.1,0,0.7333333333333333,0.18333333333333326,0.55,2.75,10,match,36.05,321,347,374,400,0,9,9,9,9,0,,,,,,,2,0,2,0,0,3,3,1,,,,,,,,,,,,,,4,0.6383579999674112,4,0.2,0.35,12.61502,return,1.2189789999974892,,,,,,,,,,,,,,,,,p301,23,female,left_right_width,2025-11-11_12h37.09.721,exp1,2023.1.0,59.99044951755282,
,,,,,,,,,,,,,,,,5,8.95,9.475,10,10.525,11.05,0.525,0.275,0.25,2.35,10,match,36.05,323,342,361,379,398,9,9,9,9,9,,,,,,,2,0,2,0,0,4,4,25,,,,,,,,,,,,,,4,1.8072797000058927,4,0.25,0.15000000000000002,5.40644,return,0.9820019999751821,,,,,,,,,,,,,,,,,p301,23,female,left_right_width,2025-11-11_12h37.09.721,exp1,2023.1.0,59.99044951755282,
,,,,,,,,,,,,,,,,3,8.9,10,11.1,0,0,1.1,0.8500000000000001,0.25,2.45,10,initial,36.05,321,361,400,0,0,9,9,9,0,0,,,,,,,2,0,2,0,0,5,5,2,,,,,,,,,,,,,,3,0.6881838000263087,3,0.2,0.15000000000000002,5.40644,return,1.2676301999599673,,,,,,,,,,,,,,,,,p301,23,female,left_right_width,2025-11-11_12h37.09.721,exp1,2023.1.0,59.99044951755282,
,,,,,,,,,,,,,,,,5,8.6,9.3,10,10.7,11.4,0.7,0.1499999999999999,0.55,3.3499999999999996,10,initial,36.05,310,335,361,386,411,9,9,9,9,9,,,,,,,2,0,2,0,0,6,6,40,,,,,,,,,,,,,,4,0.6640133000328206,4,0.2,0.25,9.01073,return,0.9882310000248253,,,,,,,,,,,,,,,,,p301,23,female,left_right_width,2025-11-11_12h37.09.721,exp1,2023.1.0,59.99044951755282,
,,,,,,,,,,,,,,,,3,9.3,10,10.7,0,0,0.7,0.44999999999999996,0.25,1.65,10,initial,36.05,335,361,386,0,0,9,9,9,0,0,,,,,,,2,0,2,0,0,7,7,7,,,,,,,,,,,,,,3,0.5081871000002138,3,0.25,0.15000000000000002,5.40644,return,0.9344262999948114,,,,,,,,,,,,,,,,,p301,23,female,left_right_width,2025-11-11_12h37.09.721,exp1,2023.1.0,59.99044951755282,
,,,,,,,,,,,,,,,,4,8.65,9.55,10.45,11.35,0,0.9,0.5,0.4,3.1,10,initial,36.05,312,344,377,409,0,9,9,9,9,0,,,,,,,2,0,2,0,0,8,8,32,,,,,,,,,,,,,,3,1.4709497999865562,3,0.55,0.25000000000000006,9.01073,return,2.0828412999981083,,,,,,,,,,,,,,,,,p301,23,female,left_right_width,2025-11-11_12h37.09.721,exp1,2023.1.0,59.99044951755282,
,,,,,,,,,,,,,,,,5,7.8,8.9,10,11.1,12.2,1.1,0.7000000000000001,0.4,4.800000000000001,10,initial,36.05,281,321,361,400,440,9,9,9,9,9,,,,,,,2,0,2,0,0,9,9,38,,,,,,,,,,,,,,4,0.732286499987822,4,0.55,0.25000000000000006,9.01073,return,1.999312900006771,,,,,,,,,,,,,,,,,p301,23,female,left_right_width,2025-11-11_12h37.09.721,exp1,2023.1.0,59.99044951755282,
,,,,,,,,,,,,,,,,5,8.95,9.475,10,10.525,11.05,0.525,0.125,0.4,2.5,10,match,36.05,323,342,361,379,398,9,9,9,9,9,,,,,,,2,0,2,0,0,10,10,27,,,,,,,,,,,,,,4,0.7745757999946363,4,0.2,0.25,9.01073,return,2.1177869999664836,,,,,,,,,,,,,,,,,p301,23,female,left_right_width,2025-11-11_12h37.09.721,exp1,2023.1.0,59.99044951755282,
,,,,,,,,,,,,,,,,3,9.1,10,10.9,0,0,0.9,0.65,0.25,2.05,10,initial,36.05,328,361,393,0,0,9,9,9,0,0,,,,,,,2,0,2,0,0,11,11,13,,,,,,,,,,,,,,3,0.521538800036069,3,0.3,0.2,7.20859,return,0.9624771000235341,,,,,,,,,,,,,,,,,p301,23,female,left_right_width,2025-11-11_12h37.09.721,exp1,2023.1.0,59.99044951755282,
,,,,,,,,,,,,,,,,4,8.65,9.55,10.45,11.35,0,0.9,0.35,0.55,3.25,10,initial,36.05,312,344,377,409,0,9,9,9,9,0,,,,,,,2,0,2,0,0,12,12,28,,,,,,,,,,,,,,3,0.643439200008288,3,0.55,0.30000000000000004,10.81288,return,2.9696652999846265,,,,,,,,,,,,,,,,,p301,23,female,left_right_width,2025-11-11_12h37.09.721,exp1,2023.1.0,59.99044951755282,
,,,,,,,,,,,,,,,,5,7.8,8.9,10,11.1,12.2,1.1,0.8500000000000001,0.25,4.65,10,initial,36.05,281,321,361,400,440,9,9,9,9,9,,,,,,,2,0,2,0,0,13,13,36,,,,,,,,,,,,,,4,0.734738799976185,4,0.4,0.20000000000000007,7.20859,return,1.3120912999729626,,,,,,,,,,,,,,,,,p301,23,female,left_right_width,2025-11-11_12h37.09.721,exp1,2023.1.0,59.99044951755282,
,,,,,,,,,,,,,,,,5,8.65,9.325,10,10.675,11.35,0.675,0.42500000000000004,0.25,2.95,10,match,36.05,312,336,361,385,409,9,9,9,9,9,,,,,,,2,0,2,0,0,14,14,31,,,,,,,,,,,,,,3,1.9247332999948412,3,0.45,0.20000000000000007,7.20859,return,2.02276050002547,,,,,,,,,,,,,,,,,p301,23,female,left_right_width,2025-11-11_12h37.09.721,exp1,2023.1.0,59.99044951755282,
,,,,,,,,,,,,,,,,4,8.35,9.45,10.55,11.65,0,1.1,0.7000000000000001,0.4,3.7,10,initial,36.05,301,341,380,420,0,9,9,9,9,0,,,,,,,2,0,2,0,0,15,15,21,,,,,,,,,,,,,,4,0.9574739000527188,4,0.35,0.25,9.01073,return,1.0301547999843024,,,,,,,,,,,,,,,,,p301,23,female,left_right_width,2025-11-11_12h37.09.721,exp1,2023.1.0,59.99044951755282,
,,,,,,,,,,,,,,,,4,8.825,9.608333333333333,10.391666666666667,11.175,0,0.7833333333333333,0.5333333333333333,0.25,2.6,10,match,36.05,318,346,375,403,0,9,9,9,9,0,,,,,,,2,0,2,0,0,16,16,5,,,,,,,,,,,,,,3,0.5857933000079356,3,0.2,0.15000000000000002,5.40644,return,1.2496541000436991,,,,,,,,,,,,,,,,,p301,23,female,left_right_width,2025-11-11_12h37.09.721,exp1,2023.1.0,59.99044951755282,
,,,,,,,,,,,,,,,,3,9.1,10,10.9,0,0,0.9,0.35,0.55,2.35,10,initial,36.05,328,361,393,0,0,9,9,9,0,0,,,,,,,2,0,2,0,0,17,17,11,,,,,,,,,,,,,,3,0.7198529999586754,3,0.25,0.3,10.81288,return,1.2177512999624014,,,,,,,,,,,,,,,,,p301,23,female,left_right_width,2025-11-11_12h37.09.721,exp1,2023.1.0,59.99044951755282,
,,,,,,,,,,,,,,,,5,8.6,9.3,10,10.7,11.4,0.7,0.29999999999999993,0.4,3.1999999999999997,10,initial,36.05,310,335,361,386,411,9,9,9,9,9,,,,,,,2,0,2,0,0,18,18,44,,,,,,,,,,,,,,4,0.6660382999689318,4,0.3,0.25,9.01073,return,1.0239989999681711,,,,,,,,,,,,,,,,,p301,23,female,left_right_width,2025-11-11_12h37.09.721,exp1,2023.1.0,59.99044951755282,
,,,,,,,,,,,,,,,,4,9.3,9.766666666666667,10.233333333333333,10.7,0,0.4666666666666667,0.06666666666666665,0.4,1.8,10,match,36.05,335,352,369,386,0,9,9,9,9,0,,,,,,,2,0,2,0,0,19,19,10,,,,,,,,,,,,,,4,0.6982274000183679,4,0.2,0.2,7.20859,return,1.2450894000357948,,,,,,,,,,,,,,,,,p301,23,female,left_right_width,2025-11-11_12h37.09.721,exp1,2023.1.0,59.99044951755282,
,,,,,,,,,,,,,,,,3,8.6,10,11.4,0,0,1.4,1.15,0.25,3.05,10,match,36.05,310,361,411,0,0,9,9,9,0,0,,,,,,,2,0,2,0,0,20,20,43,,,,,,,,,,,,,,3,0.5161797000328079,3,0.45,0.20000000000000007,7.20859,return,1.5824377000099048,,,,,,,,,,,,,,,,,p301,23,female,left_right_width,2025-11-11_12h37.09.721,exp1,2023.1.0,59.99044951755282,
,,,,,,,,,,,,,,,,5,7.8,8.9,10,11.1,12.2,1.1,0.55,0.55,4.95,10,initial,36.05,281,321,361,400,440,9,9,9,9,9,,,,,,,2,0,2,0,0,21,21,34,,,,,,,,,,,,,,4,0.6091622000094503,4,0.2,0.3,10.81288,return,1.1750637000077404,,,,,,,,,,,,,,,,,p301,23,female,left_right_width,2025-11-11_12h37.09.721,exp1,2023.1.0,59.99044951755282,
,,,,,,,,,,,,,,,,4,8.35,9.45,10.55,11.65,0,1.1,0.55,0.55,3.8500000000000005,10,initial,36.05,301,341,380,420,0,9,9,9,9,0,,,,,,,2,0,2,0,0,22,22,17,,,,,,,,,,,,,,3,1.9092455999925733,3,0.55,0.35000000000000003,12.61502,return,2.3761217999854125,,,,,,,,,,,,,,,,,p301,23,female,left_right_width,2025-11-11_12h37.09.721,exp1,2023.1.0,59.99044951755282,
,,,,,,,,,,,,,,,,3,9.1,10,10.9,0,0,0.9,0.5,0.4,2.2,10,initial,36.05,328,361,393,0,0,9,9,9,0,0,,,,,,,2,0,2,0,0,23,23,15,,,,,,,,,,,,,,3,0.5701939000282437,3,0.35,0.3,10.81288,return,1.53832729998976,,,,,,,,,,,,,,,,,p301,23,female,left_right_width,2025-11-11_12h37.09.721,exp1,2023.1.0,59.99044951755282,
,,,,,,,,,,,,,,,,3,8.6,10,11.4,0,0,1.4,0.85,0.55,3.35,10,match,36.05,310,361,411,0,0,9,9,9,0,0,,,,,,,2,0,2,0,0,24,24,41,,,,,,,,,,,,,,3,0.5495381999644451,3,0.55,0.45,16.21932,return,1.0392895999830216,,,,,,,,,,,,,,,,,p301,23,female,left_right_width,2025-11-11_12h37.09.721,exp1,2023.1.0,59.99044951755282,
,,,,,,,,,,,,,,,,4,9.3,9.766666666666667,10.233333333333333,10.7,0,0.4666666666666667,0.21666666666666665,0.25,1.65,10,match,36.05,335,352,369,386,0,9,9,9,9,0,,,,,,,2,0,2,0,0,25,25,8,,,,,,,,,,,,,,4,1.2386479999986477,4,0.55,0.20000000000000007,7.20859,return,2.003025600046385,,,,,,,,,,,,,,,,,p301,23,female,left_right_width,2025-11-11_12h37.09.721,exp1,2023.1.0,59.99044951755282,
,,,,,,,,,,,,,,,,5,8.2,9.1,10,10.9,11.8,0.9,0.35,0.55,4.15,10,initial,36.05,296,328,361,393,425,9,9,9,9,9,,,,,,,2,0,2,0,0,26,26,46,,,,,,,,,,,,,,4,0.6405306999804452,4,0.5,0.30000000000000004,10.81288,return,1.478198800003156,,,,,,,,,,,,,,,,,p301,23,female,left_right_width,2025-11-11_12h37.09.721,exp1,2023.1.0,59.99044951755282,
,,,,,,,,,,,,,,,,5,8.6,9.3,10,10.7,11.4,0.7,0.44999999999999996,0.25,3.05,10,initial,36.05,310,335,361,386,411,9,9,9,9,9,,,,,,,2,0,2,0,0,27,27,42,,,,,,,,,,,,,,4,0.6033462000195868,4,0.5,0.20000000000000007,7.20859,return,2.130239700025413,,,,,,,,,,,,,,,,,p301,23,female,left_right_width,2025-11-11_12h37.09.721,exp1,2023.1.0,59.99044951755282,
,,,,,,,,,,,,,,,,3,9.3,10,10.7,0,0,0.7,0.29999999999999993,0.4,1.8,10,initial,36.05,335,361,386,0,0,9,9,9,0,0,,,,,,,2,0,2,0,0,28,28,9,,,,,,,,,,,,,,2,1.3360251000267453,2,0.2,0.3,10.81288,return,1.9679035000153817,,,,,,,,,,,,,,,,,p301,23,female,left_right_width,2025-11-11_12h37.09.721,exp1,2023.1.0,59.99044951755282,
,,,,,,,,,,,,,,,,5,8.35,9.175,10,10.825,11.65,0.825,0.575,0.25,3.55,10,match,36.05,301,331,361,390,420,9,9,9,9,9,,,,,,,2,0,2,0,0,29,29,20,,,,,,,,,,,,,,4,0.8879214000189677,4,0.55,0.25000000000000006,9.01073,return,3.9220312000252306,,,,,,,,,,,,,,,,,p301,23,female,left_right_width,2025-11-11_12h37.09.721,exp1,2023.1.0,59.99044951755282,
,,,,,,,,,,,,,,,,3,7.8,10,12.2,0,0,2.2,1.65,0.55,4.95,10,match,36.05,281,361,440,0,0,9,9,9,0,0,,,,,,,2,0,2,0,0,30,30,35,,,,,,,,,,,,,,3,0.7448767000460066,3,0.35,0.3,10.81288,return,2.362550600024406,,,,,,,,,,,,,,,,,p301,23,female,left_right_width,2025-11-11_12h37.09.721,exp1,2023.1.0,59.99044951755282,
,,,,,,,,,,,,,,,,4,8.65,9.55,10.45,11.35,0,0.9,0.65,0.25,2.95,10,initial,36.05,312,344,377,409,0,9,9,9,9,0,,,,,,,2,0,2,0,0,31,31,30,,,,,,,,,,,,,,4,1.0860876999795437,4,0.3,0.2,7.20859,return,1.1695660999976099,,,,,,,,,,,,,,,,,p301,23,female,left_right_width,2025-11-11_12h37.09.721,exp1,2023.1.0,59.99044951755282,
,,,,,,,,,,,,,,,,5,8.275,9.1375,10,10.8625,11.725,0.8625,0.6125,0.25,3.7,10,match,36.05,298,329,361,392,423,9,9,9,9,9,,,,,,,2,0,2,0,0,32,32,22,,,,,,,,,,,,,,4,0.9272724000038579,4,0.3,0.2,7.20859,return,1.017799599969294,,,,,,,,,,,,,,,,,p301,23,female,left_right_width,2025-11-11_12h37.09.721,exp1,2023.1.0,59.99044951755282,
,,,,,,,,,,,,,,,,3,8.525,10,11.475,0,0,1.475,1.225,0.25,3.2,10,match,36.05,307,361,414,0,0,9,9,9,0,0,,,,,,,2,0,2,0,0,33,33,45,,,,,,,,,,,,,,3,0.6511125999968499,3,0.45,0.20000000000000007,7.20859,return,1.8883864000090398,,,,,,,,,,,,,,,,,p301,23,female,left_right_width,2025-11-11_12h37.09.721,exp1,2023.1.0,59.99044951755282,
,,,,,,,,,,,,,,,,5,8.2,9.1,10,10.9,11.8,0.9,0.65,0.25,3.85,10,initial,36.05,296,328,361,393,425,9,9,9,9,9,,,,,,,2,0,2,0,0,34,34,48,,,,,,,,,,,,,,4,1.1740257000201382,4,0.45,0.15000000000000008,5.40644,return,1.7993418999831192,,,,,,,,,,,,,,,,,p301,23,female,left_right_width,2025-11-11_12h37.09.721,exp1,2023.1.0,59.99044951755282,
,,,,,,,,,,,,,,,,3,8.2,10,11.8,0,0,1.8,1.25,0.55,4.15,10,match,36.05,296,361,425,0,0,9,9,9,0,0,,,,,,,2,0,2,0,0,35,35,47,,,,,,,,,,,,,,3,0.6085404999903403,3,0.35,0.39999999999999997,14.41717,return,1.191563300031703,,,,,,,,,,,,,,,,,p301,23,female,left_right_width,2025-11-11_12h37.09.721,exp1,2023.1.0,59.99044951755282,
,,,,,,,,,,,,,,,,4,9.1,9.7,10.3,10.9,0,0.5999999999999999,0.3499999999999999,0.25,2.05,10,match,36.05,328,350,371,393,0,9,9,9,9,0,,,,,,,2,0,2,0,0,36,36,14,,,,,,,,,,,,,,3,1.3327832999639213,3,0.4,0.20000000000000007,7.20859,return,1.4543501999578439,,,,,,,,,,,,,,,,,p301,23,female,left_right_width,2025-11-11_12h37.09.721,exp1,2023.1.0,59.99044951755282,
,,,,,,,,,,,,,,,,4,8.95,9.65,10.35,11.05,0,0.7,0.29999999999999993,0.4,2.5,10,initial,36.05,323,348,373,398,0,9,9,9,9,0,,,,,,,2,0,2,0,0,37,37,26,,,,,,,,,,,,,,3,0.7529050000011921,3,0.5,0.30000000000000004,10.81288,return,1.7137909999582916,,,,,,,,,,,,,,,,,p301,23,female,left_right_width,2025-11-11_12h37.09.721,exp1,2023.1.0,59.99044951755282,
,,,,,,,,,,,,,,,,4,9.1,9.7,10.3,10.9,0,0.6000000000000001,0.20000000000000004,0.4,2.2,10,match,36.05,328,350,371,393,0,9,9,9,9,0,,,,,,,2,0,2,0,0,38,38,16,,,,,,,,,,,,,,4,1.1184866999974474,4,0.2,0.25,9.01073,return,1.4245182000449859,,,,,,,,,,,,,,,,,p301,23,female,left_right_width,2025-11-11_12h37.09.721,exp1,2023.1.0,59.99044951755282,
,,,,,,,,,,,,,,,,4,8.95,9.65,10.35,11.05,0,0.7,0.44999999999999996,0.25,2.3499999999999996,10,initial,36.05,323,348,373,398,0,9,9,9,9,0,,,,,,,2,0,2,0,0,39,39,24,,,,,,,,,,,,,,4,0.7786310000228696,4,0.5,0.25000000000000006,9.01073,return,2.153637700015679,,,,,,,,,,,,,,,,,p301,23,female,left_right_width,2025-11-11_12h37.09.721,exp1,2023.1.0,59.99044951755282,
,,,,,,,,,,,,,,,,5,8.35,9.175,10,10.825,11.65,0.8250000000000001,0.275,0.55,3.85,10,match,36.05,301,331,361,390,420,9,9,9,9,9,,,,,,,2,0,2,0,0,40,40,18,,,,,,,,,,,,,,4,0.7252607999835163,4,0.25,0.35,12.61502,return,1.6701010999968275,,,,,,,,,,,,,,,,,p301,23,female,left_right_width,2025-11-11_12h37.09.721,exp1,2023.1.0,59.99044951755282,
,,,,,,,,,,,,,,,,3,9.3,10,10.7,0,0,0.7,0.1499999999999999,0.55,1.95,10,initial,36.05,335,361,386,0,0,9,9,9,0,0,,,,,,,2,0,2,0,0,41,41,6,,,,,,,,,,,,,,3,0.5339744000229985,3,0.35,0.35,12.61502,return,1.1206616999697872,,,,,,,,,,,,,,,,,p301,23,female,left_right_width,2025-11-11_12h37.09.721,exp1,2023.1.0,59.99044951755282,
,,,,,,,,,,,,,,,,3,8.2,10,11.8,0,0,1.8,1.55,0.25,3.85,10,match,36.05,296,361,425,0,0,9,9,9,0,0,,,,,,,2,0,2,0,0,42,42,49,,,,,,,,,,,,,,3,0.6012843999778852,3,0.3,0.2,7.20859,return,1.1200410000164993,,,,,,,,,,,,,,,,,p301,23,female,left_right_width,2025-11-11_12h37.09.721,exp1,2023.1.0,59.99044951755282,
,,,,,,,,,,,,,,,,3,8.2,10,11.8,0,0,1.7999999999999998,1.4,0.4,4,10,match,36.05,296,361,425,0,0,9,9,9,0,0,,,,,,,2,0,2,0,0,43,43,51,,,,,,,,,,,,,,3,0.5089098999742419,3,0.3,0.25,9.01073,return,1.1758384000277147,,,,,,,,,,,,,,,,,p301,23,female,left_right_width,2025-11-11_12h37.09.721,exp1,2023.1.0,59.99044951755282,
,,,,,,,,,,,,,,,,5,8.2,9.1,10,10.9,11.8,0.9,0.5,0.4,4,10,initial,36.05,296,328,361,393,425,9,9,9,9,9,,,,,,,2,0,2,0,0,44,44,50,,,,,,,,,,,,,,5,1.5612112000235356,5,0.5,0.30000000000000004,10.81288,return,1.8653168000164442,,,,,,,,,,,,,,,,,p301,23,female,left_right_width,2025-11-11_12h37.09.721,exp1,2023.1.0,59.99044951755282,
,,,,,,,,,,,,,,,,3,7.800000000000001,10,12.2,0,0,2.1999999999999997,1.7999999999999998,0.4,4.8,10,match,36.05,281,361,440,0,0,9,9,9,0,0,,,,,,,2,0,2,0,0,45,45,39,,,,,,,,,,,,,,3,0.6015435000299476,3,0.3,0.3,10.81288,return,1.31075200001942,,,,,,,,,,,,,,,,,p301,23,female,left_right_width,2025-11-11_12h37.09.721,exp1,2023.1.0,59.99044951755282,
,,,,,,,,,,,,,,,,4,9.1,9.7,10.3,10.9,0,0.6,0.04999999999999997,0.55,2.35,10,match,36.05,328,350,371,393,0,9,9,9,9,0,,,,,,,2,0,2,0,0,46,46,12,,,,,,,,,,,,,,3,0.9362402000115253,3,0.2,0.39999999999999997,14.41717,return,1.7935521000181325,,,,,,,,,,,,,,,,,p301,23,female,left_right_width,2025-11-11_12h37.09.721,exp1,2023.1.0,59.99044951755282,
,,,,,,,,,,,,,,,,4,8.35,9.45,10.55,11.65,0,1.1,0.8500000000000001,0.25,3.5500000000000003,10,initial,36.05,301,341,380,420,0,9,9,9,9,0,,,,,,,2,0,2,0,0,47,47,19,,,,,,,,,,,,,,3,0.7228684999863617,3,0.5,0.25000000000000006,9.01073,return,1.636685799981933,,,,,,,,,,,,,,,,,p301,23,female,left_right_width,2025-11-11_12h37.09.721,exp1,2023.1.0,59.99044951755282,
,,,,,,,,,,,,,,,,4,8.9,9.633333333333333,10.366666666666667,11.1,0,0.7333333333333334,0.4833333333333334,0.25,2.45,10,match,36.05,321,347,374,400,0,9,9,9,9,0,,,,,,,2,0,2,0,0,48,48,3,,,,,,,,,,,,,,3,1.3404566000099294,3,0.5,0.15000000000000008,5.40644,return,2.293551899958402,,,,,,,,,,,,,,,,,p301,23,female,left_right_width,2025-11-11_12h37.09.721,exp1,2023.1.0,59.99044951755282,
,,,,,,,,,,,,,,,,3,8.9,10,11.1,0,0,1.1,0.7000000000000001,0.4,2.6000000000000005,10,initial,36.05,321,361,400,0,0,9,9,9,0,0,,,,,,,2,0,2,0,0,49,49,4,,,,,,,,,,,,,,3,0.6841261999798007,3,0.35,0.3,10.81288,return,1.0241355000180192,,,,,,,,,,,,,,,,,p301,23,female,left_right_width,2025-11-11_12h37.09.721,exp1,2023.1.0,59.99044951755282,
,,,,,,,,,,,,,,,,4,8.95,9.65,10.35,11.05,0,0.7,0.1499999999999999,0.55,2.65,10,initial,36.05,323,348,373,398,0,9,9,9,9,0,,,,,,,2,0,2,0,0,50,50,23,,,,,,,,,,,,,,3,0.9105232000001706,3,0.55,0.35000000000000003,12.61502,return,1.6415883000008762,,,,,,,,,,,,,,,,,p301,23,female,left_right_width,2025-11-11_12h37.09.721,exp1,2023.1.0,59.99044951755282,
,,,,,,,,,,,,,,,,3,8.9,10,11.1,0,0,1.1,0.55,0.55,2.75,10,initial,36.05,321,361,400,0,0,9,9,9,0,0,,,,,,,2,0,2,0,0,51,51,0,,,,,,,,,,,,,,3,0.5365871000103652,3,0.3,0.39999999999999997,14.41717,return,1.0094749999698251,,,,,,,,,,,,,,,,,p301,23,female,left_right_width,2025-11-11_12h37.09.721,exp1,2023.1.0,59.99044951755282,
,,,,,,,,,,,,,,,,,,,,,,,,,,,,,,,,,,,,,,,,,,,,,2,0,2,0,,,,,,,,,,,,,,,,,,,,,,,,,,,,1563.859085300006,1563.859085300006,1563.859085300006,,,,,,,,,,,,p301,23,female,left_right_width,2025-11-11_12h37.09.721,exp1,2023.1.0,59.99044951755282,
,,,,,,,,,,,,,,,,3,8.2,10,11.8,0,0,1.8,1.55,0.25,3.85,10,match,36.05,296,361,425,0,0,9,9,9,0,0,,,,,,,3,0,3,0,0,0,0,49,,,,,,,,,,,,,,3,0.6607792999711819,3,0.35,0.2,7.20859,return,1.6251368999946862,,,,,,,,,,,,,,,,,p301,23,female,left_right_width,2025-11-11_12h37.09.721,exp1,2023.1.0,59.99044951755282,
,,,,,,,,,,,,,,,,3,7.800000000000001,10,12.2,0,0,2.1999999999999997,1.7999999999999998,0.4,4.8,10,match,36.05,281,361,440,0,0,9,9,9,0,0,,,,,,,3,0,3,0,0,1,1,39,,,,,,,,,,,,,,3,0.904569200007245,3,0.2,0.25,9.01073,return,1.9885636999970302,,,,,,,,,,,,,,,,,p301,23,female,left_right_width,2025-11-11_12h37.09.721,exp1,2023.1.0,59.99044951755282,
,,,,,,,,,,,,,,,,5,8.65,9.325,10,10.675,11.35,0.675,0.42500000000000004,0.25,2.95,10,match,36.05,312,336,361,385,409,9,9,9,9,9,,,,,,,3,0,3,0,0,2,2,31,,,,,,,,,,,,,,5,1.2282218000036664,5,0.35,0.15000000000000002,5.40644,return,1.2738144000177272,,,,,,,,,,,,,,,,,p301,23,female,left_right_width,2025-11-11_12h37.09.721,exp1,2023.1.0,59.99044951755282,
,,,,,,,,,,,,,,,,4,9.3,9.766666666666667,10.233333333333333,10.7,0,0.4666666666666667,0.06666666666666665,0.4,1.8,10,match,36.05,335,352,369,386,0,9,9,9,9,0,,,,,,,3,0,3,0,0,3,3,10,,,,,,,,,,,,,,4,0.7721645000274293,4,0.25,0.25,9.01073,return,2.1475061000091955,,,,,,,,,,,,,,,,,p301,23,female,left_right_width,2025-11-11_12h37.09.721,exp1,2023.1.0,59.99044951755282,
,,,,,,,,,,,,,,,,4,8.65,9.55,10.45,11.35,0,0.9,0.65,0.25,2.95,10,initial,36.05,312,344,377,409,0,9,9,9,9,0,,,,,,,3,0,3,0,0,4,4,30,,,,,,,,,,,,,,4,1.0500830000382848,4,0.4,0.20000000000000007,7.20859,return,1.568051399954129,,,,,,,,,,,,,,,,,p301,23,female,left_right_width,2025-11-11_12h37.09.721,exp1,2023.1.0,59.99044951755282,
,,,,,,,,,,,,,,,,3,7.8,10,12.2,0,0,2.2,1.9500000000000002,0.25,4.65,10,match,36.05,281,361,440,0,0,9,9,9,0,0,,,,,,,3,0,3,0,0,5,5,37,,,,,,,,,,,,,,3,0.47870289999991655,3,0.5,0.25000000000000006,9.01073,return,1.4179352999781258,,,,,,,,,,,,,,,,,p301,23,female,left_right_width,2025-11-11_12h37.09.721,exp1,2023.1.0,59.99044951755282,
,,,,,,,,,,,,,,,,5,8.65,9.325,10,10.675,11.35,0.675,0.125,0.55,3.25,10,match,36.05,312,336,361,385,409,9,9,9,9,9,,,,,,,3,0,3,0,0,6,6,29,,,,,,,,,,,,,,4,1.1287491000257432,4,0.3,0.2,7.20859,return,0.9862658000201918,,,,,,,,,,,,,,,,,p301,23,female,left_right_width,2025-11-11_12h37.09.721,exp1,2023.1.0,59.99044951755282,
,,,,,,,,,,,,,,,,3,8.525,10,11.475,0,0,1.475,1.225,0.25,3.2,10,match,36.05,307,361,414,0,0,9,9,9,0,0,,,,,,,3,0,3,0,0,7,7,45,,,,,,,,,,,,,,3,0.5326659000129439,3,0.35,0.15000000000000002,5.40644,return,1.2958791999844834,,,,,,,,,,,,,,,,,p301,23,female,left_right_width,2025-11-11_12h37.09.721,exp1,2023.1.0,59.99044951755282,
,,,,,,,,,,,,,,,,4,8.9,9.633333333333333,10.366666666666667,11.1,0,0.7333333333333333,0.18333333333333326,0.55,2.75,10,match,36.05,321,347,374,400,0,9,9,9,9,0,,,,,,,3,0,3,0,0,8,8,1,,,,,,,,,,,,,,4,0.9274169999989681,4,0.2,0.25,9.01073,return,1.4974427999695763,,,,,,,,,,,,,,,,,p301,23,female,left_right_width,2025-11-11_12h37.09.721,exp1,2023.1.0,59.99044951755282,
,,,,,,,,,,,,,,,,4,9.1,9.7,10.3,10.9,0,0.6000000000000001,0.20000000000000004,0.4,2.2,10,match,36.05,328,350,371,393,0,9,9,9,9,0,,,,,,,3,0,3,0,0,9,9,16,,,,,,,,,,,,,,4,0.7737281000008807,4,0.2,0.2,7.20859,return,1.0946877000387758,,,,,,,,,,,,,,,,,p301,23,female,left_right_width,2025-11-11_12h37.09.721,exp1,2023.1.0,59.99044951755282,
,,,,,,,,,,,,,,,,4,8.35,9.45,10.55,11.65,0,1.1,0.8500000000000001,0.25,3.5500000000000003,10,initial,36.05,301,341,380,420,0,9,9,9,9,0,,,,,,,3,0,3,0,0,10,10,19,,,,,,,,,,,,,,3,0.6415707999840379,3,0.5,0.15000000000000008,5.40644,return,1.734382700000424,,,,,,,,,,,,,,,,,p301,23,female,left_right_width,2025-11-11_12h37.09.721,exp1,2023.1.0,59.99044951755282,
,,,,,,,,,,,,,,,,3,9.1,10,10.9,0,0,0.9,0.65,0.25,2.05,10,initial,36.05,328,361,393,0,0,9,9,9,0,0,,,,,,,3,0,3,0,0,11,11,13,,,,,,,,,,,,,,3,0.5912043999996968,3,0.4,0.20000000000000007,7.20859,return,1.5101288000005297,,,,,,,,,,,,,,,,,p301,23,female,left_right_width,2025-11-11_12h37.09.721,exp1,2023.1.0,59.99044951755282,
,,,,,,,,,,,,,,,,5,8.65,9.325,10,10.675,11.35,0.675,0.275,0.4,3.1,10,match,36.05,312,336,361,385,409,9,9,9,9,9,,,,,,,3,0,3,0,0,12,12,33,,,,,,,,,,,,,,4,0.6427443000138737,4,0.45,0.25000000000000006,9.01073,return,1.3044975999509916,,,,,,,,,,,,,,,,,p301,23,female,left_right_width,2025-11-11_12h37.09.721,exp1,2023.1.0,59.99044951755282,
,,,,,,,,,,,,,,,,5,8.95,9.475,10,10.525,11.05,0.525,0.125,0.4,2.5,10,match,36.05,323,342,361,379,398,9,9,9,9,9,,,,,,,3,0,3,0,0,13,13,27,,,,,,,,,,,,,,4,0.5993443999905139,4,0.55,0.35000000000000003,12.61502,return,1.853664199996274,,,,,,,,,,,,,,,,,p301,23,female,left_right_width,2025-11-11_12h37.09.721,exp1,2023.1.0,59.99044951755282,
,,,,,,,,,,,,,,,,4,8.95,9.65,10.35,11.05,0,0.7,0.1499999999999999,0.55,2.65,10,initial,36.05,323,348,373,398,0,9,9,9,9,0,,,,,,,3,0,3,0,0,14,14,23,,,,,,,,,,,,,,4,0.5711637999629602,4,0.2,0.25,9.01073,return,1.4755680999951437,,,,,,,,,,,,,,,,,p301,23,female,left_right_width,2025-11-11_12h37.09.721,exp1,2023.1.0,59.99044951755282,
,,,,,,,,,,,,,,,,5,7.8,8.9,10,11.1,12.2,1.1,0.7000000000000001,0.4,4.800000000000001,10,initial,36.05,281,321,361,400,440,9,9,9,9,9,,,,,,,3,0,3,0,0,15,15,38,,,,,,,,,,,,,,5,1.0226456999662332,5,0.3,0.3,10.81288,return,1.1251438000472263,,,,,,,,,,,,,,,,,p301,23,female,left_right_width,2025-11-11_12h37.09.721,exp1,2023.1.0,59.99044951755282,
,,,,,,,,,,,,,,,,5,8.95,9.475,10,10.525,11.05,0.525,0.275,0.25,2.35,10,match,36.05,323,342,361,379,398,9,9,9,9,9,,,,,,,3,0,3,0,0,16,16,25,,,,,,,,,,,,,,4,0.7845980999991298,4,0.35,0.25,9.01073,return,1.3926663000020199,,,,,,,,,,,,,,,,,p301,23,female,left_right_width,2025-11-11_12h37.09.721,exp1,2023.1.0,59.99044951755282,
,,,,,,,,,,,,,,,,4,8.35,9.45,10.55,11.65,0,1.1,0.55,0.55,3.8500000000000005,10,initial,36.05,301,341,380,420,0,9,9,9,9,0,,,,,,,3,0,3,0,0,17,17,17,,,,,,,,,,,,,,4,0.8122679999796674,4,0.45,0.35000000000000003,12.61502,return,2.0586039000190794,,,,,,,,,,,,,,,,,p301,23,female,left_right_width,2025-11-11_12h37.09.721,exp1,2023.1.0,59.99044951755282,
,,,,,,,,,,,,,,,,3,8.2,10,11.8,0,0,1.8,1.25,0.55,4.15,10,match,36.05,296,361,425,0,0,9,9,9,0,0,,,,,,,3,0,3,0,0,18,18,47,,,,,,,,,,,,,,3,0.9541306999744847,3,0.3,0.35,12.61502,return,1.3479131999774836,,,,,,,,,,,,,,,,,p301,23,female,left_right_width,2025-11-11_12h37.09.721,exp1,2023.1.0,59.99044951755282,
,,,,,,,,,,,,,,,,5,7.8,8.9,10,11.1,12.2,1.1,0.55,0.55,4.95,10,initial,36.05,281,321,361,400,440,9,9,9,9,9,,,,,,,3,0,3,0,0,19,19,34,,,,,,,,,,,,,,4,1.0392298999940977,4,0.5,0.35000000000000003,12.61502,return,1.1876040999777615,,,,,,,,,,,,,,,,,p301,23,female,left_right_width,2025-11-11_12h37.09.721,exp1,2023.1.0,59.99044951755282,
,,,,,,,,,,,,,,,,4,9.3,9.766666666666667,10.233333333333333,10.7,0,0.4666666666666667,0.21666666666666665,0.25,1.65,10,match,36.05,335,352,369,386,0,9,9,9,9,0,,,,,,,3,0,3,0,0,20,20,8,,,,,,,,,,,,,,4,0.8214411999797449,4,0.55,0.20000000000000007,7.20859,return,1.8597075000288896,,,,,,,,,,,,,,,,,p301,23,female,left_right_width,2025-11-11_12h37.09.721,exp1,2023.1.0,59.99044951755282,
,,,,,,,,,,,,,,,,5,8.2,9.1,10,10.9,11.8,0.9,0.65,0.25,3.85,10,initial,36.05,296,328,361,393,425,9,9,9,9,9,,,,,,,3,0,3,0,0,21,21,48,,,,,,,,,,,,,,4,0.5868704000022262,4,0.55,0.15000000000000008,5.40644,return,2.4010482000303455,,,,,,,,,,,,,,,,,p301,23,female,left_right_width,2025-11-11_12h37.09.721,exp1,2023.1.0,59.99044951755282,
,,,,,,,,,,,,,,,,3,9.3,10,10.7,0,0,0.7,0.29999999999999993,0.4,1.8,10,initial,36.05,335,361,386,0,0,9,9,9,0,0,,,,,,,3,0,3,0,0,22,22,9,,,,,,,,,,,,,,3,0.5227488999953493,3,0.35,0.25,9.01073,return,0.996735799999442,,,,,,,,,,,,,,,,,p301,23,female,left_right_width,2025-11-11_12h37.09.721,exp1,2023.1.0,59.99044951755282,
,,,,,,,,,,,,,,,,3,8.9,10,11.1,0,0,1.1,0.7000000000000001,0.4,2.6000000000000005,10,initial,36.05,321,361,400,0,0,9,9,9,0,0,,,,,,,3,0,3,0,0,23,23,4,,,,,,,,,,,,,,3,0.7144530999939889,3,0.35,0.2,7.20859,return,1.0042838000226766,,,,,,,,,,,,,,,,,p301,23,female,left_right_width,2025-11-11_12h37.09.721,exp1,2023.1.0,59.99044951755282,
,,,,,,,,,,,,,,,,3,8.9,10,11.1,0,0,1.1,0.55,0.55,2.75,10,initial,36.05,321,361,400,0,0,9,9,9,0,0,,,,,,,3,0,3,0,0,24,24,0,,,,,,,,,,,,,,3,0.7266651999671012,3,0.25,0.35,12.61502,return,1.03286360000493,,,,,,,,,,,,,,,,,p301,23,female,left_right_width,2025-11-11_12h37.09.721,exp1,2023.1.0,59.99044951755282,
,,,,,,,,,,,,,,,,5,8.6,9.3,10,10.7,11.4,0.7,0.44999999999999996,0.25,3.05,10,initial,36.05,310,335,361,386,411,9,9,9,9,9,,,,,,,3,0,3,0,0,25,25,42,,,,,,,,,,,,,,4,0.7554814000031911,4,0.55,0.20000000000000007,7.20859,return,2.0833049000357278,,,,,,,,,,,,,,,,,p301,23,female,left_right_width,2025-11-11_12h37.09.721,exp1,2023.1.0,59.99044951755282,
,,,,,,,,,,,,,,,,3,9.3,10,10.7,0,0,0.7,0.1499999999999999,0.55,1.95,10,initial,36.05,335,361,386,0,0,9,9,9,0,0,,,,,,,3,0,3,0,0,26,26,6,,,,,,,,,,,,,,3,0.8739127000444569,3,0.3,0.35,12.61502,return,1.1741118999780156,,,,,,,,,,,,,,,,,p301,23,female,left_right_width,2025-11-11_12h37.09.721,exp1,2023.1.0,59.99044951755282,
,,,,,,,,,,,,,,,,5,8.35,9.175,10,10.825,11.65,0.825,0.575,0.25,3.55,10,match,36.05,301,331,361,390,420,9,9,9,9,9,,,,,,,3,0,3,0,0,27,27,20,,,,,,,,,,,,,,4,0.9694642999675125,4,0.25,0.2,7.20859,return,1.0574353000265546,,,,,,,,,,,,,,,,,p301,23,female,left_right_width,2025-11-11_12h37.09.721,exp1,2023.1.0,59.99044951755282,
,,,,,,,,,,,,,,,,3,8.9,10,11.1,0,0,1.1,0.8500000000000001,0.25,2.45,10,initial,36.05,321,361,400,0,0,9,9,9,0,0,,,,,,,3,0,3,0,0,28,28,2,,,,,,,,,,,,,,3,0.670707399956882,3,0.55,0.20000000000000007,7.20859,return,1.810453200014308,,,,,,,,,,,,,,,,,p301,23,female,left_right_width,2025-11-11_12h37.09.721,exp1,2023.1.0,59.99044951755282,
,,,,,,,,,,,,,,,,3,9.3,10,10.7,0,0,0.7,0.44999999999999996,0.25,1.65,10,initial,36.05,335,361,386,0,0,9,9,9,0,0,,,,,,,3,0,3,0,0,29,29,7,,,,,,,,,,,,,,3,0.7661152000073344,3,0.2,0.15000000000000002,5.40644,return,0.9259754999657162,,,,,,,,,,,,,,,,,p301,23,female,left_right_width,2025-11-11_12h37.09.721,exp1,2023.1.0,59.99044951755282,
,,,,,,,,,,,,,,,,4,8.95,9.65,10.35,11.05,0,0.7,0.29999999999999993,0.4,2.5,10,initial,36.05,323,348,373,398,0,9,9,9,9,0,,,,,,,3,0,3,0,0,30,30,26,,,,,,,,,,,,,,4,0.5880851999972947,4,0.3,0.2,7.20859,return,1.186861299967859,,,,,,,,,,,,,,,,,p301,23,female,left_right_width,2025-11-11_12h37.09.721,exp1,2023.1.0,59.99044951755282,
,,,,,,,,,,,,,,,,5,8.275,9.1375,10,10.8625,11.725,0.8625,0.6125,0.25,3.7,10,match,36.05,298,329,361,392,423,9,9,9,9,9,,,,,,,3,0,3,0,0,31,31,22,,,,,,,,,,,,,,4,0.63473220000742,4,0.3,0.15000000000000002,5.40644,return,1.0073701000073925,,,,,,,,,,,,,,,,,p301,23,female,left_right_width,2025-11-11_12h37.09.721,exp1,2023.1.0,59.99044951755282,
,,,,,,,,,,,,,,,,3,8.6,10,11.4,0,0,1.4,0.85,0.55,3.35,10,match,36.05,310,361,411,0,0,9,9,9,0,0,,,,,,,3,0,3,0,0,32,32,41,,,,,,,,,,,,,,3,0.5870130000403151,3,0.55,0.4,14.41717,return,1.2349194000125863,,,,,,,,,,,,,,,,,p301,23,female,left_right_width,2025-11-11_12h37.09.721,exp1,2023.1.0,59.99044951755282,
,,,,,,,,,,,,,,,,4,8.9,9.633333333333333,10.366666666666667,11.1,0,0.7333333333333334,0.4833333333333334,0.25,2.45,10,match,36.05,321,347,374,400,0,9,9,9,9,0,,,,,,,3,0,3,0,0,33,33,3,,,,,,,,,,,,,,3,0.7345107999863103,3,0.25,0.2,7.20859,return,0.7512180000194348,,,,,,,,,,,,,,,,,p301,23,female,left_right_width,2025-11-11_12h37.09.721,exp1,2023.1.0,59.99044951755282,
,,,,,,,,,,,,,,,,5,7.8,8.9,10,11.1,12.2,1.1,0.8500000000000001,0.25,4.65,10,initial,36.05,281,321,361,400,440,9,9,9,9,9,,,,,,,3,0,3,0,0,34,34,36,,,,,,,,,,,,,,4,0.6632570999790914,4,0.25,0.15000000000000002,5.40644,return,0.7962158999871463,,,,,,,,,,,,,,,,,p301,23,female,left_right_width,2025-11-11_12h37.09.721,exp1,2023.1.0,59.99044951755282,
,,,,,,,,,,,,,,,,5,8.6,9.3,10,10.7,11.4,0.7,0.29999999999999993,0.4,3.1999999999999997,10,initial,36.05,310,335,361,386,411,9,9,9,9,9,,,,,,,3,0,3,0,0,35,35,44,,,,,,,,,,,,,,4,0.5848606000072323,4,0.45,0.35000000000000003,12.61502,return,1.200917100009974,,,,,,,,,,,,,,,,,p301,23,female,left_right_width,2025-11-11_12h37.09.721,exp1,2023.1.0,59.99044951755282,
,,,,,,,,,,,,,,,,5,8.6,9.3,10,10.7,11.4,0.7,0.1499999999999999,0.55,3.3499999999999996,10,initial,36.05,310,335,361,386,411,9,9,9,9,9,,,,,,,3,0,3,0,0,36,36,40,,,,,,,,,,,,,,4,0.6434971999842674,4,0.55,0.4,14.41717,return,1.2409635999938473,,,,,,,,,,,,,,,,,p301,23,female,left_right_width,2025-11-11_12h37.09.721,exp1,2023.1.0,59.99044951755282,
,,,,,,,,,,,,,,,,4,8.35,9.45,10.55,11.65,0,1.1,0.7000000000000001,0.4,3.7,10,initial,36.05,301,341,380,420,0,9,9,9,9,0,,,,,,,3,0,3,0,0,37,37,21,,,,,,,,,,,,,,4,0.5113326999708079,4,0.2,0.25,9.01073,return,1.227129300008528,,,,,,,,,,,,,,,,,p301,23,female,left_right_width,2025-11-11_12h37.09.721,exp1,2023.1.0,59.99044951755282,
,,,,,,,,,,,,,,,,3,9.1,10,10.9,0,0,0.9,0.5,0.4,2.2,10,initial,36.05,328,361,393,0,0,9,9,9,0,0,,,,,,,3,0,3,0,0,38,38,15,,,,,,,,,,,,,,3,0.6734979000175372,3,0.5,0.30000000000000004,10.81288,return,1.0290101999999024,,,,,,,,,,,,,,,,,p301,23,female,left_right_width,2025-11-11_12h37.09.721,exp1,2023.1.0,59.99044951755282,
,,,,,,,,,,,,,,,,3,8.6,10,11.4,0,0,1.4,1.15,0.25,3.05,10,match,36.05,310,361,411,0,0,9,9,9,0,0,,,,,,,3,0,3,0,0,39,39,43,,,,,,,,,,,,,,3,0.6288433999870904,3,0.3,0.2,7.20859,return,0.8271389000001363,,,,,,,,,,,,,,,,,p301,23,female,left_right_width,2025-11-11_12h37.09.721,exp1,2023.1.0,59.99044951755282,
,,,,,,,,,,,,,,,,3,8.2,10,11.8,0,0,1.7999999999999998,1.4,0.4,4,10,match,36.05,296,361,425,0,0,9,9,9,0,0,,,,,,,3,0,3,0,0,40,40,51,,,,,,,,,,,,,,3,0.5727671999484301,3,0.55,0.25000000000000006,9.01073,return,1.7487824000418186,,,,,,,,,,,,,,,,,p301,23,female,left_right_width,2025-11-11_12h37.09.721,exp1,2023.1.0,59.99044951755282,
,,,,,,,,,,,,,,,,4,9.1,9.7,10.3,10.9,0,0.6,0.04999999999999997,0.55,2.35,10,match,36.05,328,350,371,393,0,9,9,9,9,0,,,,,,,3,0,3,0,0,41,41,12,,,,,,,,,,,,,,3,1.1862813999759965,3,0.45,0.4,14.41717,return,1.201137900003232,,,,,,,,,,,,,,,,,p301,23,female,left_right_width,2025-11-11_12h37.09.721,exp1,2023.1.0,59.99044951755282,
,,,,,,,,,,,,,,,,5,8.2,9.1,10,10.9,11.8,0.9,0.35,0.55,4.15,10,initial,36.05,296,328,361,393,425,9,9,9,9,9,,,,,,,3,0,3,0,0,42,42,46,,,,,,,,,,,,,,4,0.7311780999880284,4,0.45,0.35000000000000003,12.61502,return,1.277140500023961,,,,,,,,,,,,,,,,,p301,23,female,left_right_width,2025-11-11_12h37.09.721,exp1,2023.1.0,59.99044951755282,
,,,,,,,,,,,,,,,,4,8.95,9.65,10.35,11.05,0,0.7,0.44999999999999996,0.25,2.3499999999999996,10,initial,36.05,323,348,373,398,0,9,9,9,9,0,,,,,,,3,0,3,0,0,43,43,24,,,,,,,,,,,,,,3,1.857237999967765,3,0.3,0.25,9.01073,return,0.853218799980823,,,,,,,,,,,,,,,,,p301,23,female,left_right_width,2025-11-11_12h37.09.721,exp1,2023.1.0,59.99044951755282,
,,,,,,,,,,,,,,,,4,8.65,9.55,10.45,11.35,0,0.9,0.5,0.4,3.1,10,initial,36.05,312,344,377,409,0,9,9,9,9,0,,,,,,,3,0,3,0,0,44,44,32,,,,,,,,,,,,,,4,1.035349000012502,4,0.45,0.30000000000000004,10.81288,return,1.1219985000207089,,,,,,,,,,,,,,,,,p301,23,female,left_right_width,2025-11-11_12h37.09.721,exp1,2023.1.0,59.99044951755282,
,,,,,,,,,,,,,,,,3,7.8,10,12.2,0,0,2.2,1.65,0.55,4.95,10,match,36.05,281,361,440,0,0,9,9,9,0,0,,,,,,,3,0,3,0,0,45,45,35,,,,,,,,,,,,,,3,0.6691444999887608,3,0.3,0.39999999999999997,14.41717,return,2.610243499977514,,,,,,,,,,,,,,,,,p301,23,female,left_right_width,2025-11-11_12h37.09.721,exp1,2023.1.0,59.99044951755282,
,,,,,,,,,,,,,,,,4,8.825,9.608333333333333,10.391666666666667,11.175,0,0.7833333333333333,0.5333333333333333,0.25,2.6,10,match,36.05,318,346,375,403,0,9,9,9,9,0,,,,,,,3,0,3,0,0,46,46,5,,,,,,,,,,,,,,3,1.1329015999799594,3,0.4,0.20000000000000007,7.20859,return,1.2307639999780804,,,,,,,,,,,,,,,,,p301,23,female,left_right_width,2025-11-11_12h37.09.721,exp1,2023.1.0,59.99044951755282,
,,,,,,,,,,,,,,,,4,8.65,9.55,10.45,11.35,0,0.9,0.35,0.55,3.25,10,initial,36.05,312,344,377,409,0,9,9,9,9,0,,,,,,,3,0,3,0,0,47,47,28,,,,,,,,,,,,,,3,0.6246606999775395,3,0.25,0.3,10.81288,return,1.6227432999876328,,,,,,,,,,,,,,,,,p301,23,female,left_right_width,2025-11-11_12h37.09.721,exp1,2023.1.0,59.99044951755282,
,,,,,,,,,,,,,,,,5,8.2,9.1,10,10.9,11.8,0.9,0.5,0.4,4,10,initial,36.05,296,328,361,393,425,9,9,9,9,9,,,,,,,3,0,3,0,0,48,48,50,,,,,,,,,,,,,,4,0.8128979000030085,4,0.35,0.3,10.81288,return,1.6419113000156358,,,,,,,,,,,,,,,,,p301,23,female,left_right_width,2025-11-11_12h37.09.721,exp1,2023.1.0,59.99044951755282,
,,,,,,,,,,,,,,,,5,8.35,9.175,10,10.825,11.65,0.8250000000000001,0.275,0.55,3.85,10,match,36.05,301,331,361,390,420,9,9,9,9,9,,,,,,,3,0,3,0,0,49,49,18,,,,,,,,,,,,,,4,0.9539846000261605,4,0.25,0.35,12.61502,return,1.4109403000329621,,,,,,,,,,,,,,,,,p301,23,female,left_right_width,2025-11-11_12h37.09.721,exp1,2023.1.0,59.99044951755282,
,,,,,,,,,,,,,,,,4,9.1,9.7,10.3,10.9,0,0.5999999999999999,0.3499999999999999,0.25,2.05,10,match,36.05,328,350,371,393,0,9,9,9,9,0,,,,,,,3,0,3,0,0,50,50,14,,,,,,,,,,,,,,4,0.7958867999841459,4,0.4,0.20000000000000007,7.20859,return,1.2271834000130184,,,,,,,,,,,,,,,,,p301,23,female,left_right_width,2025-11-11_12h37.09.721,exp1,2023.1.0,59.99044951755282,
,,,,,,,,,,,,,,,,3,9.1,10,10.9,0,0,0.9,0.35,0.55,2.35,10,initial,36.05,328,361,393,0,0,9,9,9,0,0,,,,,,,3,0,3,0,0,51,51,11,,,,,,,,,,,,,,3,0.5609839000389911,3,0.5,0.35000000000000003,12.61502,return,1.2731064999825321,,,,,,,,,,,,,,,,,p301,23,female,left_right_width,2025-11-11_12h37.09.721,exp1,2023.1.0,59.99044951755282,
,,,,,,,,,,,,,,,,,,,,,,,,,,,,,,,,,,,,,,,,,,,,,3,0,3,0,,,,,,,,,,,,,,,,,,,,,,,,,,,,1781.1255059000105,1781.1255059000105,1781.1255059000105,,,,,,,,,,,,p301,23,female,left_right_width,2025-11-11_12h37.09.721,exp1,2023.1.0,59.99044951755282,
,,,,,,,,,,,,,,,,3,8.9,10,11.1,0,0,1.1,0.55,0.55,2.75,10,initial,36.05,321,361,400,0,0,9,9,9,0,0,,,,,,,4,0,4,0,0,0,0,0,,,,,,,,,,,,,,3,1.2464169999584556,3,0.55,0.4,14.41717,return,2.090400099987164,,,,,,,,,,,,,,,,,p301,23,female,left_right_width,2025-11-11_12h37.09.721,exp1,2023.1.0,59.99044951755282,
,,,,,,,,,,,,,,,,5,8.2,9.1,10,10.9,11.8,0.9,0.5,0.4,4,10,initial,36.05,296,328,361,393,425,9,9,9,9,9,,,,,,,4,0,4,0,0,1,1,50,,,,,,,,,,,,,,3,1.2241895000333898,3,0.25,0.25,9.01073,return,1.205758500029333,,,,,,,,,,,,,,,,,p301,23,female,left_right_width,2025-11-11_12h37.09.721,exp1,2023.1.0,59.99044951755282,
,,,,,,,,,,,,,,,,4,9.1,9.7,10.3,10.9,0,0.5999999999999999,0.3499999999999999,0.25,2.05,10,match,36.05,328,350,371,393,0,9,9,9,9,0,,,,,,,4,0,4,0,0,2,2,14,,,,,,,,,,,,,,4,1.164225600019563,4,0.55,0.25000000000000006,9.01073,return,1.5806851999950595,,,,,,,,,,,,,,,,,p301,23,female,left_right_width,2025-11-11_12h37.09.721,exp1,2023.1.0,59.99044951755282,
,,,,,,,,,,,,,,,,3,7.8,10,12.2,0,0,2.2,1.9500000000000002,0.25,4.65,10,match,36.05,281,361,440,0,0,9,9,9,0,0,,,,,,,4,0,4,0,0,3,3,37,,,,,,,,,,,,,,2,2.251008199993521,2,0.55,0.30000000000000004,10.81288,return,3.071529000008013,,,,,,,,,,,,,,,,,p301,23,female,left_right_width,2025-11-11_12h37.09.721,exp1,2023.1.0,59.99044951755282,
,,,,,,,,,,,,,,,,3,8.2,10,11.8,0,0,1.8,1.25,0.55,4.15,10,match,36.05,296,361,425,0,0,9,9,9,0,0,,,,,,,4,0,4,0,0,4,4,47,,,,,,,,,,,,,,3,0.5850569999893196,3,0.4,0.30000000000000004,10.81288,return,1.1029853000072762,,,,,,,,,,,,,,,,,p301,23,female,left_right_width,2025-11-11_12h37.09.721,exp1,2023.1.0,59.99044951755282,
,,,,,,,,,,,,,,,,5,7.8,8.9,10,11.1,12.2,1.1,0.55,0.55,4.95,10,initial,36.05,281,321,361,400,440,9,9,9,9,9,,,,,,,4,0,4,0,0,5,5,34,,,,,,,,,,,,,,4,1.0985945999855176,4,0.55,0.35000000000000003,12.61502,return,1.5178461000323296,,,,,,,,,,,,,,,,,p301,23,female,left_right_width,2025-11-11_12h37.09.721,exp1,2023.1.0,59.99044951755282,
,,,,,,,,,,,,,,,,4,8.95,9.65,10.35,11.05,0,0.7,0.44999999999999996,0.25,2.3499999999999996,10,initial,36.05,323,348,373,398,0,9,9,9,9,0,,,,,,,4,0,4,0,0,6,6,24,,,,,,,,,,,,,,3,1.6185818999656476,3,0.55,0.35000000000000003,12.61502,return,1.8077542000100948,,,,,,,,,,,,,,,,,p301,23,female,left_right_width,2025-11-11_12h37.09.721,exp1,2023.1.0,59.99044951755282,
,,,,,,,,,,,,,,,,3,8.2,10,11.8,0,0,1.8,1.55,0.25,3.85,10,match,36.05,296,361,425,0,0,9,9,9,0,0,,,,,,,4,0,4,0,0,7,7,49,,,,,,,,,,,,,,3,1.7516520000062883,3,0.55,0.25000000000000006,9.01073,return,2.1934094000025652,,,,,,,,,,,,,,,,,p301,23,female,left_right_width,2025-11-11_12h37.09.721,exp1,2023.1.0,59.99044951755282,
,,,,,,,,,,,,,,,,5,8.6,9.3,10,10.7,11.4,0.7,0.29999999999999993,0.4,3.1999999999999997,10,initial,36.05,310,335,361,386,411,9,9,9,9,9,,,,,,,4,0,4,0,0,8,8,44,,,,,,,,,,,,,,4,1.8183146000374109,4,0.55,0.45,16.21932,return,1.5037073999992572,,,,,,,,,,,,,,,,,p301,23,female,left_right_width,2025-11-11_12h37.09.721,exp1,2023.1.0,59.99044951755282,
,,,,,,,,,,,,,,,,4,8.95,9.65,10.35,11.05,0,0.7,0.1499999999999999,0.55,2.65,10,initial,36.05,323,348,373,398,0,9,9,9,9,0,,,,,,,4,0,4,0,0,9,9,23,,,,,,,,,,,,,,3,1.1466694999835454,3,0.4,0.30000000000000004,10.81288,return,1.2113858999800868,,,,,,,,,,,,,,,,,p301,23,female,left_right_width,2025-11-11_12h37.09.721,exp1,2023.1.0,59.99044951755282,
,,,,,,,,,,,,,,,,3,9.1,10,10.9,0,0,0.9,0.65,0.25,2.05,10,initial,36.05,328,361,393,0,0,9,9,9,0,0,,,,,,,4,0,4,0,0,10,10,13,,,,,,,,,,,,,,3,1.2791197000187822,3,0.25,0.2,7.20859,return,1.2425024000112899,,,,,,,,,,,,,,,,,p301,23,female,left_right_width,2025-11-11_12h37.09.721,exp1,2023.1.0,59.99044951755282,
,,,,,,,,,,,,,,,,4,9.3,9.766666666666667,10.233333333333333,10.7,0,0.4666666666666667,0.06666666666666665,0.4,1.8,10,match,36.05,335,352,369,386,0,9,9,9,9,0,,,,,,,4,0,4,0,0,11,11,10,,,,,,,,,,,,,,3,0.96995609998703,3,0.3,0.3,10.81288,return,2.0827610000269488,,,,,,,,,,,,,,,,,p301,23,female,left_right_width,2025-11-11_12h37.09.721,exp1,2023.1.0,59.99044951755282,
,,,,,,,,,,,,,,,,3,8.9,10,11.1,0,0,1.1,0.8500000000000001,0.25,2.45,10,initial,36.05,321,361,400,0,0,9,9,9,0,0,,,,,,,4,0,4,0,0,12,12,2,,,,,,,,,,,,,,3,0.615432700025849,3,0.2,0.15000000000000002,5.40644,return,1.0860413999762386,,,,,,,,,,,,,,,,,p301,23,female,left_right_width,2025-11-11_12h37.09.721,exp1,2023.1.0,59.99044951755282,
,,,,,,,,,,,,,,,,5,8.2,9.1,10,10.9,11.8,0.9,0.65,0.25,3.85,10,initial,36.05,296,328,361,393,425,9,9,9,9,9,,,,,,,4,0,4,0,0,13,13,48,,,,,,,,,,,,,,4,0.9658017000183463,4,0.4,0.15000000000000008,5.40644,return,1.8228193999966606,,,,,,,,,,,,,,,,,p301,23,female,left_right_width,2025-11-11_12h37.09.721,exp1,2023.1.0,59.99044951755282,
,,,,,,,,,,,,,,,,5,8.95,9.475,10,10.525,11.05,0.525,0.125,0.4,2.5,10,match,36.05,323,342,361,379,398,9,9,9,9,9,,,,,,,4,0,4,0,0,14,14,27,,,,,,,,,,,,,,5,2.1594076000037603,5,0.35,0.25,9.01073,return,1.8319793000118807,,,,,,,,,,,,,,,,,p301,23,female,left_right_width,2025-11-11_12h37.09.721,exp1,2023.1.0,59.99044951755282,
,,,,,,,,,,,,,,,,5,8.35,9.175,10,10.825,11.65,0.8250000000000001,0.275,0.55,3.85,10,match,36.05,301,331,361,390,420,9,9,9,9,9,,,,,,,4,0,4,0,0,15,15,18,,,,,,,,,,,,,,3,0.682797700050287,3,0.4,0.30000000000000004,10.81288,return,4.127877899969462,,,,,,,,,,,,,,,,,p301,23,female,left_right_width,2025-11-11_12h37.09.721,exp1,2023.1.0,59.99044951755282,
,,,,,,,,,,,,,,,,5,8.65,9.325,10,10.675,11.35,0.675,0.125,0.55,3.25,10,match,36.05,312,336,361,385,409,9,9,9,9,9,,,,,,,4,0,4,0,0,16,16,29,,,,,,,,,,,,,,4,1.2594462999841198,4,0.5,0.30000000000000004,10.81288,return,1.7196840000106022,,,,,,,,,,,,,,,,,p301,23,female,left_right_width,2025-11-11_12h37.09.721,exp1,2023.1.0,59.99044951755282,
,,,,,,,,,,,,,,,,5,8.95,9.475,10,10.525,11.05,0.525,0.275,0.25,2.35,10,match,36.05,323,342,361,379,398,9,9,9,9,9,,,,,,,4,0,4,0,0,17,17,25,,,,,,,,,,,,,,4,0.9767881000298075,4,0.25,0.2,7.20859,return,1.0162993000121787,,,,,,,,,,,,,,,,,p301,23,female,left_right_width,2025-11-11_12h37.09.721,exp1,2023.1.0,59.99044951755282,
,,,,,,,,,,,,,,,,3,8.525,10,11.475,0,0,1.475,1.225,0.25,3.2,10,match,36.05,307,361,414,0,0,9,9,9,0,0,,,,,,,4,0,4,0,0,18,18,45,,,,,,,,,,,,,,3,1.0369001000071876,3,0.45,0.25000000000000006,9.01073,return,1.2349654999561608,,,,,,,,,,,,,,,,,p301,23,female,left_right_width,2025-11-11_12h37.09.721,exp1,2023.1.0,59.99044951755282,
,,,,,,,,,,,,,,,,3,9.3,10,10.7,0,0,0.7,0.29999999999999993,0.4,1.8,10,initial,36.05,335,361,386,0,0,9,9,9,0,0,,,,,,,4,0,4,0,0,19,19,9,,,,,,,,,,,,,,3,0.5300859000417404,3,0.25,0.3,10.81288,return,1.3401335999951698,,,,,,,,,,,,,,,,,p301,23,female,left_right_width,2025-11-11_12h37.09.721,exp1,2023.1.0,59.99044951755282,
,,,,,,,,,,,,,,,,3,8.6,10,11.4,0,0,1.4,1.15,0.25,3.05,10,match,36.05,310,361,411,0,0,9,9,9,0,0,,,,,,,4,0,4,0,0,20,20,43,,,,,,,,,,,,,,3,0.6060138000175357,3,0.3,0.15000000000000002,5.40644,return,1.4935799000086263,,,,,,,,,,,,,,,,,p301,23,female,left_right_width,2025-11-11_12h37.09.721,exp1,2023.1.0,59.99044951755282,
,,,,,,,,,,,,,,,,5,8.2,9.1,10,10.9,11.8,0.9,0.35,0.55,4.15,10,initial,36.05,296,328,361,393,425,9,9,9,9,9,,,,,,,4,0,4,0,0,21,21,46,,,,,,,,,,,,,,4,0.7786124999984168,4,0.25,0.3,10.81288,return,1.354842100001406,,,,,,,,,,,,,,,,,p301,23,female,left_right_width,2025-11-11_12h37.09.721,exp1,2023.1.0,59.99044951755282,
,,,,,,,,,,,,,,,,3,7.8,10,12.2,0,0,2.2,1.65,0.55,4.95,10,match,36.05,281,361,440,0,0,9,9,9,0,0,,,,,,,4,0,4,0,0,22,22,35,,,,,,,,,,,,,,3,0.5040057000005618,3,0.5,0.30000000000000004,10.81288,return,1.522085500007961,,,,,,,,,,,,,,,,,p301,23,female,left_right_width,2025-11-11_12h37.09.721,exp1,2023.1.0,59.99044951755282,
,,,,,,,,,,,,,,,,5,8.275,9.1375,10,10.8625,11.725,0.8625,0.6125,0.25,3.7,10,match,36.05,298,329,361,392,423,9,9,9,9,9,,,,,,,4,0,4,0,0,23,23,22,,,,,,,,,,,,,,4,1.3356258000130765,4,0.25,0.15000000000000002,5.40644,return,1.0421411999850534,,,,,,,,,,,,,,,,,p301,23,female,left_right_width,2025-11-11_12h37.09.721,exp1,2023.1.0,59.99044951755282,
,,,,,,,,,,,,,,,,5,8.35,9.175,10,10.825,11.65,0.825,0.575,0.25,3.55,10,match,36.05,301,331,361,390,420,9,9,9,9,9,,,,,,,4,0,4,0,0,24,24,20,,,,,,,,,,,,,,4,0.9368813000037335,4,0.2,0.15000000000000002,5.40644,return,1.0102890999987721,,,,,,,,,,,,,,,,,p301,23,female,left_right_width,2025-11-11_12h37.09.721,exp1,2023.1.0,59.99044951755282,
,,,,,,,,,,,,,,,,4,9.1,9.7,10.3,10.9,0,0.6,0.04999999999999997,0.55,2.35,10,match,36.05,328,350,371,393,0,9,9,9,9,0,,,,,,,4,0,4,0,0,25,25,12,,,,,,,,,,,,,,3,1.052298900031019,3,0.4,0.30000000000000004,10.81288,return,1.2494885000051,,,,,,,,,,,,,,,,,p301,23,female,left_right_width,2025-11-11_12h37.09.721,exp1,2023.1.0,59.99044951755282,
,,,,,,,,,,,,,,,,3,9.1,10,10.9,0,0,0.9,0.5,0.4,2.2,10,initial,36.05,328,361,393,0,0,9,9,9,0,0,,,,,,,4,0,4,0,0,26,26,15,,,,,,,,,,,,,,3,0.5255677999812178,3,0.45,0.35000000000000003,12.61502,return,1.159108699997887,,,,,,,,,,,,,,,,,p301,23,female,left_right_width,2025-11-11_12h37.09.721,exp1,2023.1.0,59.99044951755282,
,,,,,,,,,,,,,,,,4,8.35,9.45,10.55,11.65,0,1.1,0.8500000000000001,0.25,3.5500000000000003,10,initial,36.05,301,341,380,420,0,9,9,9,9,0,,,,,,,4,0,4,0,0,27,27,19,,,,,,,,,,,,,,4,0.7137873999890871,4,0.55,0.35000000000000003,12.61502,return,1.419864299998153,,,,,,,,,,,,,,,,,p301,23,female,left_right_width,2025-11-11_12h37.09.721,exp1,2023.1.0,59.99044951755282,
,,,,,,,,,,,,,,,,5,7.8,8.9,10,11.1,12.2,1.1,0.8500000000000001,0.25,4.65,10,initial,36.05,281,321,361,400,440,9,9,9,9,9,,,,,,,4,0,4,0,0,28,28,36,,,,,,,,,,,,,,4,1.0677761999540962,4,0.5,0.20000000000000007,7.20859,return,1.8248808999778703,,,,,,,,,,,,,,,,,p301,23,female,left_right_width,2025-11-11_12h37.09.721,exp1,2023.1.0,59.99044951755282,
,,,,,,,,,,,,,,,,3,9.1,10,10.9,0,0,0.9,0.35,0.55,2.35,10,initial,36.05,328,361,393,0,0,9,9,9,0,0,,,,,,,4,0,4,0,0,29,29,11,,,,,,,,,,,,,,3,0.6239488999708556,3,0.35,0.25,9.01073,return,1.0143031000043266,,,,,,,,,,,,,,,,,p301,23,female,left_right_width,2025-11-11_12h37.09.721,exp1,2023.1.0,59.99044951755282,
,,,,,,,,,,,,,,,,3,9.3,10,10.7,0,0,0.7,0.1499999999999999,0.55,1.95,10,initial,36.05,335,361,386,0,0,9,9,9,0,0,,,,,,,4,0,4,0,0,30,30,6,,,,,,,,,,,,,,3,1.0074346999754198,3,0.3,0.3,10.81288,return,1.2053728000028059,,,,,,,,,,,,,,,,,p301,23,female,left_right_width,2025-11-11_12h37.09.721,exp1,2023.1.0,59.99044951755282,
,,,,,,,,,,,,,,,,5,8.6,9.3,10,10.7,11.4,0.7,0.44999999999999996,0.25,3.05,10,initial,36.05,310,335,361,386,411,9,9,9,9,9,,,,,,,4,0,4,0,0,31,31,42,,,,,,,,,,,,,,4,0.7290320000029169,4,0.45,0.20000000000000007,7.20859,return,1.625363900035154,,,,,,,,,,,,,,,,,p301,23,female,left_right_width,2025-11-11_12h37.09.721,exp1,2023.1.0,59.99044951755282,
,,,,,,,,,,,,,,,,4,8.65,9.55,10.45,11.35,0,0.9,0.5,0.4,3.1,10,initial,36.05,312,344,377,409,0,9,9,9,9,0,,,,,,,4,0,4,0,0,32,32,32,,,,,,,,,,,,,,4,0.6344043000135571,4,0.55,0.30000000000000004,10.81288,return,1.3122585999662988,,,,,,,,,,,,,,,,,p301,23,female,left_right_width,2025-11-11_12h37.09.721,exp1,2023.1.0,59.99044951755282,
,,,,,,,,,,,,,,,,4,9.1,9.7,10.3,10.9,0,0.6000000000000001,0.20000000000000004,0.4,2.2,10,match,36.05,328,350,371,393,0,9,9,9,9,0,,,,,,,4,0,4,0,0,33,33,16,,,,,,,,,,,,,,4,0.5569118999992497,4,0.3,0.25,9.01073,return,1.18876430002274,,,,,,,,,,,,,,,,,p301,23,female,left_right_width,2025-11-11_12h37.09.721,exp1,2023.1.0,59.99044951755282,
,,,,,,,,,,,,,,,,4,8.65,9.55,10.45,11.35,0,0.9,0.35,0.55,3.25,10,initial,36.05,312,344,377,409,0,9,9,9,9,0,,,,,,,4,0,4,0,0,34,34,28,,,,,,,,,,,,,,4,0.5905045999679714,4,0.35,0.3,10.81288,return,0.9182873000390828,,,,,,,,,,,,,,,,,p301,23,female,left_right_width,2025-11-11_12h37.09.721,exp1,2023.1.0,59.99044951755282,
,,,,,,,,,,,,,,,,3,8.2,10,11.8,0,0,1.7999999999999998,1.4,0.4,4,10,match,36.05,296,361,425,0,0,9,9,9,0,0,,,,,,,4,0,4,0,0,35,35,51,,,,,,,,,,,,,,3,0.5300063000177033,3,0.5,0.35000000000000003,12.61502,return,1.1801635000156239,,,,,,,,,,,,,,,,,p301,23,female,left_right_width,2025-11-11_12h37.09.721,exp1,2023.1.0,59.99044951755282,
,,,,,,,,,,,,,,,,4,8.35,9.45,10.55,11.65,0,1.1,0.7000000000000001,0.4,3.7,10,initial,36.05,301,341,380,420,0,9,9,9,9,0,,,,,,,4,0,4,0,0,36,36,21,,,,,,,,,,,,,,4,0.6367619000375271,4,0.45,0.25000000000000006,9.01073,return,1.1868200000026263,,,,,,,,,,,,,,,,,p301,23,female,left_right_width,2025-11-11_12h37.09.721,exp1,2023.1.0,59.99044951755282,
,,,,,,,,,,,,,,,,3,7.800000000000001,10,12.2,0,0,2.1999999999999997,1.7999999999999998,0.4,4.8,10,match,36.05,281,361,440,0,0,9,9,9,0,0,,,,,,,4,0,4,0,0,37,37,39,,,,,,,,,,,,,,3,1.012829800019972,3,0.45,0.25000000000000006,9.01073,return,1.2593874000012875,,,,,,,,,,,,,,,,,p301,23,female,left_right_width,2025-11-11_12h37.09.721,exp1,2023.1.0,59.99044951755282,
,,,,,,,,,,,,,,,,5,8.65,9.325,10,10.675,11.35,0.675,0.275,0.4,3.1,10,match,36.05,312,336,361,385,409,9,9,9,9,9,,,,,,,4,0,4,0,0,38,38,33,,,,,,,,,,,,,,4,0.7688205000013113,4,0.4,0.25000000000000006,9.01073,return,0.9942631999729201,,,,,,,,,,,,,,,,,p301,23,female,left_right_width,2025-11-11_12h37.09.721,exp1,2023.1.0,59.99044951755282,
,,,,,,,,,,,,,,,,5,8.6,9.3,10,10.7,11.4,0.7,0.1499999999999999,0.55,3.3499999999999996,10,initial,36.05,310,335,361,386,411,9,9,9,9,9,,,,,,,4,0,4,0,0,39,39,40,,,,,,,,,,,,,,4,0.6475396000314504,4,0.4,0.30000000000000004,10.81288,return,1.0993583000381477,,,,,,,,,,,,,,,,,p301,23,female,left_right_width,2025-11-11_12h37.09.721,exp1,2023.1.0,59.99044951755282,
,,,,,,,,,,,,,,,,3,9.3,10,10.7,0,0,0.7,0.44999999999999996,0.25,1.65,10,initial,36.05,335,361,386,0,0,9,9,9,0,0,,,,,,,4,0,4,0,0,40,40,7,,,,,,,,,,,,,,3,0.5614440000499599,3,0.5,0.30000000000000004,10.81288,return,1.2413405999541283,,,,,,,,,,,,,,,,,p301,23,female,left_right_width,2025-11-11_12h37.09.721,exp1,2023.1.0,59.99044951755282,
,,,,,,,,,,,,,,,,4,8.9,9.633333333333333,10.366666666666667,11.1,0,0.7333333333333334,0.4833333333333334,0.25,2.45,10,match,36.05,321,347,374,400,0,9,9,9,9,0,,,,,,,4,0,4,0,0,41,41,3,,,,,,,,,,,,,,4,0.6779968999908306,4,0.2,0.2,7.20859,return,1.1773782000527717,,,,,,,,,,,,,,,,,p301,23,female,left_right_width,2025-11-11_12h37.09.721,exp1,2023.1.0,59.99044951755282,
,,,,,,,,,,,,,,,,4,9.3,9.766666666666667,10.233333333333333,10.7,0,0.4666666666666667,0.21666666666666665,0.25,1.65,10,match,36.05,335,352,369,386,0,9,9,9,9,0,,,,,,,4,0,4,0,0,42,42,8,,,,,,,,,,,,,,4,0.6923119999701157,4,0.25,0.15000000000000002,5.40644,return,1.447231099999044,,,,,,,,,,,,,,,,,p301,23,female,left_right_width,2025-11-11_12h37.09.721,exp1,2023.1.0,59.99044951755282,
,,,,,,,,,,,,,,,,4,8.95,9.65,10.35,11.05,0,0.7,0.29999999999999993,0.4,2.5,10,initial,36.05,323,348,373,398,0,9,9,9,9,0,,,,,,,4,0,4,0,0,43,43,26,,,,,,,,,,,,,,4,0.548453499970492,4,0.2,0.25,9.01073,return,0.9899077999871224,,,,,,,,,,,,,,,,,p301,23,female,left_right_width,2025-11-11_12h37.09.721,exp1,2023.1.0,59.99044951755282,
,,,,,,,,,,,,,,,,4,8.65,9.55,10.45,11.35,0,0.9,0.65,0.25,2.95,10,initial,36.05,312,344,377,409,0,9,9,9,9,0,,,,,,,4,0,4,0,0,44,44,30,,,,,,,,,,,,,,4,0.6050151000381447,4,0.45,0.25000000000000006,9.01073,return,1.1396051000338048,,,,,,,,,,,,,,,,,p301,23,female,left_right_width,2025-11-11_12h37.09.721,exp1,2023.1.0,59.99044951755282,
,,,,,,,,,,,,,,,,4,8.35,9.45,10.55,11.65,0,1.1,0.55,0.55,3.8500000000000005,10,initial,36.05,301,341,380,420,0,9,9,9,9,0,,,,,,,4,0,4,0,0,45,45,17,,,,,,,,,,,,,,4,0.5529934000223875,4,0.2,0.25,9.01073,return,1.5059662000276148,,,,,,,,,,,,,,,,,p301,23,female,left_right_width,2025-11-11_12h37.09.721,exp1,2023.1.0,59.99044951755282,
,,,,,,,,,,,,,,,,3,8.6,10,11.4,0,0,1.4,0.85,0.55,3.35,10,match,36.05,310,361,411,0,0,9,9,9,0,0,,,,,,,4,0,4,0,0,46,46,41,,,,,,,,,,,,,,2,1.0894099000142887,2,0.45,0.45,16.21932,return,1.3819611000362784,,,,,,,,,,,,,,,,,p301,23,female,left_right_width,2025-11-11_12h37.09.721,exp1,2023.1.0,59.99044951755282,
,,,,,,,,,,,,,,,,5,7.8,8.9,10,11.1,12.2,1.1,0.7000000000000001,0.4,4.800000000000001,10,initial,36.05,281,321,361,400,440,9,9,9,9,9,,,,,,,4,0,4,0,0,47,47,38,,,,,,,,,,,,,,4,0.9935192000120878,4,0.35,0.39999999999999997,14.41717,return,1.1772271999507211,,,,,,,,,,,,,,,,,p301,23,female,left_right_width,2025-11-11_12h37.09.721,exp1,2023.1.0,59.99044951755282,
,,,,,,,,,,,,,,,,4,8.825,9.608333333333333,10.391666666666667,11.175,0,0.7833333333333333,0.5333333333333333,0.25,2.6,10,match,36.05,318,346,375,403,0,9,9,9,9,0,,,,,,,4,0,4,0,0,48,48,5,,,,,,,,,,,,,,3,0.7555934999836609,3,0.25,0.3,10.81288,return,1.0436522999661975,,,,,,,,,,,,,,,,,p301,23,female,left_right_width,2025-11-11_12h37.09.721,exp1,2023.1.0,59.99044951755282,
,,,,,,,,,,,,,,,,4,8.9,9.633333333333333,10.366666666666667,11.1,0,0.7333333333333333,0.18333333333333326,0.55,2.75,10,match,36.05,321,347,374,400,0,9,9,9,9,0,,,,,,,4,0,4,0,0,49,49,1,,,,,,,,,,,,,,4,0.7112392999697477,4,0.2,0.3,10.81288,return,1.5142182999989018,,,,,,,,,,,,,,,,,p301,23,female,left_right_width,2025-11-11_12h37.09.721,exp1,2023.1.0,59.99044951755282,
,,,,,,,,,,,,,,,,5,8.65,9.325,10,10.675,11.35,0.675,0.42500000000000004,0.25,2.95,10,match,36.05,312,336,361,385,409,9,9,9,9,9,,,,,,,4,0,4,0,0,50,50,31,,,,,,,,,,,,,,4,0.7425970999756828,4,0.2,0.2,7.20859,return,1.1759358000126667,,,,,,,,,,,,,,,,,p301,23,female,left_right_width,2025-11-11_12h37.09.721,exp1,2023.1.0,59.99044951755282,
,,,,,,,,,,,,,,,,3,8.9,10,11.1,0,0,1.1,0.7000000000000001,0.4,2.6000000000000005,10,initial,36.05,321,361,400,0,0,9,9,9,0,0,,,,,,,4,0,4,0,0,51,51,4,,,,,,,,,,,,,,2,1.0178892000112683,2,0.25,0.3,10.81288,return,1.2318560000276193,,,,,,,,,,,,,,,,,p301,23,female,left_right_width,2025-11-11_12h37.09.721,exp1,2023.1.0,59.99044951755282,
,,,,,,,,,,,,,,,,,,,,,,,,,,,,,,,,,,,,,,,,,,,,,4,0,4,0,,,,,,,,,,,,,,,,,,,,,,,,,,,,2003.7254815999768,2003.7254815999768,2003.7254815999768,,,,,,,,,,,,p301,23,female,left_right_width,2025-11-11_12h37.09.721,exp1,2023.1.0,59.99044951755282,
,,,,,,,,,,,,,,,,5,7.8,8.9,10,11.1,12.2,1.1,0.55,0.55,4.95,10,initial,36.05,281,321,361,400,440,9,9,9,9,9,,,,,,,5,0,5,0,0,0,0,34,,,,,,,,,,,,,,4,0.8048978999722749,4,0.45,0.35000000000000003,12.61502,return,1.2192933999467641,,,,,,,,,,,,,,,,,p301,23,female,left_right_width,2025-11-11_12h37.09.721,exp1,2023.1.0,59.99044951755282,
,,,,,,,,,,,,,,,,5,7.8,8.9,10,11.1,12.2,1.1,0.8500000000000001,0.25,4.65,10,initial,36.05,281,321,361,400,440,9,9,9,9,9,,,,,,,5,0,5,0,0,1,1,36,,,,,,,,,,,,,,4,0.8600966000230983,4,0.25,0.3,10.81288,return,1.0969031999702565,,,,,,,,,,,,,,,,,p301,23,female,left_right_width,2025-11-11_12h37.09.721,exp1,2023.1.0,59.99044951755282,
,,,,,,,,,,,,,,,,5,8.65,9.325,10,10.675,11.35,0.675,0.42500000000000004,0.25,2.95,10,match,36.05,312,336,361,385,409,9,9,9,9,9,,,,,,,5,0,5,0,0,2,2,31,,,,,,,,,,,,,,4,0.7877032000105828,4,0.35,0.2,7.20859,return,0.9784975999500602,,,,,,,,,,,,,,,,,p301,23,female,left_right_width,2025-11-11_12h37.09.721,exp1,2023.1.0,59.99044951755282,
,,,,,,,,,,,,,,,,5,8.95,9.475,10,10.525,11.05,0.525,0.275,0.25,2.35,10,match,36.05,323,342,361,379,398,9,9,9,9,9,,,,,,,5,0,5,0,0,3,3,25,,,,,,,,,,,,,,4,0.7517639999859966,4,0.45,0.25000000000000006,9.01073,return,1.3600480000022799,,,,,,,,,,,,,,,,,p301,23,female,left_right_width,2025-11-11_12h37.09.721,exp1,2023.1.0,59.99044951755282,
,,,,,,,,,,,,,,,,4,8.65,9.55,10.45,11.35,0,0.9,0.35,0.55,3.25,10,initial,36.05,312,344,377,409,0,9,9,9,9,0,,,,,,,5,0,5,0,0,4,4,28,,,,,,,,,,,,,,3,0.5822974999900907,3,0.3,0.35,12.61502,return,1.1658834000118077,,,,,,,,,,,,,,,,,p301,23,female,left_right_width,2025-11-11_12h37.09.721,exp1,2023.1.0,59.99044951755282,
,,,,,,,,,,,,,,,,4,8.9,9.633333333333333,10.366666666666667,11.1,0,0.7333333333333334,0.4833333333333334,0.25,2.45,10,match,36.05,321,347,374,400,0,9,9,9,9,0,,,,,,,5,0,5,0,0,5,5,3,,,,,,,,,,,,,,4,1.0491992999450304,4,0.2,0.25,9.01073,return,1.2788988999673165,,,,,,,,,,,,,,,,,p301,23,female,left_right_width,2025-11-11_12h37.09.721,exp1,2023.1.0,59.99044951755282,
,,,,,,,,,,,,,,,,3,9.3,10,10.7,0,0,0.7,0.44999999999999996,0.25,1.65,10,initial,36.05,335,361,386,0,0,9,9,9,0,0,,,,,,,5,0,5,0,0,6,6,7,,,,,,,,,,,,,,2,0.8657527000177652,2,0.4,0.20000000000000007,7.20859,return,1.2154412000090815,,,,,,,,,,,,,,,,,p301,23,female,left_right_width,2025-11-11_12h37.09.721,exp1,2023.1.0,59.99044951755282,
,,,,,,,,,,,,,,,,5,8.35,9.175,10,10.825,11.65,0.8250000000000001,0.275,0.55,3.85,10,match,36.05,301,331,361,390,420,9,9,9,9,9,,,,,,,5,0,5,0,0,7,7,18,,,,,,,,,,,,,,4,0.8400492999935523,4,0.5,0.4,14.41717,return,1.6048588000121526,,,,,,,,,,,,,,,,,p301,23,female,left_right_width,2025-11-11_12h37.09.721,exp1,2023.1.0,59.99044951755282,
,,,,,,,,,,,,,,,,3,9.3,10,10.7,0,0,0.7,0.1499999999999999,0.55,1.95,10,initial,36.05,335,361,386,0,0,9,9,9,0,0,,,,,,,5,0,5,0,0,8,8,6,,,,,,,,,,,,,,2,0.8140975999995135,2,0.55,0.4,14.41717,return,1.2445488000521436,,,,,,,,,,,,,,,,,p301,23,female,left_right_width,2025-11-11_12h37.09.721,exp1,2023.1.0,59.99044951755282,
,,,,,,,,,,,,,,,,4,8.35,9.45,10.55,11.65,0,1.1,0.55,0.55,3.8500000000000005,10,initial,36.05,301,341,380,420,0,9,9,9,9,0,,,,,,,5,0,5,0,0,9,9,17,,,,,,,,,,,,,,3,0.6636386000318453,3,0.35,0.35,12.61502,return,1.0850831000134349,,,,,,,,,,,,,,,,,p301,23,female,left_right_width,2025-11-11_12h37.09.721,exp1,2023.1.0,59.99044951755282,
,,,,,,,,,,,,,,,,3,8.9,10,11.1,0,0,1.1,0.55,0.55,2.75,10,initial,36.05,321,361,400,0,0,9,9,9,0,0,,,,,,,5,0,5,0,0,10,10,0,,,,,,,,,,,,,,2,0.8347689000074752,2,0.25,0.35,12.61502,return,1.408062299946323,,,,,,,,,,,,,,,,,p301,23,female,left_right_width,2025-11-11_12h37.09.721,exp1,2023.1.0,59.99044951755282,
,,,,,,,,,,,,,,,,5,7.8,8.9,10,11.1,12.2,1.1,0.7000000000000001,0.4,4.800000000000001,10,initial,36.05,281,321,361,400,440,9,9,9,9,9,,,,,,,5,0,5,0,0,11,11,38,,,,,,,,,,,,,,4,1.439228200004436,4,0.35,0.25,9.01073,return,1.1254748000064865,,,,,,,,,,,,,,,,,p301,23,female,left_right_width,2025-11-11_12h37.09.721,exp1,2023.1.0,59.99044951755282,
,,,,,,,,,,,,,,,,3,8.525,10,11.475,0,0,1.475,1.225,0.25,3.2,10,match,36.05,307,361,414,0,0,9,9,9,0,0,,,,,,,5,0,5,0,0,12,12,45,,,,,,,,,,,,,,2,0.8628344000317156,2,0.45,0.30000000000000004,10.81288,return,1.0516393999569118,,,,,,,,,,,,,,,,,p301,23,female,left_right_width,2025-11-11_12h37.09.721,exp1,2023.1.0,59.99044951755282,
,,,,,,,,,,,,,,,,4,8.95,9.65,10.35,11.05,0,0.7,0.29999999999999993,0.4,2.5,10,initial,36.05,323,348,373,398,0,9,9,9,9,0,,,,,,,5,0,5,0,0,13,13,26,,,,,,,,,,,,,,3,0.6866049999953248,3,0.4,0.30000000000000004,10.81288,return,1.8253857999807224,,,,,,,,,,,,,,,,,p301,23,female,left_right_width,2025-11-11_12h37.09.721,exp1,2023.1.0,59.99044951755282,
,,,,,,,,,,,,,,,,4,9.1,9.7,10.3,10.9,0,0.6000000000000001,0.20000000000000004,0.4,2.2,10,match,36.05,328,350,371,393,0,9,9,9,9,0,,,,,,,5,0,5,0,0,14,14,16,,,,,,,,,,,,,,3,0.607284499972593,3,0.3,0.3,10.81288,return,1.494789500022307,,,,,,,,,,,,,,,,,p301,23,female,left_right_width,2025-11-11_12h37.09.721,exp1,2023.1.0,59.99044951755282,
,,,,,,,,,,,,,,,,4,8.65,9.55,10.45,11.35,0,0.9,0.5,0.4,3.1,10,initial,36.05,312,344,377,409,0,9,9,9,9,0,,,,,,,5,0,5,0,0,15,15,32,,,,,,,,,,,,,,3,0.6514232999761589,3,0.55,0.30000000000000004,10.81288,return,1.6159497000044212,,,,,,,,,,,,,,,,,p301,23,female,left_right_width,2025-11-11_12h37.09.721,exp1,2023.1.0,59.99044951755282,
,,,,,,,,,,,,,,,,3,8.6,10,11.4,0,0,1.4,0.85,0.55,3.35,10,match,36.05,310,361,411,0,0,9,9,9,0,0,,,,,,,5,0,5,0,0,16,16,41,,,,,,,,,,,,,,2,1.2825836999691091,2,0.35,0.39999999999999997,14.41717,return,0.9749756000237539,,,,,,,,,,,,,,,,,p301,23,female,left_right_width,2025-11-11_12h37.09.721,exp1,2023.1.0,59.99044951755282,
,,,,,,,,,,,,,,,,5,8.275,9.1375,10,10.8625,11.725,0.8625,0.6125,0.25,3.7,10,match,36.05,298,329,361,392,423,9,9,9,9,9,,,,,,,5,0,5,0,0,17,17,22,,,,,,,,,,,,,,4,1.5921143000014126,4,0.35,0.25,9.01073,return,0.9992837999598123,,,,,,,,,,,,,,,,,p301,23,female,left_right_width,2025-11-11_12h37.09.721,exp1,2023.1.0,59.99044951755282,
,,,,,,,,,,,,,,,,4,8.9,9.633333333333333,10.366666666666667,11.1,0,0.7333333333333333,0.18333333333333326,0.55,2.75,10,match,36.05,321,347,374,400,0,9,9,9,9,0,,,,,,,5,0,5,0,0,18,18,1,,,,,,,,,,,,,,3,0.5940137000288814,3,0.2,0.3,10.81288,return,1.6561640999861993,,,,,,,,,,,,,,,,,p301,23,female,left_right_width,2025-11-11_12h37.09.721,exp1,2023.1.0,59.99044951755282,
,,,,,,,,,,,,,,,,4,8.35,9.45,10.55,11.65,0,1.1,0.8500000000000001,0.25,3.5500000000000003,10,initial,36.05,301,341,380,420,0,9,9,9,9,0,,,,,,,5,0,5,0,0,19,19,19,,,,,,,,,,,,,,3,0.6798666000249796,3,0.4,0.25000000000000006,9.01073,return,1.195574899960775,,,,,,,,,,,,,,,,,p301,23,female,left_right_width,2025-11-11_12h37.09.721,exp1,2023.1.0,59.99044951755282,
,,,,,,,,,,,,,,,,5,8.2,9.1,10,10.9,11.8,0.9,0.35,0.55,4.15,10,initial,36.05,296,328,361,393,425,9,9,9,9,9,,,,,,,5,0,5,0,0,20,20,46,,,,,,,,,,,,,,4,0.5840669000172056,4,0.45,0.30000000000000004,10.81288,return,1.7594815000193194,,,,,,,,,,,,,,,,,p301,23,female,left_right_width,2025-11-11_12h37.09.721,exp1,2023.1.0,59.99044951755282,
,,,,,,,,,,,,,,,,3,8.9,10,11.1,0,0,1.1,0.7000000000000001,0.4,2.6000000000000005,10,initial,36.05,321,361,400,0,0,9,9,9,0,0,,,,,,,5,0,5,0,0,21,21,4,,,,,,,,,,,,,,3,0.6664826999767683,3,0.2,0.3,10.81288,return,1.599656899983529,,,,,,,,,,,,,,,,,p301,23,female,left_right_width,2025-11-11_12h37.09.721,exp1,2023.1.0,59.99044951755282,
,,,,,,,,,,,,,,,,4,9.1,9.7,10.3,10.9,0,0.6,0.04999999999999997,0.55,2.35,10,match,36.05,328,350,371,393,0,9,9,9,9,0,,,,,,,5,0,5,0,0,22,22,12,,,,,,,,,,,,,,3,0.6683821999467909,3,0.55,0.4,14.41717,return,1.1844096999848261,,,,,,,,,,,,,,,,,p301,23,female,left_right_width,2025-11-11_12h37.09.721,exp1,2023.1.0,59.99044951755282,
