amount_p,posx1_p,posx2_p,posx3_p,posx4_p,posx5_p,center_to_center_p,edge_to_edge_p,w_p,stim_lengt_p,eccentricity_p,line1_p,line2_p,line3_p,line4_p,line5_p,amount,posx1,posx2,posx3,posx4,posx5,center_to_center,edge_to_edge,w,stim_length,eccentricity,trial_type,deg_to_pix_index,posx1_in_pix,posx2_in_pix,posx3_in_pix,posx4_in_pix,posx5_in_pix,line1,line2,line3,line4,line5,posx,setsize_cobdi,trials.thisRepN,trials.thisTrialN,trials.thisN,trials.thisIndex,blocks.thisRepN,blocks.thisTrialN,blocks.thisN,blocks.thisIndex,loop.thisRepN,loop.thisTrialN,loop.thisN,loop.thisIndex,first.thisRepN,first.thisTrialN,first.thisN,first.thisIndex,second.thisRepN,second.thisTrialN,second.thisN,second.thisIndex,thisRow.t,notes,key_resp_3.started,key_resp_3.keys,key_resp_3.rt,key_resp.keys,key_resp.rt,response,starting_width_deg,response_width_degree,response_width_pixel,next_5.keys,next_5.rt,key_resp_4.keys,key_resp_4.rt,text_3.started,text_4.started,key_resp_2.started,text_2.started,key_resp_2.keys,key_resp_2.rt,adjusting.started,next.keys,next.rt,text_control2.started,key_resp.started,key_resp.corr,text_bye.started,text_bye.stopped,participant,age,gender,resp_group,date,expName,psychopyVersion,frameRate,
,,,,,,,,,,,,,,,,,,,,,,,,,,,,,,,,,,,,,,,,,,,,,,,,,,,,,,,,,,,,,,,350.38905850000447,c,160.33370190003188,,,,,,,,,,,,,,,,,,,,,,,,,p301,19,female,up_down_width,2025-12-09_11h37.49.566,exp1,2023.1.0,59.96336238583155,
3,9.5,10,10.5,0,0,0.5,0.4,0.1,1.1,10,9,9,9,0,0,,,,,,,,,,,,,,,,,,,,,,,,,,0,0,0,0,,,,,,,,,,,,,,,,,,,,,,3,3.6019454000052065,3,0.35,0.15000000000000002,5.40644,return,5.200854800001252,,,,,,,,,,,,,,,,,p301,19,female,up_down_width,2025-12-09_11h37.49.566,exp1,2023.1.0,59.96336238583155,
3,8.2,10,11.8,0,0,1.7999999999999998,1.4,0.4,4,10,9,9,9,0,0,,,,,,,,,,,,,,,,,,,,,,,,,,0,1,1,2,,,,,,,,,,,,,,,,,,,,,,2,1.6462619000230916,2,0.4,0.35000000000000003,12.61502,return,3.1478176999953575,,,,,,,,,,,,,,,,,p301,19,female,up_down_width,2025-12-09_11h37.49.566,exp1,2023.1.0,59.96336238583155,
4,8.65,9.55,10.45,11.35,0,0.9,0.5,0.4,3.1,10,9,9,9,9,0,,,,,,,,,,,,,,,,,,,,,,,,,,0,2,2,5,,,,,,,,,,,,,,,,,,,,,,4,1.6551344000035897,4,0.45,0.30000000000000004,10.81288,return,3.219472099968698,,,,,,,,,,,,,,,,,p301,19,female,up_down_width,2025-12-09_11h37.49.566,exp1,2023.1.0,59.96336238583155,
3,9,10,11,0,0,1,0.9,0.1,2.1,10,9,9,9,0,0,,,,,,,,,,,,,,,,,,,,,,,,,,0,3,3,1,,,,,,,,,,,,,,,,,,,,,,2,1.4880673000006936,2,0.5,0.10000000000000007,3.60429,return,3.9554716999991797,,,,,,,,,,,,,,,,,p301,19,female,up_down_width,2025-12-09_11h37.49.566,exp1,2023.1.0,59.96336238583155,
5,9,9.5,10,10.5,11,0.5,0.09999999999999998,0.4,2.4,10,9,9,9,9,9,,,,,,,,,,,,,,,,,,,,,,,,,,0,4,4,8,,,,,,,,,,,,,,,,,,,,,,3,1.7991662000422366,3,0.25,0.35,12.61502,return,3.311829200014472,,,,,,,,,,,,,,,,,p301,19,female,up_down_width,2025-12-09_11h37.49.566,exp1,2023.1.0,59.96336238583155,
5,9.25,9.625,10,10.375,10.75,0.375,0.125,0.25,1.75,10,9,9,9,9,9,,,,,,,,,,,,,,,,,,,,,,,,,,0,5,5,6,,,,,,,,,,,,,,,,,,,,,,4,2.6695976000046358,4,0.4,0.25000000000000006,9.01073,return,2.2257209999952465,,,,,,,,,,,,,,,,,p301,19,female,up_down_width,2025-12-09_11h37.49.566,exp1,2023.1.0,59.96336238583155,
4,9.5,9.833333333333334,10.166666666666666,10.5,0,0.33333333333333337,0.23333333333333336,0.1,1.1,10,9,9,9,9,0,,,,,,,,,,,,,,,,,,,,,,,,,,0,6,6,3,,,,,,,,,,,,,,,,,,,,,,4,2.656181700003799,4,0.55,0.20000000000000007,7.20859,return,5.0128331000451,,,,,,,,,,,,,,,,,p301,19,female,up_down_width,2025-12-09_11h37.49.566,exp1,2023.1.0,59.96336238583155,
4,9.25,9.75,10.25,10.75,0,0.5,0.25,0.25,1.75,10,9,9,9,9,0,,,,,,,,,,,,,,,,,,,,,,,,,,0,7,7,4,,,,,,,,,,,,,,,,,,,,,,5,4.271345300017856,5,0.55,0.25000000000000006,9.01073,return,4.275858799985144,,,,,,,,,,,,,,,,,p301,19,female,up_down_width,2025-12-09_11h37.49.566,exp1,2023.1.0,59.96336238583155,
5,8.6,9.3,10,10.7,11.4,0.7,0.29999999999999993,0.4,3.1999999999999997,10,9,9,9,9,9,,,,,,,,,,,,,,,,,,,,,,,,,,0,8,8,7,,,,,,,,,,,,,,,,,,,,,,4,1.6048253999906592,4,0.35,0.3,10.81288,return,1.7954845000058413,,,,,,,,,,,,,,,,,p301,19,female,up_down_width,2025-12-09_11h37.49.566,exp1,2023.1.0,59.96336238583155,
,,,,,,,,,,,,,,,,,,,,,,,,,,,,,,,,,,,,,,,,,,,,,,,,,,,,,,,,,,,,,,,,,,,,,,,,,,c,102.66607749997638,,,,,,,,,,,,,,,p301,19,female,up_down_width,2025-12-09_11h37.49.566,exp1,2023.1.0,59.96336238583155,
,,,,,,,,,,,,,,,,4,8.9,9.633333333333333,10.366666666666667,11.1,0,0.7333333333333333,0.18333333333333326,0.55,2.75,10,match,36.05,321,347,374,400,0,9,9,9,9,0,,,,,,,0,0,0,0,0,0,0,1,,,,,,,,,,,,,,3,2.1491579999565147,3,0.3,0.44999999999999996,16.21932,return,3.615239400009159,,,,,,,,,,,,,,,,,p301,19,female,up_down_width,2025-12-09_11h37.49.566,exp1,2023.1.0,59.96336238583155,
,,,,,,,,,,,,,,,,3,8.2,10,11.8,0,0,1.8,1.55,0.25,3.85,10,match,36.05,296,361,425,0,0,9,9,9,0,0,,,,,,,0,0,0,0,0,1,1,49,,,,,,,,,,,,,,3,1.4884073000284843,3,0.45,0.25000000000000006,9.01073,return,2.387806399958208,,,,,,,,,,,,,,,,,p301,19,female,up_down_width,2025-12-09_11h37.49.566,exp1,2023.1.0,59.96336238583155,
,,,,,,,,,,,,,,,,5,8.2,9.1,10,10.9,11.8,0.9,0.35,0.55,4.15,10,initial,36.05,296,328,361,393,425,9,9,9,9,9,,,,,,,0,0,0,0,0,2,2,46,,,,,,,,,,,,,,5,2.113000000012107,5,0.4,0.4,14.41717,return,3.1635238000308163,,,,,,,,,,,,,,,,,p301,19,female,up_down_width,2025-12-09_11h37.49.566,exp1,2023.1.0,59.96336238583155,
,,,,,,,,,,,,,,,,4,8.65,9.55,10.45,11.35,0,0.9,0.65,0.25,2.95,10,initial,36.05,312,344,377,409,0,9,9,9,9,0,,,,,,,0,0,0,0,0,3,3,30,,,,,,,,,,,,,,3,2.9902969999820925,3,0.3,0.25,9.01073,return,1.557812399987597,,,,,,,,,,,,,,,,,p301,19,female,up_down_width,2025-12-09_11h37.49.566,exp1,2023.1.0,59.96336238583155,
,,,,,,,,,,,,,,,,3,7.8,10,12.2,0,0,2.2,1.9500000000000002,0.25,4.65,10,match,36.05,281,361,440,0,0,9,9,9,0,0,,,,,,,0,0,0,0,0,4,4,37,,,,,,,,,,,,,,2,1.8964922000304796,2,0.35,0.35,12.61502,return,2.315358499996364,,,,,,,,,,,,,,,,,p301,19,female,up_down_width,2025-12-09_11h37.49.566,exp1,2023.1.0,59.96336238583155,
,,,,,,,,,,,,,,,,4,9.3,9.766666666666667,10.233333333333333,10.7,0,0.4666666666666667,0.21666666666666665,0.25,1.65,10,match,36.05,335,352,369,386,0,9,9,9,9,0,,,,,,,0,0,0,0,0,5,5,8,,,,,,,,,,,,,,4,3.073894699977245,4,0.5,0.30000000000000004,10.81288,return,4.901256100041792,,,,,,,,,,,,,,,,,p301,19,female,up_down_width,2025-12-09_11h37.49.566,exp1,2023.1.0,59.96336238583155,
,,,,,,,,,,,,,,,,4,8.65,9.55,10.45,11.35,0,0.9,0.5,0.4,3.1,10,initial,36.05,312,344,377,409,0,9,9,9,9,0,,,,,,,0,0,0,0,0,6,6,32,,,,,,,,,,,,,,3,2.9010237000184134,3,0.25,0.39999999999999997,14.41717,return,2.3841039999970235,,,,,,,,,,,,,,,,,p301,19,female,up_down_width,2025-12-09_11h37.49.566,exp1,2023.1.0,59.96336238583155,
,,,,,,,,,,,,,,,,5,8.35,9.175,10,10.825,11.65,0.825,0.575,0.25,3.55,10,match,36.05,301,331,361,390,420,9,9,9,9,9,,,,,,,0,0,0,0,0,7,7,20,,,,,,,,,,,,,,4,2.754925400018692,4,0.25,0.3,10.81288,return,2.9492710000486113,,,,,,,,,,,,,,,,,p301,19,female,up_down_width,2025-12-09_11h37.49.566,exp1,2023.1.0,59.96336238583155,
,,,,,,,,,,,,,,,,4,8.65,9.55,10.45,11.35,0,0.9,0.35,0.55,3.25,10,initial,36.05,312,344,377,409,0,9,9,9,9,0,,,,,,,0,0,0,0,0,8,8,28,,,,,,,,,,,,,,4,2.284732799977064,4,0.2,0.3,10.81288,return,3.8228404999827035,,,,,,,,,,,,,,,,,p301,19,female,up_down_width,2025-12-09_11h37.49.566,exp1,2023.1.0,59.96336238583155,
,,,,,,,,,,,,,,,,5,7.8,8.9,10,11.1,12.2,1.1,0.8500000000000001,0.25,4.65,10,initial,36.05,281,321,361,400,440,9,9,9,9,9,,,,,,,0,0,0,0,0,9,9,36,,,,,,,,,,,,,,4,1.9507142000366002,4,0.3,0.2,7.20859,return,1.9192437000456266,,,,,,,,,,,,,,,,,p301,19,female,up_down_width,2025-12-09_11h37.49.566,exp1,2023.1.0,59.96336238583155,
,,,,,,,,,,,,,,,,5,8.65,9.325,10,10.675,11.35,0.675,0.275,0.4,3.1,10,match,36.05,312,336,361,385,409,9,9,9,9,9,,,,,,,0,0,0,0,0,10,10,33,,,,,,,,,,,,,,4,5.635839800001122,4,0.5,0.30000000000000004,10.81288,return,2.0494991000159644,,,,,,,,,,,,,,,,,p301,19,female,up_down_width,2025-12-09_11h37.49.566,exp1,2023.1.0,59.96336238583155,
,,,,,,,,,,,,,,,,4,9.1,9.7,10.3,10.9,0,0.6000000000000001,0.20000000000000004,0.4,2.2,10,match,36.05,328,350,371,393,0,9,9,9,9,0,,,,,,,0,0,0,0,0,11,11,16,,,,,,,,,,,,,,4,1.207004500029143,4,0.4,0.30000000000000004,10.81288,return,1.5575151999946684,,,,,,,,,,,,,,,,,p301,19,female,up_down_width,2025-12-09_11h37.49.566,exp1,2023.1.0,59.96336238583155,
,,,,,,,,,,,,,,,,3,7.8,10,12.2,0,0,2.2,1.65,0.55,4.95,10,match,36.05,281,361,440,0,0,9,9,9,0,0,,,,,,,0,0,0,0,0,12,12,35,,,,,,,,,,,,,,3,1.3744344000006095,3,0.55,0.5,18.02146,return,2.660942899994552,,,,,,,,,,,,,,,,,p301,19,female,up_down_width,2025-12-09_11h37.49.566,exp1,2023.1.0,59.96336238583155,
,,,,,,,,,,,,,,,,4,8.825,9.608333333333333,10.391666666666667,11.175,0,0.7833333333333333,0.5333333333333333,0.25,2.6,10,match,36.05,318,346,375,403,0,9,9,9,9,0,,,,,,,0,0,0,0,0,13,13,5,,,,,,,,,,,,,,3,2.4184607000206597,3,0.3,0.3,10.81288,return,4.800947599986102,,,,,,,,,,,,,,,,,p301,19,female,up_down_width,2025-12-09_11h37.49.566,exp1,2023.1.0,59.96336238583155,
,,,,,,,,,,,,,,,,4,8.35,9.45,10.55,11.65,0,1.1,0.55,0.55,3.8500000000000005,10,initial,36.05,301,341,380,420,0,9,9,9,9,0,,,,,,,0,0,0,0,0,14,14,17,,,,,,,,,,,,,,4,2.334605999989435,4,0.3,0.35,12.61502,return,2.8955317999934778,,,,,,,,,,,,,,,,,p301,19,female,up_down_width,2025-12-09_11h37.49.566,exp1,2023.1.0,59.96336238583155,
,,,,,,,,,,,,,,,,3,9.3,10,10.7,0,0,0.7,0.44999999999999996,0.25,1.65,10,initial,36.05,335,361,386,0,0,9,9,9,0,0,,,,,,,0,0,0,0,0,15,15,7,,,,,,,,,,,,,,2,1.4636593000032008,2,0.45,0.30000000000000004,10.81288,return,1.9174232000368647,,,,,,,,,,,,,,,,,p301,19,female,up_down_width,2025-12-09_11h37.49.566,exp1,2023.1.0,59.96336238583155,
,,,,,,,,,,,,,,,,3,8.525,10,11.475,0,0,1.475,1.225,0.25,3.2,10,match,36.05,307,361,414,0,0,9,9,9,0,0,,,,,,,0,0,0,0,0,16,16,45,,,,,,,,,,,,,,2,1.427808600012213,2,0.55,0.15000000000000008,5.40644,return,5.834184399980586,,,,,,,,,,,,,,,,,p301,19,female,up_down_width,2025-12-09_11h37.49.566,exp1,2023.1.0,59.96336238583155,
,,,,,,,,,,,,,,,,3,8.9,10,11.1,0,0,1.1,0.7000000000000001,0.4,2.6000000000000005,10,initial,36.05,321,361,400,0,0,9,9,9,0,0,,,,,,,0,0,0,0,0,17,17,4,,,,,,,,,,,,,,2,1.7904929000069387,2,0.35,0.35,12.61502,return,1.4132735999883153,,,,,,,,,,,,,,,,,p301,19,female,up_down_width,2025-12-09_11h37.49.566,exp1,2023.1.0,59.96336238583155,
,,,,,,,,,,,,,,,,3,8.2,10,11.8,0,0,1.8,1.25,0.55,4.15,10,match,36.05,296,361,425,0,0,9,9,9,0,0,,,,,,,0,0,0,0,0,18,18,47,,,,,,,,,,,,,,3,1.7098722000373527,3,0.2,0.44999999999999996,16.21932,return,3.896294599981047,,,,,,,,,,,,,,,,,p301,19,female,up_down_width,2025-12-09_11h37.49.566,exp1,2023.1.0,59.96336238583155,
,,,,,,,,,,,,,,,,5,8.95,9.475,10,10.525,11.05,0.525,0.125,0.4,2.5,10,match,36.05,323,342,361,379,398,9,9,9,9,9,,,,,,,0,0,0,0,0,19,19,27,,,,,,,,,,,,,,5,3.0133663000306115,5,0.55,0.35000000000000003,12.61502,return,6.204457000014372,,,,,,,,,,,,,,,,,p301,19,female,up_down_width,2025-12-09_11h37.49.566,exp1,2023.1.0,59.96336238583155,
,,,,,,,,,,,,,,,,3,8.9,10,11.1,0,0,1.1,0.55,0.55,2.75,10,initial,36.05,321,361,400,0,0,9,9,9,0,0,,,,,,,0,0,0,0,0,20,20,0,,,,,,,,,,,,,,2,1.90910700004315,2,0.5,0.4,14.41717,return,2.9688015999854542,,,,,,,,,,,,,,,,,p301,19,female,up_down_width,2025-12-09_11h37.49.566,exp1,2023.1.0,59.96336238583155,
,,,,,,,,,,,,,,,,4,9.1,9.7,10.3,10.9,0,0.6,0.04999999999999997,0.55,2.35,10,match,36.05,328,350,371,393,0,9,9,9,9,0,,,,,,,0,0,0,0,0,21,21,12,,,,,,,,,,,,,,3,2.40846700000111,3,0.3,0.49999999999999994,18.02146,return,3.1743489999789745,,,,,,,,,,,,,,,,,p301,19,female,up_down_width,2025-12-09_11h37.49.566,exp1,2023.1.0,59.96336238583155,
,,,,,,,,,,,,,,,,4,9.1,9.7,10.3,10.9,0,0.5999999999999999,0.3499999999999999,0.25,2.05,10,match,36.05,328,350,371,393,0,9,9,9,9,0,,,,,,,0,0,0,0,0,22,22,14,,,,,,,,,,,,,,4,2.232141899992712,4,0.3,0.2,7.20859,return,2.718392899958417,,,,,,,,,,,,,,,,,p301,19,female,up_down_width,2025-12-09_11h37.49.566,exp1,2023.1.0,59.96336238583155,
,,,,,,,,,,,,,,,,4,8.95,9.65,10.35,11.05,0,0.7,0.44999999999999996,0.25,2.3499999999999996,10,initial,36.05,323,348,373,398,0,9,9,9,9,0,,,,,,,0,0,0,0,0,23,23,24,,,,,,,,,,,,,,5,2.501176400051918,5,0.2,0.2,7.20859,return,1.679835600021761,,,,,,,,,,,,,,,,,p301,19,female,up_down_width,2025-12-09_11h37.49.566,exp1,2023.1.0,59.96336238583155,
,,,,,,,,,,,,,,,,3,8.6,10,11.4,0,0,1.4,0.85,0.55,3.35,10,match,36.05,310,361,411,0,0,9,9,9,0,0,,,,,,,0,0,0,0,0,24,24,41,,,,,,,,,,,,,,2,1.8759492000099272,2,0.25,0.39999999999999997,14.41717,return,2.6797268000082113,,,,,,,,,,,,,,,,,p301,19,female,up_down_width,2025-12-09_11h37.49.566,exp1,2023.1.0,59.96336238583155,
,,,,,,,,,,,,,,,,3,9.1,10,10.9,0,0,0.9,0.35,0.55,2.35,10,initial,36.05,328,361,393,0,0,9,9,9,0,0,,,,,,,0,0,0,0,0,25,25,11,,,,,,,,,,,,,,2,1.5230754999793135,2,0.2,0.39999999999999997,14.41717,return,4.276816199999303,,,,,,,,,,,,,,,,,p301,19,female,up_down_width,2025-12-09_11h37.49.566,exp1,2023.1.0,59.96336238583155,
,,,,,,,,,,,,,,,,5,8.6,9.3,10,10.7,11.4,0.7,0.29999999999999993,0.4,3.1999999999999997,10,initial,36.05,310,335,361,386,411,9,9,9,9,9,,,,,,,0,0,0,0,0,26,26,44,,,,,,,,,,,,,,5,2.0609407000010833,5,0.55,0.4,14.41717,return,2.746460599999409,,,,,,,,,,,,,,,,,p301,19,female,up_down_width,2025-12-09_11h37.49.566,exp1,2023.1.0,59.96336238583155,
,,,,,,,,,,,,,,,,5,8.95,9.475,10,10.525,11.05,0.525,0.275,0.25,2.35,10,match,36.05,323,342,361,379,398,9,9,9,9,9,,,,,,,0,0,0,0,0,27,27,25,,,,,,,,,,,,,,5,1.7783090000157245,5,0.45,0.25000000000000006,9.01073,return,2.315734000003431,,,,,,,,,,,,,,,,,p301,19,female,up_down_width,2025-12-09_11h37.49.566,exp1,2023.1.0,59.96336238583155,
,,,,,,,,,,,,,,,,5,8.65,9.325,10,10.675,11.35,0.675,0.42500000000000004,0.25,2.95,10,match,36.05,312,336,361,385,409,9,9,9,9,9,,,,,,,0,0,0,0,0,28,28,31,,,,,,,,,,,,,,5,1.0736446999944746,5,0.55,0.25000000000000006,9.01073,return,5.4455134000163525,,,,,,,,,,,,,,,,,p301,19,female,up_down_width,2025-12-09_11h37.49.566,exp1,2023.1.0,59.96336238583155,
,,,,,,,,,,,,,,,,3,8.2,10,11.8,0,0,1.7999999999999998,1.4,0.4,4,10,match,36.05,296,361,425,0,0,9,9,9,0,0,,,,,,,0,0,0,0,0,29,29,51,,,,,,,,,,,,,,2,2.671739000012167,2,0.45,0.4,14.41717,return,1.8272331999614835,,,,,,,,,,,,,,,,,p301,19,female,up_down_width,2025-12-09_11h37.49.566,exp1,2023.1.0,59.96336238583155,
,,,,,,,,,,,,,,,,3,9.1,10,10.9,0,0,0.9,0.65,0.25,2.05,10,initial,36.05,328,361,393,0,0,9,9,9,0,0,,,,,,,0,0,0,0,0,30,30,13,,,,,,,,,,,,,,2,0.9069292999920435,2,0.25,0.3,10.81288,return,4.053803099959623,,,,,,,,,,,,,,,,,p301,19,female,up_down_width,2025-12-09_11h37.49.566,exp1,2023.1.0,59.96336238583155,
,,,,,,,,,,,,,,,,4,9.3,9.766666666666667,10.233333333333333,10.7,0,0.4666666666666667,0.06666666666666665,0.4,1.8,10,match,36.05,335,352,369,386,0,9,9,9,9,0,,,,,,,0,0,0,0,0,31,31,10,,,,,,,,,,,,,,3,1.2806233000010252,3,0.55,0.35000000000000003,12.61502,return,3.8199370999936946,,,,,,,,,,,,,,,,,p301,19,female,up_down_width,2025-12-09_11h37.49.566,exp1,2023.1.0,59.96336238583155,
,,,,,,,,,,,,,,,,5,7.8,8.9,10,11.1,12.2,1.1,0.55,0.55,4.95,10,initial,36.05,281,321,361,400,440,9,9,9,9,9,,,,,,,0,0,0,0,0,32,32,34,,,,,,,,,,,,,,4,1.9907176999840885,4,0.25,0.44999999999999996,16.21932,return,2.741983200015966,,,,,,,,,,,,,,,,,p301,19,female,up_down_width,2025-12-09_11h37.49.566,exp1,2023.1.0,59.96336238583155,
,,,,,,,,,,,,,,,,4,8.35,9.45,10.55,11.65,0,1.1,0.8500000000000001,0.25,3.5500000000000003,10,initial,36.05,301,341,380,420,0,9,9,9,9,0,,,,,,,0,0,0,0,0,33,33,19,,,,,,,,,,,,,,3,2.4972131000249647,3,0.5,0.25000000000000006,9.01073,return,2.5406119999825023,,,,,,,,,,,,,,,,,p301,19,female,up_down_width,2025-12-09_11h37.49.566,exp1,2023.1.0,59.96336238583155,
,,,,,,,,,,,,,,,,3,9.1,10,10.9,0,0,0.9,0.5,0.4,2.2,10,initial,36.05,328,361,393,0,0,9,9,9,0,0,,,,,,,0,0,0,0,0,34,34,15,,,,,,,,,,,,,,3,2.9916526000015438,3,0.4,0.30000000000000004,10.81288,return,1.3509431999991648,,,,,,,,,,,,,,,,,p301,19,female,up_down_width,2025-12-09_11h37.49.566,exp1,2023.1.0,59.96336238583155,
,,,,,,,,,,,,,,,,3,8.6,10,11.4,0,0,1.4,1.15,0.25,3.05,10,match,36.05,310,361,411,0,0,9,9,9,0,0,,,,,,,0,0,0,0,0,35,35,43,,,,,,,,,,,,,,3,1.8184320000000298,3,0.45,0.30000000000000004,10.81288,return,1.7597786000114866,,,,,,,,,,,,,,,,,p301,19,female,up_down_width,2025-12-09_11h37.49.566,exp1,2023.1.0,59.96336238583155,
,,,,,,,,,,,,,,,,5,7.8,8.9,10,11.1,12.2,1.1,0.7000000000000001,0.4,4.800000000000001,10,initial,36.05,281,321,361,400,440,9,9,9,9,9,,,,,,,0,0,0,0,0,36,36,38,,,,,,,,,,,,,,4,1.579599299991969,4,0.2,0.35,12.61502,return,2.6343420000048354,,,,,,,,,,,,,,,,,p301,19,female,up_down_width,2025-12-09_11h37.49.566,exp1,2023.1.0,59.96336238583155,
,,,,,,,,,,,,,,,,5,8.275,9.1375,10,10.8625,11.725,0.8625,0.6125,0.25,3.7,10,match,36.05,298,329,361,392,423,9,9,9,9,9,,,,,,,0,0,0,0,0,37,37,22,,,,,,,,,,,,,,5,1.7476622000103816,5,0.55,0.35000000000000003,12.61502,return,2.3963242000318132,,,,,,,,,,,,,,,,,p301,19,female,up_down_width,2025-12-09_11h37.49.566,exp1,2023.1.0,59.96336238583155,
,,,,,,,,,,,,,,,,3,9.3,10,10.7,0,0,0.7,0.1499999999999999,0.55,1.95,10,initial,36.05,335,361,386,0,0,9,9,9,0,0,,,,,,,0,0,0,0,0,38,38,6,,,,,,,,,,,,,,2,1.930490899947472,2,0.35,0.44999999999999996,16.21932,return,1.8360438999952748,,,,,,,,,,,,,,,,,p301,19,female,up_down_width,2025-12-09_11h37.49.566,exp1,2023.1.0,59.96336238583155,
,,,,,,,,,,,,,,,,4,8.9,9.633333333333333,10.366666666666667,11.1,0,0.7333333333333334,0.4833333333333334,0.25,2.45,10,match,36.05,321,347,374,400,0,9,9,9,9,0,,,,,,,0,0,0,0,0,39,39,3,,,,,,,,,,,,,,3,1.4453175999806263,3,0.5,0.25000000000000006,9.01073,return,3.2751385000301525,,,,,,,,,,,,,,,,,p301,19,female,up_down_width,2025-12-09_11h37.49.566,exp1,2023.1.0,59.96336238583155,
,,,,,,,,,,,,,,,,5,8.65,9.325,10,10.675,11.35,0.675,0.125,0.55,3.25,10,match,36.05,312,336,361,385,409,9,9,9,9,9,,,,,,,0,0,0,0,0,40,40,29,,,,,,,,,,,,,,4,3.73227149999002,4,0.35,0.49999999999999994,18.02146,return,1.7903288999805227,,,,,,,,,,,,,,,,,p301,19,female,up_down_width,2025-12-09_11h37.49.566,exp1,2023.1.0,59.96336238583155,
,,,,,,,,,,,,,,,,5,8.6,9.3,10,10.7,11.4,0.7,0.1499999999999999,0.55,3.3499999999999996,10,initial,36.05,310,335,361,386,411,9,9,9,9,9,,,,,,,0,0,0,0,0,41,41,40,,,,,,,,,,,,,,4,1.3095444000209682,4,0.2,0.5499999999999999,19.82361,return,3.4961791000096127,,,,,,,,,,,,,,,,,p301,19,female,up_down_width,2025-12-09_11h37.49.566,exp1,2023.1.0,59.96336238583155,
,,,,,,,,,,,,,,,,5,8.6,9.3,10,10.7,11.4,0.7,0.44999999999999996,0.25,3.05,10,initial,36.05,310,335,361,386,411,9,9,9,9,9,,,,,,,0,0,0,0,0,42,42,42,,,,,,,,,,,,,,5,1.222352700016927,5,0.55,0.10000000000000007,3.60429,return,5.299145800003316,,,,,,,,,,,,,,,,,p301,19,female,up_down_width,2025-12-09_11h37.49.566,exp1,2023.1.0,59.96336238583155,
,,,,,,,,,,,,,,,,4,8.95,9.65,10.35,11.05,0,0.7,0.1499999999999999,0.55,2.65,10,initial,36.05,323,348,373,398,0,9,9,9,9,0,,,,,,,0,0,0,0,0,43,43,23,,,,,,,,,,,,,,4,5.393671700032428,4,0.5,0.45,16.21932,return,3.032224899972789,,,,,,,,,,,,,,,,,p301,19,female,up_down_width,2025-12-09_11h37.49.566,exp1,2023.1.0,59.96336238583155,
,,,,,,,,,,,,,,,,4,8.95,9.65,10.35,11.05,0,0.7,0.29999999999999993,0.4,2.5,10,initial,36.05,323,348,373,398,0,9,9,9,9,0,,,,,,,0,0,0,0,0,44,44,26,,,,,,,,,,,,,,4,1.6491725000087172,4,0.5,0.30000000000000004,10.81288,return,2.893044699972961,,,,,,,,,,,,,,,,,p301,19,female,up_down_width,2025-12-09_11h37.49.566,exp1,2023.1.0,59.96336238583155,
,,,,,,,,,,,,,,,,3,7.800000000000001,10,12.2,0,0,2.1999999999999997,1.7999999999999998,0.4,4.8,10,match,36.05,281,361,440,0,0,9,9,9,0,0,,,,,,,0,0,0,0,0,45,45,39,,,,,,,,,,,,,,3,3.405197100015357,3,0.2,0.3,10.81288,return,2.4841777000110596,,,,,,,,,,,,,,,,,p301,19,female,up_down_width,2025-12-09_11h37.49.566,exp1,2023.1.0,59.96336238583155,
,,,,,,,,,,,,,,,,3,8.9,10,11.1,0,0,1.1,0.8500000000000001,0.25,2.45,10,initial,36.05,321,361,400,0,0,9,9,9,0,0,,,,,,,0,0,0,0,0,46,46,2,,,,,,,,,,,,,,2,2.151704400021117,2,0.3,0.2,7.20859,return,2.5917199999676086,,,,,,,,,,,,,,,,,p301,19,female,up_down_width,2025-12-09_11h37.49.566,exp1,2023.1.0,59.96336238583155,
,,,,,,,,,,,,,,,,5,8.2,9.1,10,10.9,11.8,0.9,0.5,0.4,4,10,initial,36.05,296,328,361,393,425,9,9,9,9,9,,,,,,,0,0,0,0,0,47,47,50,,,,,,,,,,,,,,5,3.759001200029161,5,0.4,0.20000000000000007,7.20859,return,2.0559978999663144,,,,,,,,,,,,,,,,,p301,19,female,up_down_width,2025-12-09_11h37.49.566,exp1,2023.1.0,59.96336238583155,
,,,,,,,,,,,,,,,,5,8.35,9.175,10,10.825,11.65,0.8250000000000001,0.275,0.55,3.85,10,match,36.05,301,331,361,390,420,9,9,9,9,9,,,,,,,0,0,0,0,0,48,48,18,,,,,,,,,,,,,,5,2.5055234999745153,5,0.4,0.35000000000000003,12.61502,return,3.748002299980726,,,,,,,,,,,,,,,,,p301,19,female,up_down_width,2025-12-09_11h37.49.566,exp1,2023.1.0,59.96336238583155,
,,,,,,,,,,,,,,,,4,8.35,9.45,10.55,11.65,0,1.1,0.7000000000000001,0.4,3.7,10,initial,36.05,301,341,380,420,0,9,9,9,9,0,,,,,,,0,0,0,0,0,49,49,21,,,,,,,,,,,,,,4,1.8869852000498213,4,0.4,0.35000000000000003,12.61502,return,1.6179504999890924,,,,,,,,,,,,,,,,,p301,19,female,up_down_width,2025-12-09_11h37.49.566,exp1,2023.1.0,59.96336238583155,
,,,,,,,,,,,,,,,,5,8.2,9.1,10,10.9,11.8,0.9,0.65,0.25,3.85,10,initial,36.05,296,328,361,393,425,9,9,9,9,9,,,,,,,0,0,0,0,0,50,50,48,,,,,,,,,,,,,,5,1.6790226000011899,5,0.25,0.3,10.81288,return,1.5309668999980204,,,,,,,,,,,,,,,,,p301,19,female,up_down_width,2025-12-09_11h37.49.566,exp1,2023.1.0,59.96336238583155,
,,,,,,,,,,,,,,,,3,9.3,10,10.7,0,0,0.7,0.29999999999999993,0.4,1.8,10,initial,36.05,335,361,386,0,0,9,9,9,0,0,,,,,,,0,0,0,0,0,51,51,9,,,,,,,,,,,,,,2,1.7423784999991767,2,0.45,0.35000000000000003,12.61502,return,1.8647368000238203,,,,,,,,,,,,,,,,,p301,19,female,up_down_width,2025-12-09_11h37.49.566,exp1,2023.1.0,59.96336238583155,
,,,,,,,,,,,,,,,,,,,,,,,,,,,,,,,,,,,,,,,,,,,,,0,0,0,0,,,,,,,,,,,,,,,,,,,,,,,,,,,,1033.878036900016,1033.878036900016,1033.878036900016,,,,,,,,,,,,p301,19,female,up_down_width,2025-12-09_11h37.49.566,exp1,2023.1.0,59.96336238583155,
,,,,,,,,,,,,,,,,3,9.3,10,10.7,0,0,0.7,0.1499999999999999,0.55,1.95,10,initial,36.05,335,361,386,0,0,9,9,9,0,0,,,,,,,1,0,1,0,0,0,0,6,,,,,,,,,,,,,,2,2.7256272000377066,2,0.35,0.39999999999999997,14.41717,return,2.51958670001477,,,,,,,,,,,,,,,,,p301,19,female,up_down_width,2025-12-09_11h37.49.566,exp1,2023.1.0,59.96336238583155,
,,,,,,,,,,,,,,,,5,8.95,9.475,10,10.525,11.05,0.525,0.125,0.4,2.5,10,match,36.05,323,342,361,379,398,9,9,9,9,9,,,,,,,1,0,1,0,0,1,1,27,,,,,,,,,,,,,,5,2.262369900010526,5,0.2,0.3,10.81288,return,2.154699199949391,,,,,,,,,,,,,,,,,p301,19,female,up_down_width,2025-12-09_11h37.49.566,exp1,2023.1.0,59.96336238583155,
,,,,,,,,,,,,,,,,5,8.2,9.1,10,10.9,11.8,0.9,0.35,0.55,4.15,10,initial,36.05,296,328,361,393,425,9,9,9,9,9,,,,,,,1,0,1,0,0,2,2,46,,,,,,,,,,,,,,4,1.2913145999773405,4,0.4,0.35000000000000003,12.61502,return,2.40600540000014,,,,,,,,,,,,,,,,,p301,19,female,up_down_width,2025-12-09_11h37.49.566,exp1,2023.1.0,59.96336238583155,
,,,,,,,,,,,,,,,,3,9.3,10,10.7,0,0,0.7,0.29999999999999993,0.4,1.8,10,initial,36.05,335,361,386,0,0,9,9,9,0,0,,,,,,,1,0,1,0,0,3,3,9,,,,,,,,,,,,,,2,2.4934679999714717,2,0.2,0.3,10.81288,return,1.8967704999959096,,,,,,,,,,,,,,,,,p301,19,female,up_down_width,2025-12-09_11h37.49.566,exp1,2023.1.0,59.96336238583155,
,,,,,,,,,,,,,,,,3,7.8,10,12.2,0,0,2.2,1.65,0.55,4.95,10,match,36.05,281,361,440,0,0,9,9,9,0,0,,,,,,,1,0,1,0,0,4,4,35,,,,,,,,,,,,,,3,2.565532299980987,3,0.3,0.35,12.61502,return,1.4223010999849066,,,,,,,,,,,,,,,,,p301,19,female,up_down_width,2025-12-09_11h37.49.566,exp1,2023.1.0,59.96336238583155,
,,,,,,,,,,,,,,,,5,8.275,9.1375,10,10.8625,11.725,0.8625,0.6125,0.25,3.7,10,match,36.05,298,329,361,392,423,9,9,9,9,9,,,,,,,1,0,1,0,0,5,5,22,,,,,,,,,,,,,,5,2.152414999960456,5,0.25,0.15000000000000002,5.40644,return,2.320789900026284,,,,,,,,,,,,,,,,,p301,19,female,up_down_width,2025-12-09_11h37.49.566,exp1,2023.1.0,59.96336238583155,
,,,,,,,,,,,,,,,,4,9.3,9.766666666666667,10.233333333333333,10.7,0,0.4666666666666667,0.06666666666666665,0.4,1.8,10,match,36.05,335,352,369,386,0,9,9,9,9,0,,,,,,,1,0,1,0,0,6,6,10,,,,,,,,,,,,,,3,2.439747800002806,3,0.25,0.3,10.81288,return,1.5249373000115156,,,,,,,,,,,,,,,,,p301,19,female,up_down_width,2025-12-09_11h37.49.566,exp1,2023.1.0,59.96336238583155,
,,,,,,,,,,,,,,,,5,8.35,9.175,10,10.825,11.65,0.8250000000000001,0.275,0.55,3.85,10,match,36.05,301,331,361,390,420,9,9,9,9,9,,,,,,,1,0,1,0,0,7,7,18,,,,,,,,,,,,,,5,1.738263499981258,5,0.3,0.3,10.81288,return,1.7804363999748603,,,,,,,,,,,,,,,,,p301,19,female,up_down_width,2025-12-09_11h37.49.566,exp1,2023.1.0,59.96336238583155,
,,,,,,,,,,,,,,,,4,8.35,9.45,10.55,11.65,0,1.1,0.7000000000000001,0.4,3.7,10,initial,36.05,301,341,380,420,0,9,9,9,9,0,,,,,,,1,0,1,0,0,8,8,21,,,,,,,,,,,,,,4,1.7750363000086509,4,0.3,0.35,12.61502,return,1.144109099986963,,,,,,,,,,,,,,,,,p301,19,female,up_down_width,2025-12-09_11h37.49.566,exp1,2023.1.0,59.96336238583155,
,,,,,,,,,,,,,,,,3,8.9,10,11.1,0,0,1.1,0.55,0.55,2.75,10,initial,36.05,321,361,400,0,0,9,9,9,0,0,,,,,,,1,0,1,0,0,9,9,0,,,,,,,,,,,,,,2,1.8159139000345021,2,0.4,0.4,14.41717,return,1.3904311999795027,,,,,,,,,,,,,,,,,p301,19,female,up_down_width,2025-12-09_11h37.49.566,exp1,2023.1.0,59.96336238583155,
,,,,,,,,,,,,,,,,4,8.95,9.65,10.35,11.05,0,0.7,0.1499999999999999,0.55,2.65,10,initial,36.05,323,348,373,398,0,9,9,9,9,0,,,,,,,1,0,1,0,0,10,10,23,,,,,,,,,,,,,,4,1.4749263999983668,4,0.5,0.4,14.41717,return,1.7826487999991514,,,,,,,,,,,,,,,,,p301,19,female,up_down_width,2025-12-09_11h37.49.566,exp1,2023.1.0,59.96336238583155,
,,,,,,,,,,,,,,,,4,9.1,9.7,10.3,10.9,0,0.5999999999999999,0.3499999999999999,0.25,2.05,10,match,36.05,328,350,371,393,0,9,9,9,9,0,,,,,,,1,0,1,0,0,11,11,14,,,,,,,,,,,,,,3,2.035135200014338,3,0.3,0.2,7.20859,return,2.544554399966728,,,,,,,,,,,,,,,,,p301,19,female,up_down_width,2025-12-09_11h37.49.566,exp1,2023.1.0,59.96336238583155,
,,,,,,,,,,,,,,,,3,7.800000000000001,10,12.2,0,0,2.1999999999999997,1.7999999999999998,0.4,4.8,10,match,36.05,281,361,440,0,0,9,9,9,0,0,,,,,,,1,0,1,0,0,12,12,39,,,,,,,,,,,,,,3,1.7619554999982938,3,0.45,0.25000000000000006,9.01073,return,3.450883099983912,,,,,,,,,,,,,,,,,p301,19,female,up_down_width,2025-12-09_11h37.49.566,exp1,2023.1.0,59.96336238583155,
,,,,,,,,,,,,,,,,4,9.1,9.7,10.3,10.9,0,0.6000000000000001,0.20000000000000004,0.4,2.2,10,match,36.05,328,350,371,393,0,9,9,9,9,0,,,,,,,1,0,1,0,0,13,13,16,,,,,,,,,,,,,,3,3.9826446000370197,3,0.55,0.35000000000000003,12.61502,return,2.6861220999853685,,,,,,,,,,,,,,,,,p301,19,female,up_down_width,2025-12-09_11h37.49.566,exp1,2023.1.0,59.96336238583155,
,,,,,,,,,,,,,,,,4,8.35,9.45,10.55,11.65,0,1.1,0.8500000000000001,0.25,3.5500000000000003,10,initial,36.05,301,341,380,420,0,9,9,9,9,0,,,,,,,1,0,1,0,0,14,14,19,,,,,,,,,,,,,,4,2.4272766999783926,4,0.4,0.20000000000000007,7.20859,return,4.009589400026016,,,,,,,,,,,,,,,,,p301,19,female,up_down_width,2025-12-09_11h37.49.566,exp1,2023.1.0,59.96336238583155,
,,,,,,,,,,,,,,,,4,8.95,9.65,10.35,11.05,0,0.7,0.29999999999999993,0.4,2.5,10,initial,36.05,323,348,373,398,0,9,9,9,9,0,,,,,,,1,0,1,0,0,15,15,26,,,,,,,,,,,,,,3,2.101067600015085,3,0.5,0.25000000000000006,9.01073,return,3.0562374999863096,,,,,,,,,,,,,,,,,p301,19,female,up_down_width,2025-12-09_11h37.49.566,exp1,2023.1.0,59.96336238583155,
,,,,,,,,,,,,,,,,3,7.8,10,12.2,0,0,2.2,1.9500000000000002,0.25,4.65,10,match,36.05,281,361,440,0,0,9,9,9,0,0,,,,,,,1,0,1,0,0,16,16,37,,,,,,,,,,,,,,3,2.605894700041972,3,0.5,0.20000000000000007,7.20859,return,4.5328364999732,,,,,,,,,,,,,,,,,p301,19,female,up_down_width,2025-12-09_11h37.49.566,exp1,2023.1.0,59.96336238583155,
,,,,,,,,,,,,,,,,3,8.9,10,11.1,0,0,1.1,0.8500000000000001,0.25,2.45,10,initial,36.05,321,361,400,0,0,9,9,9,0,0,,,,,,,1,0,1,0,0,17,17,2,,,,,,,,,,,,,,2,1.692602600029204,2,0.4,0.20000000000000007,7.20859,return,1.9757221000036225,,,,,,,,,,,,,,,,,p301,19,female,up_down_width,2025-12-09_11h37.49.566,exp1,2023.1.0,59.96336238583155,
,,,,,,,,,,,,,,,,3,8.9,10,11.1,0,0,1.1,0.7000000000000001,0.4,2.6000000000000005,10,initial,36.05,321,361,400,0,0,9,9,9,0,0,,,,,,,1,0,1,0,0,18,18,4,,,,,,,,,,,,,,3,2.1963809999870136,3,0.4,0.25000000000000006,9.01073,return,1.6609717999817804,,,,,,,,,,,,,,,,,p301,19,female,up_down_width,2025-12-09_11h37.49.566,exp1,2023.1.0,59.96336238583155,
,,,,,,,,,,,,,,,,4,8.65,9.55,10.45,11.35,0,0.9,0.35,0.55,3.25,10,initial,36.05,312,344,377,409,0,9,9,9,9,0,,,,,,,1,0,1,0,0,19,19,28,,,,,,,,,,,,,,4,1.9795258000376634,4,0.2,0.3,10.81288,return,2.507748200034257,,,,,,,,,,,,,,,,,p301,19,female,up_down_width,2025-12-09_11h37.49.566,exp1,2023.1.0,59.96336238583155,
,,,,,,,,,,,,,,,,5,8.95,9.475,10,10.525,11.05,0.525,0.275,0.25,2.35,10,match,36.05,323,342,361,379,398,9,9,9,9,9,,,,,,,1,0,1,0,0,20,20,25,,,,,,,,,,,,,,5,1.5658362000249326,5,0.2,0.2,7.20859,return,2.2222096000332385,,,,,,,,,,,,,,,,,p301,19,female,up_down_width,2025-12-09_11h37.49.566,exp1,2023.1.0,59.96336238583155,
,,,,,,,,,,,,,,,,3,9.1,10,10.9,0,0,0.9,0.65,0.25,2.05,10,initial,36.05,328,361,393,0,0,9,9,9,0,0,,,,,,,1,0,1,0,0,21,21,13,,,,,,,,,,,,,,2,2.05696600000374,2,0.45,0.20000000000000007,7.20859,return,2.324914099997841,,,,,,,,,,,,,,,,,p301,19,female,up_down_width,2025-12-09_11h37.49.566,exp1,2023.1.0,59.96336238583155,
,,,,,,,,,,,,,,,,4,8.35,9.45,10.55,11.65,0,1.1,0.55,0.55,3.8500000000000005,10,initial,36.05,301,341,380,420,0,9,9,9,9,0,,,,,,,1,0,1,0,0,22,22,17,,,,,,,,,,,,,,4,2.0754837000276893,4,0.55,0.30000000000000004,10.81288,return,2.3275237000198103,,,,,,,,,,,,,,,,,p301,19,female,up_down_width,2025-12-09_11h37.49.566,exp1,2023.1.0,59.96336238583155,
,,,,,,,,,,,,,,,,5,8.65,9.325,10,10.675,11.35,0.675,0.42500000000000004,0.25,2.95,10,match,36.05,312,336,361,385,409,9,9,9,9,9,,,,,,,1,0,1,0,0,23,23,31,,,,,,,,,,,,,,5,2.048853699991014,5,0.3,0.15000000000000002,5.40644,return,2.3017799999797717,,,,,,,,,,,,,,,,,p301,19,female,up_down_width,2025-12-09_11h37.49.566,exp1,2023.1.0,59.96336238583155,
,,,,,,,,,,,,,,,,3,9.3,10,10.7,0,0,0.7,0.44999999999999996,0.25,1.65,10,initial,36.05,335,361,386,0,0,9,9,9,0,0,,,,,,,1,0,1,0,0,24,24,7,,,,,,,,,,,,,,2,1.7010737999808043,2,0.3,0.15000000000000002,5.40644,return,2.6719062000047415,,,,,,,,,,,,,,,,,p301,19,female,up_down_width,2025-12-09_11h37.49.566,exp1,2023.1.0,59.96336238583155,
,,,,,,,,,,,,,,,,5,7.8,8.9,10,11.1,12.2,1.1,0.55,0.55,4.95,10,initial,36.05,281,321,361,400,440,9,9,9,9,9,,,,,,,1,0,1,0,0,25,25,34,,,,,,,,,,,,,,5,2.0085655000293627,5,0.25,0.39999999999999997,14.41717,return,1.9592778999940492,,,,,,,,,,,,,,,,,p301,19,female,up_down_width,2025-12-09_11h37.49.566,exp1,2023.1.0,59.96336238583155,
,,,,,,,,,,,,,,,,5,8.65,9.325,10,10.675,11.35,0.675,0.125,0.55,3.25,10,match,36.05,312,336,361,385,409,9,9,9,9,9,,,,,,,1,0,1,0,0,26,26,29,,,,,,,,,,,,,,4,2.6184055999619886,4,0.3,0.39999999999999997,14.41717,return,1.809246099961456,,,,,,,,,,,,,,,,,p301,19,female,up_down_width,2025-12-09_11h37.49.566,exp1,2023.1.0,59.96336238583155,
,,,,,,,,,,,,,,,,4,9.3,9.766666666666667,10.233333333333333,10.7,0,0.4666666666666667,0.21666666666666665,0.25,1.65,10,match,36.05,335,352,369,386,0,9,9,9,9,0,,,,,,,1,0,1,0,0,27,27,8,,,,,,,,,,,,,,4,1.5796461999998428,4,0.25,0.15000000000000002,5.40644,return,2.3156794999958947,,,,,,,,,,,,,,,,,p301,19,female,up_down_width,2025-12-09_11h37.49.566,exp1,2023.1.0,59.96336238583155,
,,,,,,,,,,,,,,,,5,8.2,9.1,10,10.9,11.8,0.9,0.5,0.4,4,10,initial,36.05,296,328,361,393,425,9,9,9,9,9,,,,,,,1,0,1,0,0,28,28,50,,,,,,,,,,,,,,5,2.4865121000329964,5,0.4,0.25000000000000006,9.01073,return,2.44930390000809,,,,,,,,,,,,,,,,,p301,19,female,up_down_width,2025-12-09_11h37.49.566,exp1,2023.1.0,59.96336238583155,
,,,,,,,,,,,,,,,,4,9.1,9.7,10.3,10.9,0,0.6,0.04999999999999997,0.55,2.35,10,match,36.05,328,350,371,393,0,9,9,9,9,0,,,,,,,1,0,1,0,0,29,29,12,,,,,,,,,,,,,,4,3.0915104000014253,4,0.3,0.44999999999999996,16.21932,return,2.1987297000014223,,,,,,,,,,,,,,,,,p301,19,female,up_down_width,2025-12-09_11h37.49.566,exp1,2023.1.0,59.96336238583155,
,,,,,,,,,,,,,,,,3,9.1,10,10.9,0,0,0.9,0.5,0.4,2.2,10,initial,36.05,328,361,393,0,0,9,9,9,0,0,,,,,,,1,0,1,0,0,30,30,15,,,,,,,,,,,,,,2,1.6402602000162005,2,0.45,0.4,14.41717,return,2.9970903999637812,,,,,,,,,,,,,,,,,p301,19,female,up_down_width,2025-12-09_11h37.49.566,exp1,2023.1.0,59.96336238583155,
,,,,,,,,,,,,,,,,4,8.65,9.55,10.45,11.35,0,0.9,0.65,0.25,2.95,10,initial,36.05,312,344,377,409,0,9,9,9,9,0,,,,,,,1,0,1,0,0,31,31,30,,,,,,,,,,,,,,3,1.4182498999871314,3,0.45,0.20000000000000007,7.20859,return,3.664313899993431,,,,,,,,,,,,,,,,,p301,19,female,up_down_width,2025-12-09_11h37.49.566,exp1,2023.1.0,59.96336238583155,
,,,,,,,,,,,,,,,,5,8.6,9.3,10,10.7,11.4,0.7,0.29999999999999993,0.4,3.1999999999999997,10,initial,36.05,310,335,361,386,411,9,9,9,9,9,,,,,,,1,0,1,0,0,32,32,44,,,,,,,,,,,,,,4,1.7994788000360131,4,0.5,0.4,14.41717,return,2.0465576000278816,,,,,,,,,,,,,,,,,p301,19,female,up_down_width,2025-12-09_11h37.49.566,exp1,2023.1.0,59.96336238583155,
,,,,,,,,,,,,,,,,3,9.1,10,10.9,0,0,0.9,0.35,0.55,2.35,10,initial,36.05,328,361,393,0,0,9,9,9,0,0,,,,,,,1,0,1,0,0,33,33,11,,,,,,,,,,,,,,2,1.6377561000408605,2,0.55,0.45,16.21932,return,1.747469900001306,,,,,,,,,,,,,,,,,p301,19,female,up_down_width,2025-12-09_11h37.49.566,exp1,2023.1.0,59.96336238583155,
,,,,,,,,,,,,,,,,5,8.2,9.1,10,10.9,11.8,0.9,0.65,0.25,3.85,10,initial,36.05,296,328,361,393,425,9,9,9,9,9,,,,,,,1,0,1,0,0,34,34,48,,,,,,,,,,,,,,5,1.695018800033722,5,0.25,0.25,9.01073,return,1.7861443999572657,,,,,,,,,,,,,,,,,p301,19,female,up_down_width,2025-12-09_11h37.49.566,exp1,2023.1.0,59.96336238583155,
,,,,,,,,,,,,,,,,5,8.6,9.3,10,10.7,11.4,0.7,0.1499999999999999,0.55,3.3499999999999996,10,initial,36.05,310,335,361,386,411,9,9,9,9,9,,,,,,,1,0,1,0,0,35,35,40,,,,,,,,,,,,,,5,2.179658600012772,5,0.4,0.35000000000000003,12.61502,return,1.9637810999993235,,,,,,,,,,,,,,,,,p301,19,female,up_down_width,2025-12-09_11h37.49.566,exp1,2023.1.0,59.96336238583155,
,,,,,,,,,,,,,,,,3,8.6,10,11.4,0,0,1.4,1.15,0.25,3.05,10,match,36.05,310,361,411,0,0,9,9,9,0,0,,,,,,,1,0,1,0,0,36,36,43,,,,,,,,,,,,,,2,2.3983066000510007,2,0.55,0.20000000000000007,7.20859,return,2.6531426000292413,,,,,,,,,,,,,,,,,p301,19,female,up_down_width,2025-12-09_11h37.49.566,exp1,2023.1.0,59.96336238583155,
,,,,,,,,,,,,,,,,5,8.65,9.325,10,10.675,11.35,0.675,0.275,0.4,3.1,10,match,36.05,312,336,361,385,409,9,9,9,9,9,,,,,,,1,0,1,0,0,37,37,33,,,,,,,,,,,,,,4,3.338178599951789,4,0.55,0.35000000000000003,12.61502,return,1.9706412000232376,,,,,,,,,,,,,,,,,p301,19,female,up_down_width,2025-12-09_11h37.49.566,exp1,2023.1.0,59.96336238583155,
,,,,,,,,,,,,,,,,4,8.9,9.633333333333333,10.366666666666667,11.1,0,0.7333333333333334,0.4833333333333334,0.25,2.45,10,match,36.05,321,347,374,400,0,9,9,9,9,0,,,,,,,1,0,1,0,0,38,38,3,,,,,,,,,,,,,,3,2.3844554999959655,3,0.25,0.2,7.20859,return,1.4571762999985367,,,,,,,,,,,,,,,,,p301,19,female,up_down_width,2025-12-09_11h37.49.566,exp1,2023.1.0,59.96336238583155,
,,,,,,,,,,,,,,,,5,7.8,8.9,10,11.1,12.2,1.1,0.7000000000000001,0.4,4.800000000000001,10,initial,36.05,281,321,361,400,440,9,9,9,9,9,,,,,,,1,0,1,0,0,39,39,38,,,,,,,,,,,,,,5,2.179113899997901,5,0.2,0.35,12.61502,return,2.5391905999858864,,,,,,,,,,,,,,,,,p301,19,female,up_down_width,2025-12-09_11h37.49.566,exp1,2023.1.0,59.96336238583155,
,,,,,,,,,,,,,,,,5,8.35,9.175,10,10.825,11.65,0.825,0.575,0.25,3.55,10,match,36.05,301,331,361,390,420,9,9,9,9,9,,,,,,,1,0,1,0,0,40,40,20,,,,,,,,,,,,,,5,2.799326199979987,5,0.45,0.20000000000000007,7.20859,return,2.269678699958604,,,,,,,,,,,,,,,,,p301,19,female,up_down_width,2025-12-09_11h37.49.566,exp1,2023.1.0,59.96336238583155,
,,,,,,,,,,,,,,,,3,8.2,10,11.8,0,0,1.8,1.25,0.55,4.15,10,match,36.05,296,361,425,0,0,9,9,9,0,0,,,,,,,1,0,1,0,0,41,41,47,,,,,,,,,,,,,,2,2.473921699973289,2,0.4,0.4,14.41717,return,2.1176995999994688,,,,,,,,,,,,,,,,,p301,19,female,up_down_width,2025-12-09_11h37.49.566,exp1,2023.1.0,59.96336238583155,
,,,,,,,,,,,,,,,,5,7.8,8.9,10,11.1,12.2,1.1,0.8500000000000001,0.25,4.65,10,initial,36.05,281,321,361,400,440,9,9,9,9,9,,,,,,,1,0,1,0,0,42,42,36,,,,,,,,,,,,,,5,1.5944412000244483,5,0.2,0.2,7.20859,return,2.986287900013849,,,,,,,,,,,,,,,,,p301,19,female,up_down_width,2025-12-09_11h37.49.566,exp1,2023.1.0,59.96336238583155,
,,,,,,,,,,,,,,,,4,8.825,9.608333333333333,10.391666666666667,11.175,0,0.7833333333333333,0.5333333333333333,0.25,2.6,10,match,36.05,318,346,375,403,0,9,9,9,9,0,,,,,,,1,0,1,0,0,43,43,5,,,,,,,,,,,,,,3,1.9415693000191823,3,0.55,0.20000000000000007,7.20859,return,3.9592265999526717,,,,,,,,,,,,,,,,,p301,19,female,up_down_width,2025-12-09_11h37.49.566,exp1,2023.1.0,59.96336238583155,
,,,,,,,,,,,,,,,,4,8.65,9.55,10.45,11.35,0,0.9,0.5,0.4,3.1,10,initial,36.05,312,344,377,409,0,9,9,9,9,0,,,,,,,1,0,1,0,0,44,44,32,,,,,,,,,,,,,,3,2.234910700004548,3,0.4,0.30000000000000004,10.81288,return,2.015952899993863,,,,,,,,,,,,,,,,,p301,19,female,up_down_width,2025-12-09_11h37.49.566,exp1,2023.1.0,59.96336238583155,
,,,,,,,,,,,,,,,,5,8.6,9.3,10,10.7,11.4,0.7,0.44999999999999996,0.25,3.05,10,initial,36.05,310,335,361,386,411,9,9,9,9,9,,,,,,,1,0,1,0,0,45,45,42,,,,,,,,,,,,,,5,2.4456723000039347,5,0.4,0.15000000000000008,5.40644,return,2.906496600015089,,,,,,,,,,,,,,,,,p301,19,female,up_down_width,2025-12-09_11h37.49.566,exp1,2023.1.0,59.96336238583155,
,,,,,,,,,,,,,,,,3,8.2,10,11.8,0,0,1.7999999999999998,1.4,0.4,4,10,match,36.05,296,361,425,0,0,9,9,9,0,0,,,,,,,1,0,1,0,0,46,46,51,,,,,,,,,,,,,,2,1.6160574000095949,2,0.25,0.25,9.01073,return,3.1976798999821767,,,,,,,,,,,,,,,,,p301,19,female,up_down_width,2025-12-09_11h37.49.566,exp1,2023.1.0,59.96336238583155,
,,,,,,,,,,,,,,,,3,8.2,10,11.8,0,0,1.8,1.55,0.25,3.85,10,match,36.05,296,361,425,0,0,9,9,9,0,0,,,,,,,1,0,1,0,0,47,47,49,,,,,,,,,,,,,,2,1.3826362999971025,2,0.3,0.2,7.20859,return,1.710453400039114,,,,,,,,,,,,,,,,,p301,19,female,up_down_width,2025-12-09_11h37.49.566,exp1,2023.1.0,59.96336238583155,
,,,,,,,,,,,,,,,,4,8.9,9.633333333333333,10.366666666666667,11.1,0,0.7333333333333333,0.18333333333333326,0.55,2.75,10,match,36.05,321,347,374,400,0,9,9,9,9,0,,,,,,,1,0,1,0,0,48,48,1,,,,,,,,,,,,,,2,2.2802083999849856,2,0.45,0.4,14.41717,return,1.8512470999849029,,,,,,,,,,,,,,,,,p301,19,female,up_down_width,2025-12-09_11h37.49.566,exp1,2023.1.0,59.96336238583155,
,,,,,,,,,,,,,,,,3,8.6,10,11.4,0,0,1.4,0.85,0.55,3.35,10,match,36.05,310,361,411,0,0,9,9,9,0,0,,,,,,,1,0,1,0,0,49,49,41,,,,,,,,,,,,,,2,1.4913579999702051,2,0.5,0.45,16.21932,return,1.366337499988731,,,,,,,,,,,,,,,,,p301,19,female,up_down_width,2025-12-09_11h37.49.566,exp1,2023.1.0,59.96336238583155,
,,,,,,,,,,,,,,,,4,8.95,9.65,10.35,11.05,0,0.7,0.44999999999999996,0.25,2.3499999999999996,10,initial,36.05,323,348,373,398,0,9,9,9,9,0,,,,,,,1,0,1,0,0,50,50,24,,,,,,,,,,,,,,3,2.449114399962127,3,0.55,0.30000000000000004,10.81288,return,2.238301599980332,,,,,,,,,,,,,,,,,p301,19,female,up_down_width,2025-12-09_11h37.49.566,exp1,2023.1.0,59.96336238583155,
,,,,,,,,,,,,,,,,3,8.525,10,11.475,0,0,1.475,1.225,0.25,3.2,10,match,36.05,307,361,414,0,0,9,9,9,0,0,,,,,,,1,0,1,0,0,51,51,45,,,,,,,,,,,,,,2,1.4370429999544285,2,0.4,0.25000000000000006,9.01073,return,2.259628400031943,,,,,,,,,,,,,,,,,p301,19,female,up_down_width,2025-12-09_11h37.49.566,exp1,2023.1.0,59.96336238583155,
,,,,,,,,,,,,,,,,,,,,,,,,,,,,,,,,,,,,,,,,,,,,,1,0,1,0,,,,,,,,,,,,,,,,,,,,,,,,,,,,1388.811033200007,1388.811033200007,1388.811033200007,,,,,,,,,,,,p301,19,female,up_down_width,2025-12-09_11h37.49.566,exp1,2023.1.0,59.96336238583155,
,,,,,,,,,,,,,,,,5,8.2,9.1,10,10.9,11.8,0.9,0.5,0.4,4,10,initial,36.05,296,328,361,393,425,9,9,9,9,9,,,,,,,2,0,2,0,0,0,0,50,,,,,,,,,,,,,,5,2.1045621000230312,5,0.3,0.3,10.81288,return,1.7469504000036977,,,,,,,,,,,,,,,,,p301,19,female,up_down_width,2025-12-09_11h37.49.566,exp1,2023.1.0,59.96336238583155,
,,,,,,,,,,,,,,,,3,9.3,10,10.7,0,0,0.7,0.1499999999999999,0.55,1.95,10,initial,36.05,335,361,386,0,0,9,9,9,0,0,,,,,,,2,0,2,0,0,1,1,6,,,,,,,,,,,,,,2,1.5737056000507437,2,0.3,0.39999999999999997,14.41717,return,1.7508821000228636,,,,,,,,,,,,,,,,,p301,19,female,up_down_width,2025-12-09_11h37.49.566,exp1,2023.1.0,59.96336238583155,
,,,,,,,,,,,,,,,,5,8.95,9.475,10,10.525,11.05,0.525,0.125,0.4,2.5,10,match,36.05,323,342,361,379,398,9,9,9,9,9,,,,,,,2,0,2,0,0,2,2,27,,,,,,,,,,,,,,4,1.7859900000039488,4,0.35,0.35,12.61502,return,1.8095356000121683,,,,,,,,,,,,,,,,,p301,19,female,up_down_width,2025-12-09_11h37.49.566,exp1,2023.1.0,59.96336238583155,
,,,,,,,,,,,,,,,,3,7.800000000000001,10,12.2,0,0,2.1999999999999997,1.7999999999999998,0.4,4.8,10,match,36.05,281,361,440,0,0,9,9,9,0,0,,,,,,,2,0,2,0,0,3,3,39,,,,,,,,,,,,,,3,1.7663010000251234,3,0.35,0.35,12.61502,return,1.0704272000002675,,,,,,,,,,,,,,,,,p301,19,female,up_down_width,2025-12-09_11h37.49.566,exp1,2023.1.0,59.96336238583155,
,,,,,,,,,,,,,,,,3,8.2,10,11.8,0,0,1.8,1.55,0.25,3.85,10,match,36.05,296,361,425,0,0,9,9,9,0,0,,,,,,,2,0,2,0,0,4,4,49,,,,,,,,,,,,,,3,1.7164880000054836,3,0.4,0.25000000000000006,9.01073,return,2.3026475999504328,,,,,,,,,,,,,,,,,p301,19,female,up_down_width,2025-12-09_11h37.49.566,exp1,2023.1.0,59.96336238583155,
,,,,,,,,,,,,,,,,5,7.8,8.9,10,11.1,12.2,1.1,0.7000000000000001,0.4,4.800000000000001,10,initial,36.05,281,321,361,400,440,9,9,9,9,9,,,,,,,2,0,2,0,0,5,5,38,,,,,,,,,,,,,,5,2.965403600013815,5,0.5,0.30000000000000004,10.81288,return,2.8617845000117086,,,,,,,,,,,,,,,,,p301,19,female,up_down_width,2025-12-09_11h37.49.566,exp1,2023.1.0,59.96336238583155,
,,,,,,,,,,,,,,,,3,8.6,10,11.4,0,0,1.4,1.15,0.25,3.05,10,match,36.05,310,361,411,0,0,9,9,9,0,0,,,,,,,2,0,2,0,0,6,6,43,,,,,,,,,,,,,,2,1.9893266999861225,2,0.4,0.25000000000000006,9.01073,return,1.9884208999574184,,,,,,,,,,,,,,,,,p301,19,female,up_down_width,2025-12-09_11h37.49.566,exp1,2023.1.0,59.96336238583155,
,,,,,,,,,,,,,,,,5,8.35,9.175,10,10.825,11.65,0.8250000000000001,0.275,0.55,3.85,10,match,36.05,301,331,361,390,420,9,9,9,9,9,,,,,,,2,0,2,0,0,7,7,18,,,,,,,,,,,,,,5,2.557149300002493,5,0.35,0.39999999999999997,14.41717,return,1.5264460000325926,,,,,,,,,,,,,,,,,p301,19,female,up_down_width,2025-12-09_11h37.49.566,exp1,2023.1.0,59.96336238583155,
,,,,,,,,,,,,,,,,5,8.2,9.1,10,10.9,11.8,0.9,0.65,0.25,3.85,10,initial,36.05,296,328,361,393,425,9,9,9,9,9,,,,,,,2,0,2,0,0,8,8,48,,,,,,,,,,,,,,5,3.1148735000169836,5,0.35,0.25,9.01073,return,3.0532206000061706,,,,,,,,,,,,,,,,,p301,19,female,up_down_width,2025-12-09_11h37.49.566,exp1,2023.1.0,59.96336238583155,
,,,,,,,,,,,,,,,,3,8.9,10,11.1,0,0,1.1,0.55,0.55,2.75,10,initial,36.05,321,361,400,0,0,9,9,9,0,0,,,,,,,2,0,2,0,0,9,9,0,,,,,,,,,,,,,,2,1.7181273000314832,2,0.55,0.4,14.41717,return,2.1278148000128567,,,,,,,,,,,,,,,,,p301,19,female,up_down_width,2025-12-09_11h37.49.566,exp1,2023.1.0,59.96336238583155,
,,,,,,,,,,,,,,,,4,9.3,9.766666666666667,10.233333333333333,10.7,0,0.4666666666666667,0.21666666666666665,0.25,1.65,10,match,36.05,335,352,369,386,0,9,9,9,9,0,,,,,,,2,0,2,0,0,10,10,8,,,,,,,,,,,,,,3,1.7991894999868236,3,0.25,0.2,7.20859,return,2.5111685000010766,,,,,,,,,,,,,,,,,p301,19,female,up_down_width,2025-12-09_11h37.49.566,exp1,2023.1.0,59.96336238583155,
,,,,,,,,,,,,,,,,5,8.2,9.1,10,10.9,11.8,0.9,0.35,0.55,4.15,10,initial,36.05,296,328,361,393,425,9,9,9,9,9,,,,,,,2,0,2,0,0,11,11,46,,,,,,,,,,,,,,3,1.58213799999794,3,0.25,0.39999999999999997,14.41717,return,2.2690159999765456,,,,,,,,,,,,,,,,,p301,19,female,up_down_width,2025-12-09_11h37.49.566,exp1,2023.1.0,59.96336238583155,
,,,,,,,,,,,,,,,,4,8.65,9.55,10.45,11.35,0,0.9,0.5,0.4,3.1,10,initial,36.05,312,344,377,409,0,9,9,9,9,0,,,,,,,2,0,2,0,0,12,12,32,,,,,,,,,,,,,,3,1.5158055000356399,3,0.55,0.35000000000000003,12.61502,return,2.2383032999932766,,,,,,,,,,,,,,,,,p301,19,female,up_down_width,2025-12-09_11h37.49.566,exp1,2023.1.0,59.96336238583155,
,,,,,,,,,,,,,,,,4,8.35,9.45,10.55,11.65,0,1.1,0.55,0.55,3.8500000000000005,10,initial,36.05,301,341,380,420,0,9,9,9,9,0,,,,,,,2,0,2,0,0,13,13,17,,,,,,,,,,,,,,3,1.5323415999882855,3,0.2,0.44999999999999996,16.21932,return,2.414295900030993,,,,,,,,,,,,,,,,,p301,19,female,up_down_width,2025-12-09_11h37.49.566,exp1,2023.1.0,59.96336238583155,
,,,,,,,,,,,,,,,,4,9.1,9.7,10.3,10.9,0,0.6000000000000001,0.20000000000000004,0.4,2.2,10,match,36.05,328,350,371,393,0,9,9,9,9,0,,,,,,,2,0,2,0,0,14,14,16,,,,,,,,,,,,,,3,1.7016624999814667,3,0.55,0.30000000000000004,10.81288,return,3.072509599965997,,,,,,,,,,,,,,,,,p301,19,female,up_down_width,2025-12-09_11h37.49.566,exp1,2023.1.0,59.96336238583155,
,,,,,,,,,,,,,,,,4,8.9,9.633333333333333,10.366666666666667,11.1,0,0.7333333333333333,0.18333333333333326,0.55,2.75,10,match,36.05,321,347,374,400,0,9,9,9,9,0,,,,,,,2,0,2,0,0,15,15,1,,,,,,,,,,,,,,3,1.3279739000136033,3,0.45,0.45,16.21932,return,2.2009062999859452,,,,,,,,,,,,,,,,,p301,19,female,up_down_width,2025-12-09_11h37.49.566,exp1,2023.1.0,59.96336238583155,
,,,,,,,,,,,,,,,,3,9.3,10,10.7,0,0,0.7,0.44999999999999996,0.25,1.65,10,initial,36.05,335,361,386,0,0,9,9,9,0,0,,,,,,,2,0,2,0,0,16,16,7,,,,,,,,,,,,,,2,1.5793187000090256,2,0.35,0.2,7.20859,return,1.8828528999583796,,,,,,,,,,,,,,,,,p301,19,female,up_down_width,2025-12-09_11h37.49.566,exp1,2023.1.0,59.96336238583155,
,,,,,,,,,,,,,,,,4,8.35,9.45,10.55,11.65,0,1.1,0.8500000000000001,0.25,3.5500000000000003,10,initial,36.05,301,341,380,420,0,9,9,9,9,0,,,,,,,2,0,2,0,0,17,17,19,,,,,,,,,,,,,,3,1.4423957000253722,3,0.4,0.20000000000000007,7.20859,return,2.632613900001161,,,,,,,,,,,,,,,,,p301,19,female,up_down_width,2025-12-09_11h37.49.566,exp1,2023.1.0,59.96336238583155,
,,,,,,,,,,,,,,,,3,9.1,10,10.9,0,0,0.9,0.35,0.55,2.35,10,initial,36.05,328,361,393,0,0,9,9,9,0,0,,,,,,,2,0,2,0,0,18,18,11,,,,,,,,,,,,,,2,1.2075713999802247,2,0.35,0.39999999999999997,14.41717,return,1.4630733000230975,,,,,,,,,,,,,,,,,p301,19,female,up_down_width,2025-12-09_11h37.49.566,exp1,2023.1.0,59.96336238583155,
,,,,,,,,,,,,,,,,4,8.825,9.608333333333333,10.391666666666667,11.175,0,0.7833333333333333,0.5333333333333333,0.25,2.6,10,match,36.05,318,346,375,403,0,9,9,9,9,0,,,,,,,2,0,2,0,0,19,19,5,,,,,,,,,,,,,,4,1.9575248999753967,4,0.4,0.20000000000000007,7.20859,return,2.101395900011994,,,,,,,,,,,,,,,,,p301,19,female,up_down_width,2025-12-09_11h37.49.566,exp1,2023.1.0,59.96336238583155,
,,,,,,,,,,,,,,,,3,8.9,10,11.1,0,0,1.1,0.8500000000000001,0.25,2.45,10,initial,36.05,321,361,400,0,0,9,9,9,0,0,,,,,,,2,0,2,0,0,20,20,2,,,,,,,,,,,,,,2,1.2850323000457138,2,0.3,0.2,7.20859,return,1.9843727999832481,,,,,,,,,,,,,,,,,p301,19,female,up_down_width,2025-12-09_11h37.49.566,exp1,2023.1.0,59.96336238583155,
,,,,,,,,,,,,,,,,5,8.65,9.325,10,10.675,11.35,0.675,0.125,0.55,3.25,10,match,36.05,312,336,361,385,409,9,9,9,9,9,,,,,,,2,0,2,0,0,21,21,29,,,,,,,,,,,,,,4,3.66298890003236,4,0.5,0.45,16.21932,return,1.4676606999710202,,,,,,,,,,,,,,,,,p301,19,female,up_down_width,2025-12-09_11h37.49.566,exp1,2023.1.0,59.96336238583155,
,,,,,,,,,,,,,,,,5,8.6,9.3,10,10.7,11.4,0.7,0.29999999999999993,0.4,3.1999999999999997,10,initial,36.05,310,335,361,386,411,9,9,9,9,9,,,,,,,2,0,2,0,0,22,22,44,,,,,,,,,,,,,,5,1.2181406000163406,5,0.25,0.25,9.01073,return,1.5828910000273027,,,,,,,,,,,,,,,,,p301,19,female,up_down_width,2025-12-09_11h37.49.566,exp1,2023.1.0,59.96336238583155,
,,,,,,,,,,,,,,,,5,8.65,9.325,10,10.675,11.35,0.675,0.275,0.4,3.1,10,match,36.05,312,336,361,385,409,9,9,9,9,9,,,,,,,2,0,2,0,0,23,23,33,,,,,,,,,,,,,,5,1.4792344000306912,5,0.4,0.25000000000000006,9.01073,return,2.2675275999936275,,,,,,,,,,,,,,,,,p301,19,female,up_down_width,2025-12-09_11h37.49.566,exp1,2023.1.0,59.96336238583155,
,,,,,,,,,,,,,,,,5,8.6,9.3,10,10.7,11.4,0.7,0.1499999999999999,0.55,3.3499999999999996,10,initial,36.05,310,335,361,386,411,9,9,9,9,9,,,,,,,2,0,2,0,0,24,24,40,,,,,,,,,,,,,,4,1.5437354000168853,4,0.2,0.39999999999999997,14.41717,return,2.6662051000166684,,,,,,,,,,,,,,,,,p301,19,female,up_down_width,2025-12-09_11h37.49.566,exp1,2023.1.0,59.96336238583155,
,,,,,,,,,,,,,,,,5,8.35,9.175,10,10.825,11.65,0.825,0.575,0.25,3.55,10,match,36.05,301,331,361,390,420,9,9,9,9,9,,,,,,,2,0,2,0,0,25,25,20,,,,,,,,,,,,,,4,2.562593200011179,4,0.5,0.25000000000000006,9.01073,return,2.507244900043588,,,,,,,,,,,,,,,,,p301,19,female,up_down_width,2025-12-09_11h37.49.566,exp1,2023.1.0,59.96336238583155,
,,,,,,,,,,,,,,,,5,8.65,9.325,10,10.675,11.35,0.675,0.42500000000000004,0.25,2.95,10,match,36.05,312,336,361,385,409,9,9,9,9,9,,,,,,,2,0,2,0,0,26,26,31,,,,,,,,,,,,,,5,2.374454499979038,5,0.55,0.15000000000000008,5.40644,return,3.350842999992892,,,,,,,,,,,,,,,,,p301,19,female,up_down_width,2025-12-09_11h37.49.566,exp1,2023.1.0,59.96336238583155,
,,,,,,,,,,,,,,,,3,8.2,10,11.8,0,0,1.7999999999999998,1.4,0.4,4,10,match,36.05,296,361,425,0,0,9,9,9,0,0,,,,,,,2,0,2,0,0,27,27,51,,,,,,,,,,,,,,3,1.8069336999906227,3,0.55,0.25000000000000006,9.01073,return,3.4931721999892034,,,,,,,,,,,,,,,,,p301,19,female,up_down_width,2025-12-09_11h37.49.566,exp1,2023.1.0,59.96336238583155,
,,,,,,,,,,,,,,,,3,9.1,10,10.9,0,0,0.9,0.65,0.25,2.05,10,initial,36.05,328,361,393,0,0,9,9,9,0,0,,,,,,,2,0,2,0,0,28,28,13,,,,,,,,,,,,,,2,1.4840422000270337,2,0.3,0.2,7.20859,return,2.127871199976653,,,,,,,,,,,,,,,,,p301,19,female,up_down_width,2025-12-09_11h37.49.566,exp1,2023.1.0,59.96336238583155,
,,,,,,,,,,,,,,,,3,9.3,10,10.7,0,0,0.7,0.29999999999999993,0.4,1.8,10,initial,36.05,335,361,386,0,0,9,9,9,0,0,,,,,,,2,0,2,0,0,29,29,9,,,,,,,,,,,,,,2,1.357955499959644,2,0.35,0.35,12.61502,return,1.511271100025624,,,,,,,,,,,,,,,,,p301,19,female,up_down_width,2025-12-09_11h37.49.566,exp1,2023.1.0,59.96336238583155,
,,,,,,,,,,,,,,,,4,8.95,9.65,10.35,11.05,0,0.7,0.44999999999999996,0.25,2.3499999999999996,10,initial,36.05,323,348,373,398,0,9,9,9,9,0,,,,,,,2,0,2,0,0,30,30,24,,,,,,,,,,,,,,3,2.09938869997859,3,0.5,0.30000000000000004,10.81288,return,2.206043799989857,,,,,,,,,,,,,,,,,p301,19,female,up_down_width,2025-12-09_11h37.49.566,exp1,2023.1.0,59.96336238583155,
,,,,,,,,,,,,,,,,4,8.35,9.45,10.55,11.65,0,1.1,0.7000000000000001,0.4,3.7,10,initial,36.05,301,341,380,420,0,9,9,9,9,0,,,,,,,2,0,2,0,0,31,31,21,,,,,,,,,,,,,,3,2.3276565999840386,3,0.45,0.30000000000000004,10.81288,return,2.425913299957756,,,,,,,,,,,,,,,,,p301,19,female,up_down_width,2025-12-09_11h37.49.566,exp1,2023.1.0,59.96336238583155,
,,,,,,,,,,,,,,,,3,8.6,10,11.4,0,0,1.4,0.85,0.55,3.35,10,match,36.05,310,361,411,0,0,9,9,9,0,0,,,,,,,2,0,2,0,0,32,32,41,,,,,,,,,,,,,,2,2.308545099978801,2,0.2,0.39999999999999997,14.41717,return,3.2394693000242114,,,,,,,,,,,,,,,,,p301,19,female,up_down_width,2025-12-09_11h37.49.566,exp1,2023.1.0,59.96336238583155,
,,,,,,,,,,,,,,,,3,7.8,10,12.2,0,0,2.2,1.65,0.55,4.95,10,match,36.05,281,361,440,0,0,9,9,9,0,0,,,,,,,2,0,2,0,0,33,33,35,,,,,,,,,,,,,,3,2.2105426999623887,3,0.45,0.4,14.41717,return,2.7303719999617897,,,,,,,,,,,,,,,,,p301,19,female,up_down_width,2025-12-09_11h37.49.566,exp1,2023.1.0,59.96336238583155,
,,,,,,,,,,,,,,,,3,9.1,10,10.9,0,0,0.9,0.5,0.4,2.2,10,initial,36.05,328,361,393,0,0,9,9,9,0,0,,,,,,,2,0,2,0,0,34,34,15,,,,,,,,,,,,,,2,1.6063311999896541,2,0.55,0.45,16.21932,return,1.5092883000033908,,,,,,,,,,,,,,,,,p301,19,female,up_down_width,2025-12-09_11h37.49.566,exp1,2023.1.0,59.96336238583155,
,,,,,,,,,,,,,,,,3,8.2,10,11.8,0,0,1.8,1.25,0.55,4.15,10,match,36.05,296,361,425,0,0,9,9,9,0,0,,,,,,,2,0,2,0,0,35,35,47,,,,,,,,,,,,,,2,1.5448517999611795,2,0.35,0.49999999999999994,18.02146,return,2.2181201999774203,,,,,,,,,,,,,,,,,p301,19,female,up_down_width,2025-12-09_11h37.49.566,exp1,2023.1.0,59.96336238583155,
,,,,,,,,,,,,,,,,4,8.9,9.633333333333333,10.366666666666667,11.1,0,0.7333333333333334,0.4833333333333334,0.25,2.45,10,match,36.05,321,347,374,400,0,9,9,9,9,0,,,,,,,2,0,2,0,0,36,36,3,,,,,,,,,,,,,,3,1.8903217000188306,3,0.45,0.20000000000000007,7.20859,return,2.5012880000285804,,,,,,,,,,,,,,,,,p301,19,female,up_down_width,2025-12-09_11h37.49.566,exp1,2023.1.0,59.96336238583155,
,,,,,,,,,,,,,,,,5,7.8,8.9,10,11.1,12.2,1.1,0.55,0.55,4.95,10,initial,36.05,281,321,361,400,440,9,9,9,9,9,,,,,,,2,0,2,0,0,37,37,34,,,,,,,,,,,,,,4,1.562033900001552,4,0.4,0.45,16.21932,return,1.801165500015486,,,,,,,,,,,,,,,,,p301,19,female,up_down_width,2025-12-09_11h37.49.566,exp1,2023.1.0,59.96336238583155,
,,,,,,,,,,,,,,,,3,8.9,10,11.1,0,0,1.1,0.7000000000000001,0.4,2.6000000000000005,10,initial,36.05,321,361,400,0,0,9,9,9,0,0,,,,,,,2,0,2,0,0,38,38,4,,,,,,,,,,,,,,2,1.844554099952802,2,0.35,0.3,10.81288,return,2.521831399993971,,,,,,,,,,,,,,,,,p301,19,female,up_down_width,2025-12-09_11h37.49.566,exp1,2023.1.0,59.96336238583155,
,,,,,,,,,,,,,,,,5,8.95,9.475,10,10.525,11.05,0.525,0.275,0.25,2.35,10,match,36.05,323,342,361,379,398,9,9,9,9,9,,,,,,,2,0,2,0,0,39,39,25,,,,,,,,,,,,,,5,2.5821676999912597,5,0.45,0.20000000000000007,7.20859,return,2.6857773000374436,,,,,,,,,,,,,,,,,p301,19,female,up_down_width,2025-12-09_11h37.49.566,exp1,2023.1.0,59.96336238583155,
,,,,,,,,,,,,,,,,4,8.65,9.55,10.45,11.35,0,0.9,0.65,0.25,2.95,10,initial,36.05,312,344,377,409,0,9,9,9,9,0,,,,,,,2,0,2,0,0,40,40,30,,,,,,,,,,,,,,3,2.1211350000230595,3,0.45,0.25000000000000006,9.01073,return,1.987830900005065,,,,,,,,,,,,,,,,,p301,19,female,up_down_width,2025-12-09_11h37.49.566,exp1,2023.1.0,59.96336238583155,
,,,,,,,,,,,,,,,,3,8.525,10,11.475,0,0,1.475,1.225,0.25,3.2,10,match,36.05,307,361,414,0,0,9,9,9,0,0,,,,,,,2,0,2,0,0,41,41,45,,,,,,,,,,,,,,3,1.8684299999731593,3,0.5,0.15000000000000008,5.40644,return,2.673144400003366,,,,,,,,,,,,,,,,,p301,19,female,up_down_width,2025-12-09_11h37.49.566,exp1,2023.1.0,59.96336238583155,
,,,,,,,,,,,,,,,,5,7.8,8.9,10,11.1,12.2,1.1,0.8500000000000001,0.25,4.65,10,initial,36.05,281,321,361,400,440,9,9,9,9,9,,,,,,,2,0,2,0,0,42,42,36,,,,,,,,,,,,,,5,1.3163948000292294,5,0.25,0.10000000000000002,3.60429,return,1.8209526999853551,,,,,,,,,,,,,,,,,p301,19,female,up_down_width,2025-12-09_11h37.49.566,exp1,2023.1.0,59.96336238583155,
,,,,,,,,,,,,,,,,5,8.6,9.3,10,10.7,11.4,0.7,0.44999999999999996,0.25,3.05,10,initial,36.05,310,335,361,386,411,9,9,9,9,9,,,,,,,2,0,2,0,0,43,43,42,,,,,,,,,,,,,,5,1.7492747000069357,5,0.4,0.10000000000000007,3.60429,return,2.75041959999362,,,,,,,,,,,,,,,,,p301,19,female,up_down_width,2025-12-09_11h37.49.566,exp1,2023.1.0,59.96336238583155,
,,,,,,,,,,,,,,,,4,8.95,9.65,10.35,11.05,0,0.7,0.29999999999999993,0.4,2.5,10,initial,36.05,323,348,373,398,0,9,9,9,9,0,,,,,,,2,0,2,0,0,44,44,26,,,,,,,,,,,,,,5,1.397018100018613,5,0.2,0.3,10.81288,return,1.9161008999799378,,,,,,,,,,,,,,,,,p301,19,female,up_down_width,2025-12-09_11h37.49.566,exp1,2023.1.0,59.96336238583155,
,,,,,,,,,,,,,,,,4,9.3,9.766666666666667,10.233333333333333,10.7,0,0.4666666666666667,0.06666666666666665,0.4,1.8,10,match,36.05,335,352,369,386,0,9,9,9,9,0,,,,,,,2,0,2,0,0,45,45,10,,,,,,,,,,,,,,4,1.8853731999988668,4,0.3,0.3,10.81288,return,1.5849376000114717,,,,,,,,,,,,,,,,,p301,19,female,up_down_width,2025-12-09_11h37.49.566,exp1,2023.1.0,59.96336238583155,
,,,,,,,,,,,,,,,,4,8.65,9.55,10.45,11.35,0,0.9,0.35,0.55,3.25,10,initial,36.05,312,344,377,409,0,9,9,9,9,0,,,,,,,2,0,2,0,0,46,46,28,,,,,,,,,,,,,,3,2.6912836999981664,3,0.55,0.4,14.41717,return,2.502885400026571,,,,,,,,,,,,,,,,,p301,19,female,up_down_width,2025-12-09_11h37.49.566,exp1,2023.1.0,59.96336238583155,
,,,,,,,,,,,,,,,,4,9.1,9.7,10.3,10.9,0,0.6,0.04999999999999997,0.55,2.35,10,match,36.05,328,350,371,393,0,9,9,9,9,0,,,,,,,2,0,2,0,0,47,47,12,,,,,,,,,,,,,,3,2.6674181999987923,3,0.4,0.45,16.21932,return,2.416286100051366,,,,,,,,,,,,,,,,,p301,19,female,up_down_width,2025-12-09_11h37.49.566,exp1,2023.1.0,59.96336238583155,
,,,,,,,,,,,,,,,,5,8.275,9.1375,10,10.8625,11.725,0.8625,0.6125,0.25,3.7,10,match,36.05,298,329,361,392,423,9,9,9,9,9,,,,,,,2,0,2,0,0,48,48,22,,,,,,,,,,,,,,5,1.9744400000199676,5,0.45,0.20000000000000007,7.20859,return,2.774567799991928,,,,,,,,,,,,,,,,,p301,19,female,up_down_width,2025-12-09_11h37.49.566,exp1,2023.1.0,59.96336238583155,
,,,,,,,,,,,,,,,,3,7.8,10,12.2,0,0,2.2,1.9500000000000002,0.25,4.65,10,match,36.05,281,361,440,0,0,9,9,9,0,0,,,,,,,2,0,2,0,0,49,49,37,,,,,,,,,,,,,,3,2.4482553000561893,3,0.45,0.20000000000000007,7.20859,return,2.0298575999913737,,,,,,,,,,,,,,,,,p301,19,female,up_down_width,2025-12-09_11h37.49.566,exp1,2023.1.0,59.96336238583155,
,,,,,,,,,,,,,,,,4,8.95,9.65,10.35,11.05,0,0.7,0.1499999999999999,0.55,2.65,10,initial,36.05,323,348,373,398,0,9,9,9,9,0,,,,,,,2,0,2,0,0,50,50,23,,,,,,,,,,,,,,2,1.637358799984213,2,0.55,0.5,18.02146,return,1.1861011000000872,,,,,,,,,,,,,,,,,p301,19,female,up_down_width,2025-12-09_11h37.49.566,exp1,2023.1.0,59.96336238583155,
,,,,,,,,,,,,,,,,4,9.1,9.7,10.3,10.9,0,0.5999999999999999,0.3499999999999999,0.25,2.05,10,match,36.05,328,350,371,393,0,9,9,9,9,0,,,,,,,2,0,2,0,0,51,51,14,,,,,,,,,,,,,,3,2.3300175999756902,3,0.5,0.25000000000000006,9.01073,return,2.348200000007637,,,,,,,,,,,,,,,,,p301,19,female,up_down_width,2025-12-09_11h37.49.566,exp1,2023.1.0,59.96336238583155,
,,,,,,,,,,,,,,,,,,,,,,,,,,,,,,,,,,,,,,,,,,,,,2,0,2,0,,,,,,,,,,,,,,,,,,,,,,,,,,,,1705.0774555000244,1705.0774555000244,1705.0774555000244,,,,,,,,,,,,p301,19,female,up_down_width,2025-12-09_11h37.49.566,exp1,2023.1.0,59.96336238583155,
,,,,,,,,,,,,,,,,4,8.95,9.65,10.35,11.05,0,0.7,0.1499999999999999,0.55,2.65,10,initial,36.05,323,348,373,398,0,9,9,9,9,0,,,,,,,3,0,3,0,0,0,0,23,,,,,,,,,,,,,,2,1.5859892999869771,2,0.25,0.35,12.61502,return,3.6810126999625936,,,,,,,,,,,,,,,,,p301,19,female,up_down_width,2025-12-09_11h37.49.566,exp1,2023.1.0,59.96336238583155,
,,,,,,,,,,,,,,,,4,9.1,9.7,10.3,10.9,0,0.5999999999999999,0.3499999999999999,0.25,2.05,10,match,36.05,328,350,371,393,0,9,9,9,9,0,,,,,,,3,0,3,0,0,1,1,14,,,,,,,,,,,,,,3,1.0994555000215769,3,0.4,0.25000000000000006,9.01073,return,2.014170100039337,,,,,,,,,,,,,,,,,p301,19,female,up_down_width,2025-12-09_11h37.49.566,exp1,2023.1.0,59.96336238583155,
,,,,,,,,,,,,,,,,5,8.2,9.1,10,10.9,11.8,0.9,0.5,0.4,4,10,initial,36.05,296,328,361,393,425,9,9,9,9,9,,,,,,,3,0,3,0,0,2,2,50,,,,,,,,,,,,,,5,1.3188481999677606,5,0.3,0.3,10.81288,return,1.441560999955982,,,,,,,,,,,,,,,,,p301,19,female,up_down_width,2025-12-09_11h37.49.566,exp1,2023.1.0,59.96336238583155,
,,,,,,,,,,,,,,,,5,8.6,9.3,10,10.7,11.4,0.7,0.1499999999999999,0.55,3.3499999999999996,10,initial,36.05,310,335,361,386,411,9,9,9,9,9,,,,,,,3,0,3,0,0,3,3,40,,,,,,,,,,,,,,5,2.477985900011845,5,0.2,0.35,12.61502,return,1.9464028000365943,,,,,,,,,,,,,,,,,p301,19,female,up_down_width,2025-12-09_11h37.49.566,exp1,2023.1.0,59.96336238583155,
,,,,,,,,,,,,,,,,5,8.35,9.175,10,10.825,11.65,0.8250000000000001,0.275,0.55,3.85,10,match,36.05,301,331,361,390,420,9,9,9,9,9,,,,,,,3,0,3,0,0,4,4,18,,,,,,,,,,,,,,5,1.380253899958916,5,0.25,0.35,12.61502,return,2.091319300001487,,,,,,,,,,,,,,,,,p301,19,female,up_down_width,2025-12-09_11h37.49.566,exp1,2023.1.0,59.96336238583155,
,,,,,,,,,,,,,,,,3,9.3,10,10.7,0,0,0.7,0.1499999999999999,0.55,1.95,10,initial,36.05,335,361,386,0,0,9,9,9,0,0,,,,,,,3,0,3,0,0,5,5,6,,,,,,,,,,,,,,2,1.680465399986133,2,0.4,0.5,18.02146,return,3.5658678999752738,,,,,,,,,,,,,,,,,p301,19,female,up_down_width,2025-12-09_11h37.49.566,exp1,2023.1.0,59.96336238583155,
,,,,,,,,,,,,,,,,4,8.95,9.65,10.35,11.05,0,0.7,0.44999999999999996,0.25,2.3499999999999996,10,initial,36.05,323,348,373,398,0,9,9,9,9,0,,,,,,,3,0,3,0,0,6,6,24,,,,,,,,,,,,,,3,2.0343951000249945,3,0.55,0.20000000000000007,7.20859,return,2.8950415999861434,,,,,,,,,,,,,,,,,p301,19,female,up_down_width,2025-12-09_11h37.49.566,exp1,2023.1.0,59.96336238583155,
,,,,,,,,,,,,,,,,5,8.95,9.475,10,10.525,11.05,0.525,0.125,0.4,2.5,10,match,36.05,323,342,361,379,398,9,9,9,9,9,,,,,,,3,0,3,0,0,7,7,27,,,,,,,,,,,,,,5,2.181256400013808,5,0.2,0.25,9.01073,return,1.7084642000263557,,,,,,,,,,,,,,,,,p301,19,female,up_down_width,2025-12-09_11h37.49.566,exp1,2023.1.0,59.96336238583155,
,,,,,,,,,,,,,,,,3,8.9,10,11.1,0,0,1.1,0.8500000000000001,0.25,2.45,10,initial,36.05,321,361,400,0,0,9,9,9,0,0,,,,,,,3,0,3,0,0,8,8,2,,,,,,,,,,,,,,2,1.4346895000198856,2,0.5,0.15000000000000008,5.40644,return,2.961286499979906,,,,,,,,,,,,,,,,,p301,19,female,up_down_width,2025-12-09_11h37.49.566,exp1,2023.1.0,59.96336238583155,
,,,,,,,,,,,,,,,,3,8.9,10,11.1,0,0,1.1,0.7000000000000001,0.4,2.6000000000000005,10,initial,36.05,321,361,400,0,0,9,9,9,0,0,,,,,,,3,0,3,0,0,9,9,4,,,,,,,,,,,,,,2,1.2351334000122733,2,0.2,0.3,10.81288,return,2.2721403000177816,,,,,,,,,,,,,,,,,p301,19,female,up_down_width,2025-12-09_11h37.49.566,exp1,2023.1.0,59.96336238583155,
,,,,,,,,,,,,,,,,3,8.2,10,11.8,0,0,1.7999999999999998,1.4,0.4,4,10,match,36.05,296,361,425,0,0,9,9,9,0,0,,,,,,,3,0,3,0,0,10,10,51,,,,,,,,,,,,,,3,1.299222900008317,3,0.25,0.3,10.81288,return,2.157216999970842,,,,,,,,,,,,,,,,,p301,19,female,up_down_width,2025-12-09_11h37.49.566,exp1,2023.1.0,59.96336238583155,
,,,,,,,,,,,,,,,,3,8.9,10,11.1,0,0,1.1,0.55,0.55,2.75,10,initial,36.05,321,361,400,0,0,9,9,9,0,0,,,,,,,3,0,3,0,0,11,11,0,,,,,,,,,,,,,,2,1.5035781000042334,2,0.4,0.30000000000000004,10.81288,return,2.35243760002777,,,,,,,,,,,,,,,,,p301,19,female,up_down_width,2025-12-09_11h37.49.566,exp1,2023.1.0,59.96336238583155,
,,,,,,,,,,,,,,,,3,7.8,10,12.2,0,0,2.2,1.9500000000000002,0.25,4.65,10,match,36.05,281,361,440,0,0,9,9,9,0,0,,,,,,,3,0,3,0,0,12,12,37,,,,,,,,,,,,,,3,1.492438699991908,3,0.2,0.25,9.01073,return,1.8466135000344366,,,,,,,,,,,,,,,,,p301,19,female,up_down_width,2025-12-09_11h37.49.566,exp1,2023.1.0,59.96336238583155,
,,,,,,,,,,,,,,,,4,8.65,9.55,10.45,11.35,0,0.9,0.65,0.25,2.95,10,initial,36.05,312,344,377,409,0,9,9,9,9,0,,,,,,,3,0,3,0,0,13,13,30,,,,,,,,,,,,,,3,1.8606261999811977,3,0.2,0.2,7.20859,return,1.8174008000059985,,,,,,,,,,,,,,,,,p301,19,female,up_down_width,2025-12-09_11h37.49.566,exp1,2023.1.0,59.96336238583155,
,,,,,,,,,,,,,,,,4,8.95,9.65,10.35,11.05,0,0.7,0.29999999999999993,0.4,2.5,10,initial,36.05,323,348,373,398,0,9,9,9,9,0,,,,,,,3,0,3,0,0,14,14,26,,,,,,,,,,,,,,3,1.406684099987615,3,0.2,0.25,9.01073,return,1.7323034000000916,,,,,,,,,,,,,,,,,p301,19,female,up_down_width,2025-12-09_11h37.49.566,exp1,2023.1.0,59.96336238583155,
,,,,,,,,,,,,,,,,5,8.2,9.1,10,10.9,11.8,0.9,0.35,0.55,4.15,10,initial,36.05,296,328,361,393,425,9,9,9,9,9,,,,,,,3,0,3,0,0,15,15,46,,,,,,,,,,,,,,5,1.4522403000155464,5,0.2,0.39999999999999997,14.41717,return,2.225960799958557,,,,,,,,,,,,,,,,,p301,19,female,up_down_width,2025-12-09_11h37.49.566,exp1,2023.1.0,59.96336238583155,
,,,,,,,,,,,,,,,,5,8.2,9.1,10,10.9,11.8,0.9,0.65,0.25,3.85,10,initial,36.05,296,328,361,393,425,9,9,9,9,9,,,,,,,3,0,3,0,0,16,16,48,,,,,,,,,,,,,,5,1.86193989997264,5,0.45,0.20000000000000007,7.20859,return,2.8104306000168435,,,,,,,,,,,,,,,,,p301,19,female,up_down_width,2025-12-09_11h37.49.566,exp1,2023.1.0,59.96336238583155,
,,,,,,,,,,,,,,,,5,8.275,9.1375,10,10.8625,11.725,0.8625,0.6125,0.25,3.7,10,match,36.05,298,329,361,392,423,9,9,9,9,9,,,,,,,3,0,3,0,0,17,17,22,,,,,,,,,,,,,,5,2.044366199988872,5,0.3,0.2,7.20859,return,1.6262058999855071,,,,,,,,,,,,,,,,,p301,19,female,up_down_width,2025-12-09_11h37.49.566,exp1,2023.1.0,59.96336238583155,
,,,,,,,,,,,,,,,,5,8.65,9.325,10,10.675,11.35,0.675,0.42500000000000004,0.25,2.95,10,match,36.05,312,336,361,385,409,9,9,9,9,9,,,,,,,3,0,3,0,0,18,18,31,,,,,,,,,,,,,,5,1.6903122999938205,5,0.45,0.20000000000000007,7.20859,return,2.0528828999958932,,,,,,,,,,,,,,,,,p301,19,female,up_down_width,2025-12-09_11h37.49.566,exp1,2023.1.0,59.96336238583155,
,,,,,,,,,,,,,,,,4,9.3,9.766666666666667,10.233333333333333,10.7,0,0.4666666666666667,0.06666666666666665,0.4,1.8,10,match,36.05,335,352,369,386,0,9,9,9,9,0,,,,,,,3,0,3,0,0,19,19,10,,,,,,,,,,,,,,4,1.8883909999858588,4,0.35,0.2,7.20859,return,2.7718487000092864,,,,,,,,,,,,,,,,,p301,19,female,up_down_width,2025-12-09_11h37.49.566,exp1,2023.1.0,59.96336238583155,
,,,,,,,,,,,,,,,,4,9.3,9.766666666666667,10.233333333333333,10.7,0,0.4666666666666667,0.21666666666666665,0.25,1.65,10,match,36.05,335,352,369,386,0,9,9,9,9,0,,,,,,,3,0,3,0,0,20,20,8,,,,,,,,,,,,,,4,2.043446200026665,4,0.55,0.20000000000000007,7.20859,return,2.584422899992205,,,,,,,,,,,,,,,,,p301,19,female,up_down_width,2025-12-09_11h37.49.566,exp1,2023.1.0,59.96336238583155,
,,,,,,,,,,,,,,,,5,8.6,9.3,10,10.7,11.4,0.7,0.44999999999999996,0.25,3.05,10,initial,36.05,310,335,361,386,411,9,9,9,9,9,,,,,,,3,0,3,0,0,21,21,42,,,,,,,,,,,,,,5,3.2595575000159442,5,0.35,0.2,7.20859,return,2.0867998000467196,,,,,,,,,,,,,,,,,p301,19,female,up_down_width,2025-12-09_11h37.49.566,exp1,2023.1.0,59.96336238583155,
,,,,,,,,,,,,,,,,3,8.6,10,11.4,0,0,1.4,0.85,0.55,3.35,10,match,36.05,310,361,411,0,0,9,9,9,0,0,,,,,,,3,0,3,0,0,22,22,41,,,,,,,,,,,,,,2,1.5273625999689102,2,0.2,0.39999999999999997,14.41717,return,2.9359652000130154,,,,,,,,,,,,,,,,,p301,19,female,up_down_width,2025-12-09_11h37.49.566,exp1,2023.1.0,59.96336238583155,
,,,,,,,,,,,,,,,,3,8.2,10,11.8,0,0,1.8,1.55,0.25,3.85,10,match,36.05,296,361,425,0,0,9,9,9,0,0,,,,,,,3,0,3,0,0,23,23,49,,,,,,,,,,,,,,3,2.3246630000066943,3,0.35,0.10000000000000002,3.60429,return,3.814269999973476,,,,,,,,,,,,,,,,,p301,19,female,up_down_width,2025-12-09_11h37.49.566,exp1,2023.1.0,59.96336238583155,
,,,,,,,,,,,,,,,,5,7.8,8.9,10,11.1,12.2,1.1,0.55,0.55,4.95,10,initial,36.05,281,321,361,400,440,9,9,9,9,9,,,,,,,3,0,3,0,0,24,24,34,,,,,,,,,,,,,,3,2.5510226000333205,3,0.25,0.49999999999999994,18.02146,return,2.9596148999989964,,,,,,,,,,,,,,,,,p301,19,female,up_down_width,2025-12-09_11h37.49.566,exp1,2023.1.0,59.96336238583155,
,,,,,,,,,,,,,,,,3,9.1,10,10.9,0,0,0.9,0.65,0.25,2.05,10,initial,36.05,328,361,393,0,0,9,9,9,0,0,,,,,,,3,0,3,0,0,25,25,13,,,,,,,,,,,,,,2,1.8462898999569006,2,0.45,0.20000000000000007,7.20859,return,1.947242499969434,,,,,,,,,,,,,,,,,p301,19,female,up_down_width,2025-12-09_11h37.49.566,exp1,2023.1.0,59.96336238583155,
,,,,,,,,,,,,,,,,4,9.1,9.7,10.3,10.9,0,0.6,0.04999999999999997,0.55,2.35,10,match,36.05,328,350,371,393,0,9,9,9,9,0,,,,,,,3,0,3,0,0,26,26,12,,,,,,,,,,,,,,3,3.3648608999792486,3,0.55,0.45,16.21932,return,2.141615099972114,,,,,,,,,,,,,,,,,p301,19,female,up_down_width,2025-12-09_11h37.49.566,exp1,2023.1.0,59.96336238583155,
,,,,,,,,,,,,,,,,5,8.95,9.475,10,10.525,11.05,0.525,0.275,0.25,2.35,10,match,36.05,323,342,361,379,398,9,9,9,9,9,,,,,,,3,0,3,0,0,27,27,25,,,,,,,,,,,,,,5,2.201153800007887,5,0.5,0.20000000000000007,7.20859,return,2.4955902000074275,,,,,,,,,,,,,,,,,p301,19,female,up_down_width,2025-12-09_11h37.49.566,exp1,2023.1.0,59.96336238583155,
,,,,,,,,,,,,,,,,5,8.6,9.3,10,10.7,11.4,0.7,0.29999999999999993,0.4,3.1999999999999997,10,initial,36.05,310,335,361,386,411,9,9,9,9,9,,,,,,,3,0,3,0,0,28,28,44,,,,,,,,,,,,,,5,1.8811338000232354,5,0.4,0.35000000000000003,12.61502,return,1.3726849000086077,,,,,,,,,,,,,,,,,p301,19,female,up_down_width,2025-12-09_11h37.49.566,exp1,2023.1.0,59.96336238583155,
,,,,,,,,,,,,,,,,4,8.65,9.55,10.45,11.35,0,0.9,0.35,0.55,3.25,10,initial,36.05,312,344,377,409,0,9,9,9,9,0,,,,,,,3,0,3,0,0,29,29,28,,,,,,,,,,,,,,3,3.0310783999739215,3,0.2,0.44999999999999996,16.21932,return,3.2764065000228584,,,,,,,,,,,,,,,,,p301,19,female,up_down_width,2025-12-09_11h37.49.566,exp1,2023.1.0,59.96336238583155,
,,,,,,,,,,,,,,,,5,8.35,9.175,10,10.825,11.65,0.825,0.575,0.25,3.55,10,match,36.05,301,331,361,390,420,9,9,9,9,9,,,,,,,3,0,3,0,0,30,30,20,,,,,,,,,,,,,,4,3.6352729000500403,4,0.3,0.2,7.20859,return,5.408288699982222,,,,,,,,,,,,,,,,,p301,19,female,up_down_width,2025-12-09_11h37.49.566,exp1,2023.1.0,59.96336238583155,
,,,,,,,,,,,,,,,,3,8.525,10,11.475,0,0,1.475,1.225,0.25,3.2,10,match,36.05,307,361,414,0,0,9,9,9,0,0,,,,,,,3,0,3,0,0,31,31,45,,,,,,,,,,,,,,2,1.7919391000177711,2,0.2,0.2,7.20859,return,3.176254699996207,,,,,,,,,,,,,,,,,p301,19,female,up_down_width,2025-12-09_11h37.49.566,exp1,2023.1.0,59.96336238583155,
,,,,,,,,,,,,,,,,3,9.3,10,10.7,0,0,0.7,0.44999999999999996,0.25,1.65,10,initial,36.05,335,361,386,0,0,9,9,9,0,0,,,,,,,3,0,3,0,0,32,32,7,,,,,,,,,,,,,,2,1.2057868000119925,2,0.45,0.20000000000000007,7.20859,return,1.7810740999993868,,,,,,,,,,,,,,,,,p301,19,female,up_down_width,2025-12-09_11h37.49.566,exp1,2023.1.0,59.96336238583155,
,,,,,,,,,,,,,,,,3,9.1,10,10.9,0,0,0.9,0.35,0.55,2.35,10,initial,36.05,328,361,393,0,0,9,9,9,0,0,,,,,,,3,0,3,0,0,33,33,11,,,,,,,,,,,,,,2,1.3659449000260793,2,0.4,0.45,16.21932,return,2.175868000020273,,,,,,,,,,,,,,,,,p301,19,female,up_down_width,2025-12-09_11h37.49.566,exp1,2023.1.0,59.96336238583155,
,,,,,,,,,,,,,,,,4,8.35,9.45,10.55,11.65,0,1.1,0.55,0.55,3.8500000000000005,10,initial,36.05,301,341,380,420,0,9,9,9,9,0,,,,,,,3,0,3,0,0,34,34,17,,,,,,,,,,,,,,3,1.7046912999940105,3,0.35,0.39999999999999997,14.41717,return,1.6355782999889925,,,,,,,,,,,,,,,,,p301,19,female,up_down_width,2025-12-09_11h37.49.566,exp1,2023.1.0,59.96336238583155,
,,,,,,,,,,,,,,,,4,8.9,9.633333333333333,10.366666666666667,11.1,0,0.7333333333333334,0.4833333333333334,0.25,2.45,10,match,36.05,321,347,374,400,0,9,9,9,9,0,,,,,,,3,0,3,0,0,35,35,3,,,,,,,,,,,,,,3,2.1173505000188015,3,0.5,0.25000000000000006,9.01073,return,2.17504070000723,,,,,,,,,,,,,,,,,p301,19,female,up_down_width,2025-12-09_11h37.49.566,exp1,2023.1.0,59.96336238583155,
,,,,,,,,,,,,,,,,4,8.9,9.633333333333333,10.366666666666667,11.1,0,0.7333333333333333,0.18333333333333326,0.55,2.75,10,match,36.05,321,347,374,400,0,9,9,9,9,0,,,,,,,3,0,3,0,0,36,36,1,,,,,,,,,,,,,,4,4.235131900000852,4,0.2,0.2,7.20859,return,3.1199527999851853,,,,,,,,,,,,,,,,,p301,19,female,up_down_width,2025-12-09_11h37.49.566,exp1,2023.1.0,59.96336238583155,
,,,,,,,,,,,,,,,,4,9.1,9.7,10.3,10.9,0,0.6000000000000001,0.20000000000000004,0.4,2.2,10,match,36.05,328,350,371,393,0,9,9,9,9,0,,,,,,,3,0,3,0,0,37,37,16,,,,,,,,,,,,,,3,2.6210220000357367,3,0.25,0.25,9.01073,return,2.46602479997091,,,,,,,,,,,,,,,,,p301,19,female,up_down_width,2025-12-09_11h37.49.566,exp1,2023.1.0,59.96336238583155,
,,,,,,,,,,,,,,,,3,9.1,10,10.9,0,0,0.9,0.5,0.4,2.2,10,initial,36.05,328,361,393,0,0,9,9,9,0,0,,,,,,,3,0,3,0,0,38,38,15,,,,,,,,,,,,,,2,0.8660859000519849,2,0.45,0.35000000000000003,12.61502,return,2.494432500039693,,,,,,,,,,,,,,,,,p301,19,female,up_down_width,2025-12-09_11h37.49.566,exp1,2023.1.0,59.96336238583155,
,,,,,,,,,,,,,,,,3,7.8,10,12.2,0,0,2.2,1.65,0.55,4.95,10,match,36.05,281,361,440,0,0,9,9,9,0,0,,,,,,,3,0,3,0,0,39,39,35,,,,,,,,,,,,,,3,1.095869499957189,3,0.55,0.4,14.41717,return,1.7060494999750517,,,,,,,,,,,,,,,,,p301,19,female,up_down_width,2025-12-09_11h37.49.566,exp1,2023.1.0,59.96336238583155,
,,,,,,,,,,,,,,,,5,8.65,9.325,10,10.675,11.35,0.675,0.125,0.55,3.25,10,match,36.05,312,336,361,385,409,9,9,9,9,9,,,,,,,3,0,3,0,0,40,40,29,,,,,,,,,,,,,,4,2.200688300014008,4,0.2,0.35,12.61502,return,2.543853399984073,,,,,,,,,,,,,,,,,p301,19,female,up_down_width,2025-12-09_11h37.49.566,exp1,2023.1.0,59.96336238583155,
,,,,,,,,,,,,,,,,5,7.8,8.9,10,11.1,12.2,1.1,0.8500000000000001,0.25,4.65,10,initial,36.05,281,321,361,400,440,9,9,9,9,9,,,,,,,3,0,3,0,0,41,41,36,,,,,,,,,,,,,,5,4.519490400038194,5,0.25,0.15000000000000002,5.40644,return,1.8251614000182599,,,,,,,,,,,,,,,,,p301,19,female,up_down_width,2025-12-09_11h37.49.566,exp1,2023.1.0,59.96336238583155,
,,,,,,,,,,,,,,,,3,7.800000000000001,10,12.2,0,0,2.1999999999999997,1.7999999999999998,0.4,4.8,10,match,36.05,281,361,440,0,0,9,9,9,0,0,,,,,,,3,0,3,0,0,42,42,39,,,,,,,,,,,,,,3,0.9326318999519572,3,0.2,0.35,12.61502,return,2.079651600040961,,,,,,,,,,,,,,,,,p301,19,female,up_down_width,2025-12-09_11h37.49.566,exp1,2023.1.0,59.96336238583155,
,,,,,,,,,,,,,,,,4,8.35,9.45,10.55,11.65,0,1.1,0.8500000000000001,0.25,3.5500000000000003,10,initial,36.05,301,341,380,420,0,9,9,9,9,0,,,,,,,3,0,3,0,0,43,43,19,,,,,,,,,,,,,,3,1.3057340999948792,3,0.25,0.15000000000000002,5.40644,return,4.819297099951655,,,,,,,,,,,,,,,,,p301,19,female,up_down_width,2025-12-09_11h37.49.566,exp1,2023.1.0,59.96336238583155,
,,,,,,,,,,,,,,,,3,8.6,10,11.4,0,0,1.4,1.15,0.25,3.05,10,match,36.05,310,361,411,0,0,9,9,9,0,0,,,,,,,3,0,3,0,0,44,44,43,,,,,,,,,,,,,,3,2.45495280000614,3,0.35,0.15000000000000002,5.40644,return,1.8906757000368088,,,,,,,,,,,,,,,,,p301,19,female,up_down_width,2025-12-09_11h37.49.566,exp1,2023.1.0,59.96336238583155,
,,,,,,,,,,,,,,,,4,8.65,9.55,10.45,11.35,0,0.9,0.5,0.4,3.1,10,initial,36.05,312,344,377,409,0,9,9,9,9,0,,,,,,,3,0,3,0,0,45,45,32,,,,,,,,,,,,,,4,1.5676800000364892,4,0.3,0.25,9.01073,return,2.0476220999844372,,,,,,,,,,,,,,,,,p301,19,female,up_down_width,2025-12-09_11h37.49.566,exp1,2023.1.0,59.96336238583155,
,,,,,,,,,,,,,,,,4,8.825,9.608333333333333,10.391666666666667,11.175,0,0.7833333333333333,0.5333333333333333,0.25,2.6,10,match,36.05,318,346,375,403,0,9,9,9,9,0,,,,,,,3,0,3,0,0,46,46,5,,,,,,,,,,,,,,3,3.035113200021442,3,0.2,0.25,9.01073,return,1.649388900026679,,,,,,,,,,,,,,,,,p301,19,female,up_down_width,2025-12-09_11h37.49.566,exp1,2023.1.0,59.96336238583155,
,,,,,,,,,,,,,,,,4,8.35,9.45,10.55,11.65,0,1.1,0.7000000000000001,0.4,3.7,10,initial,36.05,301,341,380,420,0,9,9,9,9,0,,,,,,,3,0,3,0,0,47,47,21,,,,,,,,,,,,,,3,0.7351849999977276,3,0.5,0.25000000000000006,9.01073,return,2.0815723999985494,,,,,,,,,,,,,,,,,p301,19,female,up_down_width,2025-12-09_11h37.49.566,exp1,2023.1.0,59.96336238583155,
,,,,,,,,,,,,,,,,5,7.8,8.9,10,11.1,12.2,1.1,0.7000000000000001,0.4,4.800000000000001,10,initial,36.05,281,321,361,400,440,9,9,9,9,9,,,,,,,3,0,3,0,0,48,48,38,,,,,,,,,,,,,,5,1.5348930999753065,5,0.55,0.20000000000000007,7.20859,return,3.5049681999953464,,,,,,,,,,,,,,,,,p301,19,female,up_down_width,2025-12-09_11h37.49.566,exp1,2023.1.0,59.96336238583155,
,,,,,,,,,,,,,,,,3,8.2,10,11.8,0,0,1.8,1.25,0.55,4.15,10,match,36.05,296,361,425,0,0,9,9,9,0,0,,,,,,,3,0,3,0,0,49,49,47,,,,,,,,,,,,,,3,1.1757024000398815,3,0.35,0.35,12.61502,return,2.375934600015171,,,,,,,,,,,,,,,,,p301,19,female,up_down_width,2025-12-09_11h37.49.566,exp1,2023.1.0,59.96336238583155,
,,,,,,,,,,,,,,,,5,8.65,9.325,10,10.675,11.35,0.675,0.275,0.4,3.1,10,match,36.05,312,336,361,385,409,9,9,9,9,9,,,,,,,3,0,3,0,0,50,50,33,,,,,,,,,,,,,,5,3.6173221999779344,5,0.45,0.25000000000000006,9.01073,return,2.6080723999766633,,,,,,,,,,,,,,,,,p301,19,female,up_down_width,2025-12-09_11h37.49.566,exp1,2023.1.0,59.96336238583155,
,,,,,,,,,,,,,,,,3,9.3,10,10.7,0,0,0.7,0.29999999999999993,0.4,1.8,10,initial,36.05,335,361,386,0,0,9,9,9,0,0,,,,,,,3,0,3,0,0,51,51,9,,,,,,,,,,,,,,3,1.4663634999888018,3,0.45,0.25000000000000006,9.01073,return,2.6538826000178233,,,,,,,,,,,,,,,,,p301,19,female,up_down_width,2025-12-09_11h37.49.566,exp1,2023.1.0,59.96336238583155,
,,,,,,,,,,,,,,,,,,,,,,,,,,,,,,,,,,,,,,,,,,,,,3,0,3,0,,,,,,,,,,,,,,,,,,,,,,,,,,,,2178.927143000008,2178.927143000008,2178.927143000008,,,,,,,,,,,,p301,19,female,up_down_width,2025-12-09_11h37.49.566,exp1,2023.1.0,59.96336238583155,
,,,,,,,,,,,,,,,,3,9.1,10,10.9,0,0,0.9,0.35,0.55,2.35,10,initial,36.05,328,361,393,0,0,9,9,9,0,0,,,,,,,4,0,4,0,0,0,0,11,,,,,,,,,,,,,,2,1.6007257999735884,2,0.2,0.35,12.61502,return,2.3995758999953978,,,,,,,,,,,,,,,,,p301,19,female,up_down_width,2025-12-09_11h37.49.566,exp1,2023.1.0,59.96336238583155,
,,,,,,,,,,,,,,,,3,8.2,10,11.8,0,0,1.8,1.25,0.55,4.15,10,match,36.05,296,361,425,0,0,9,9,9,0,0,,,,,,,4,0,4,0,0,1,1,47,,,,,,,,,,,,,,2,0.9823213000199758,2,0.45,0.4,14.41717,return,3.725756599975284,,,,,,,,,,,,,,,,,p301,19,female,up_down_width,2025-12-09_11h37.49.566,exp1,2023.1.0,59.96336238583155,
,,,,,,,,,,,,,,,,5,8.6,9.3,10,10.7,11.4,0.7,0.44999999999999996,0.25,3.05,10,initial,36.05,310,335,361,386,411,9,9,9,9,9,,,,,,,4,0,4,0,0,2,2,42,,,,,,,,,,,,,,5,2.026702100003604,5,0.45,0.20000000000000007,7.20859,return,2.5051143000018783,,,,,,,,,,,,,,,,,p301,19,female,up_down_width,2025-12-09_11h37.49.566,exp1,2023.1.0,59.96336238583155,
,,,,,,,,,,,,,,,,4,8.35,9.45,10.55,11.65,0,1.1,0.55,0.55,3.8500000000000005,10,initial,36.05,301,341,380,420,0,9,9,9,9,0,,,,,,,4,0,4,0,0,3,3,17,,,,,,,,,,,,,,4,2.2286077000317164,4,0.25,0.35,12.61502,return,3.082729500019923,,,,,,,,,,,,,,,,,p301,19,female,up_down_width,2025-12-09_11h37.49.566,exp1,2023.1.0,59.96336238583155,
,,,,,,,,,,,,,,,,5,8.95,9.475,10,10.525,11.05,0.525,0.125,0.4,2.5,10,match,36.05,323,342,361,379,398,9,9,9,9,9,,,,,,,4,0,4,0,0,4,4,27,,,,,,,,,,,,,,4,1.6770592000102624,4,0.3,0.3,10.81288,return,1.7679582000127994,,,,,,,,,,,,,,,,,p301,19,female,up_down_width,2025-12-09_11h37.49.566,exp1,2023.1.0,59.96336238583155,
,,,,,,,,,,,,,,,,4,8.35,9.45,10.55,11.65,0,1.1,0.7000000000000001,0.4,3.7,10,initial,36.05,301,341,380,420,0,9,9,9,9,0,,,,,,,4,0,4,0,0,5,5,21,,,,,,,,,,,,,,4,1.9136086000362411,4,0.45,0.35000000000000003,12.61502,return,2.3323800999787636,,,,,,,,,,,,,,,,,p301,19,female,up_down_width,2025-12-09_11h37.49.566,exp1,2023.1.0,59.96336238583155,
,,,,,,,,,,,,,,,,3,8.9,10,11.1,0,0,1.1,0.7000000000000001,0.4,2.6000000000000005,10,initial,36.05,321,361,400,0,0,9,9,9,0,0,,,,,,,4,0,4,0,0,6,6,4,,,,,,,,,,,,,,2,1.9843406000290997,2,0.2,0.35,12.61502,return,2.238945299992338,,,,,,,,,,,,,,,,,p301,19,female,up_down_width,2025-12-09_11h37.49.566,exp1,2023.1.0,59.96336238583155,
,,,,,,,,,,,,,,,,5,8.6,9.3,10,10.7,11.4,0.7,0.29999999999999993,0.4,3.1999999999999997,10,initial,36.05,310,335,361,386,411,9,9,9,9,9,,,,,,,4,0,4,0,0,7,7,44,,,,,,,,,,,,,,5,2.056629200000316,5,0.2,0.25,9.01073,return,1.7182503000367433,,,,,,,,,,,,,,,,,p301,19,female,up_down_width,2025-12-09_11h37.49.566,exp1,2023.1.0,59.96336238583155,
,,,,,,,,,,,,,,,,5,8.95,9.475,10,10.525,11.05,0.525,0.275,0.25,2.35,10,match,36.05,323,342,361,379,398,9,9,9,9,9,,,,,,,4,0,4,0,0,8,8,25,,,,,,,,,,,,,,5,1.6821506999549456,5,0.3,0.2,7.20859,return,2.7817954999627545,,,,,,,,,,,,,,,,,p301,19,female,up_down_width,2025-12-09_11h37.49.566,exp1,2023.1.0,59.96336238583155,
,,,,,,,,,,,,,,,,3,7.800000000000001,10,12.2,0,0,2.1999999999999997,1.7999999999999998,0.4,4.8,10,match,36.05,281,361,440,0,0,9,9,9,0,0,,,,,,,4,0,4,0,0,9,9,39,,,,,,,,,,,,,,3,1.9639770000358112,3,0.5,0.30000000000000004,10.81288,return,2.0280252000084147,,,,,,,,,,,,,,,,,p301,19,female,up_down_width,2025-12-09_11h37.49.566,exp1,2023.1.0,59.96336238583155,
,,,,,,,,,,,,,,,,3,8.9,10,11.1,0,0,1.1,0.8500000000000001,0.25,2.45,10,initial,36.05,321,361,400,0,0,9,9,9,0,0,,,,,,,4,0,4,0,0,10,10,2,,,,,,,,,,,,,,2,1.6992967000114731,2,0.45,0.20000000000000007,7.20859,return,2.9592615000437945,,,,,,,,,,,,,,,,,p301,19,female,up_down_width,2025-12-09_11h37.49.566,exp1,2023.1.0,59.96336238583155,
,,,,,,,,,,,,,,,,3,9.3,10,10.7,0,0,0.7,0.1499999999999999,0.55,1.95,10,initial,36.05,335,361,386,0,0,9,9,9,0,0,,,,,,,4,0,4,0,0,11,11,6,,,,,,,,,,,,,,2,1.5224434999981895,2,0.4,0.35000000000000003,12.61502,return,1.6032190999831073,,,,,,,,,,,,,,,,,p301,19,female,up_down_width,2025-12-09_11h37.49.566,exp1,2023.1.0,59.96336238583155,
,,,,,,,,,,,,,,,,5,8.65,9.325,10,10.675,11.35,0.675,0.125,0.55,3.25,10,match,36.05,312,336,361,385,409,9,9,9,9,9,,,,,,,4,0,4,0,0,12,12,29,,,,,,,,,,,,,,3,1.606826200033538,3,0.55,0.5,18.02146,return,1.9093407999607734,,,,,,,,,,,,,,,,,p301,19,female,up_down_width,2025-12-09_11h37.49.566,exp1,2023.1.0,59.96336238583155,
,,,,,,,,,,,,,,,,4,8.9,9.633333333333333,10.366666666666667,11.1,0,0.7333333333333334,0.4833333333333334,0.25,2.45,10,match,36.05,321,347,374,400,0,9,9,9,9,0,,,,,,,4,0,4,0,0,13,13,3,,,,,,,,,,,,,,3,7.114116400014609,3,0.35,0.25,9.01073,return,1.6131800999864936,,,,,,,,,,,,,,,,,p301,19,female,up_down_width,2025-12-09_11h37.49.566,exp1,2023.1.0,59.96336238583155,
,,,,,,,,,,,,,,,,4,9.1,9.7,10.3,10.9,0,0.5999999999999999,0.3499999999999999,0.25,2.05,10,match,36.05,328,350,371,393,0,9,9,9,9,0,,,,,,,4,0,4,0,0,14,14,14,,,,,,,,,,,,,,3,2.6177508999826387,3,0.3,0.2,7.20859,return,2.1104605000000447,,,,,,,,,,,,,,,,,p301,19,female,up_down_width,2025-12-09_11h37.49.566,exp1,2023.1.0,59.96336238583155,
,,,,,,,,,,,,,,,,4,8.65,9.55,10.45,11.35,0,0.9,0.65,0.25,2.95,10,initial,36.05,312,344,377,409,0,9,9,9,9,0,,,,,,,4,0,4,0,0,15,15,30,,,,,,,,,,,,,,3,1.912691099976655,3,0.55,0.20000000000000007,7.20859,return,2.5066383000230417,,,,,,,,,,,,,,,,,p301,19,female,up_down_width,2025-12-09_11h37.49.566,exp1,2023.1.0,59.96336238583155,
,,,,,,,,,,,,,,,,3,8.6,10,11.4,0,0,1.4,0.85,0.55,3.35,10,match,36.05,310,361,411,0,0,9,9,9,0,0,,,,,,,4,0,4,0,0,16,16,41,,,,,,,,,,,,,,2,2.144054399977904,2,0.4,0.45,16.21932,return,1.8654877000371926,,,,,,,,,,,,,,,,,p301,19,female,up_down_width,2025-12-09_11h37.49.566,exp1,2023.1.0,59.96336238583155,
,,,,,,,,,,,,,,,,4,8.825,9.608333333333333,10.391666666666667,11.175,0,0.7833333333333333,0.5333333333333333,0.25,2.6,10,match,36.05,318,346,375,403,0,9,9,9,9,0,,,,,,,4,0,4,0,0,17,17,5,,,,,,,,,,,,,,3,1.5216429000138305,3,0.5,0.25000000000000006,9.01073,return,2.388376299990341,,,,,,,,,,,,,,,,,p301,19,female,up_down_width,2025-12-09_11h37.49.566,exp1,2023.1.0,59.96336238583155,
,,,,,,,,,,,,,,,,5,8.35,9.175,10,10.825,11.65,0.825,0.575,0.25,3.55,10,match,36.05,301,331,361,390,420,9,9,9,9,9,,,,,,,4,0,4,0,0,18,18,20,,,,,,,,,,,,,,4,1.9643591999774799,4,0.45,0.25000000000000006,9.01073,return,1.932843899994623,,,,,,,,,,,,,,,,,p301,19,female,up_down_width,2025-12-09_11h37.49.566,exp1,2023.1.0,59.96336238583155,
,,,,,,,,,,,,,,,,5,8.6,9.3,10,10.7,11.4,0.7,0.1499999999999999,0.55,3.3499999999999996,10,initial,36.05,310,335,361,386,411,9,9,9,9,9,,,,,,,4,0,4,0,0,19,19,40,,,,,,,,,,,,,,4,1.6140160000068136,4,0.25,0.39999999999999997,14.41717,return,2.5879290000302717,,,,,,,,,,,,,,,,,p301,19,female,up_down_width,2025-12-09_11h37.49.566,exp1,2023.1.0,59.96336238583155,
,,,,,,,,,,,,,,,,3,7.8,10,12.2,0,0,2.2,1.9500000000000002,0.25,4.65,10,match,36.05,281,361,440,0,0,9,9,9,0,0,,,,,,,4,0,4,0,0,20,20,37,,,,,,,,,,,,,,3,1.9919362000073306,3,0.3,0.2,7.20859,return,2.9978348999866284,,,,,,,,,,,,,,,,,p301,19,female,up_down_width,2025-12-09_11h37.49.566,exp1,2023.1.0,59.96336238583155,
,,,,,,,,,,,,,,,,5,7.8,8.9,10,11.1,12.2,1.1,0.8500000000000001,0.25,4.65,10,initial,36.05,281,321,361,400,440,9,9,9,9,9,,,,,,,4,0,4,0,0,21,21,36,,,,,,,,,,,,,,4,1.832584100018721,4,0.2,0.2,7.20859,return,1.2946728999959305,,,,,,,,,,,,,,,,,p301,19,female,up_down_width,2025-12-09_11h37.49.566,exp1,2023.1.0,59.96336238583155,
,,,,,,,,,,,,,,,,4,8.65,9.55,10.45,11.35,0,0.9,0.5,0.4,3.1,10,initial,36.05,312,344,377,409,0,9,9,9,9,0,,,,,,,4,0,4,0,0,22,22,32,,,,,,,,,,,,,,3,1.3316280000144616,3,0.55,0.35000000000000003,12.61502,return,1.8366534000379033,,,,,,,,,,,,,,,,,p301,19,female,up_down_width,2025-12-09_11h37.49.566,exp1,2023.1.0,59.96336238583155,
,,,,,,,,,,,,,,,,4,9.3,9.766666666666667,10.233333333333333,10.7,0,0.4666666666666667,0.06666666666666665,0.4,1.8,10,match,36.05,335,352,369,386,0,9,9,9,9,0,,,,,,,4,0,4,0,0,23,23,10,,,,,,,,,,,,,,3,1.9199826000258327,3,0.4,0.30000000000000004,10.81288,return,2.2591312999720685,,,,,,,,,,,,,,,,,p301,19,female,up_down_width,2025-12-09_11h37.49.566,exp1,2023.1.0,59.96336238583155,
,,,,,,,,,,,,,,,,5,7.8,8.9,10,11.1,12.2,1.1,0.55,0.55,4.95,10,initial,36.05,281,321,361,400,440,9,9,9,9,9,,,,,,,4,0,4,0,0,24,24,34,,,,,,,,,,,,,,4,2.0973016999778338,4,0.25,0.39999999999999997,14.41717,return,2.332623500027694,,,,,,,,,,,,,,,,,p301,19,female,up_down_width,2025-12-09_11h37.49.566,exp1,2023.1.0,59.96336238583155,
,,,,,,,,,,,,,,,,4,9.1,9.7,10.3,10.9,0,0.6,0.04999999999999997,0.55,2.35,10,match,36.05,328,350,371,393,0,9,9,9,9,0,,,,,,,4,0,4,0,0,25,25,12,,,,,,,,,,,,,,4,3.1687659000162967,4,0.2,0.44999999999999996,16.21932,return,4.192890500009526,,,,,,,,,,,,,,,,,p301,19,female,up_down_width,2025-12-09_11h37.49.566,exp1,2023.1.0,59.96336238583155,
,,,,,,,,,,,,,,,,5,8.2,9.1,10,10.9,11.8,0.9,0.5,0.4,4,10,initial,36.05,296,328,361,393,425,9,9,9,9,9,,,,,,,4,0,4,0,0,26,26,50,,,,,,,,,,,,,,5,1.8398190999869257,5,0.4,0.35000000000000003,12.61502,return,3.3182967999600805,,,,,,,,,,,,,,,,,p301,19,female,up_down_width,2025-12-09_11h37.49.566,exp1,2023.1.0,59.96336238583155,
,,,,,,,,,,,,,,,,4,8.9,9.633333333333333,10.366666666666667,11.1,0,0.7333333333333333,0.18333333333333326,0.55,2.75,10,match,36.05,321,347,374,400,0,9,9,9,9,0,,,,,,,4,0,4,0,0,27,27,1,,,,,,,,,,,,,,4,4.707923900044989,4,0.2,0.39999999999999997,14.41717,return,3.589416499948129,,,,,,,,,,,,,,,,,p301,19,female,up_down_width,2025-12-09_11h37.49.566,exp1,2023.1.0,59.96336238583155,
,,,,,,,,,,,,,,,,4,8.95,9.65,10.35,11.05,0,0.7,0.1499999999999999,0.55,2.65,10,initial,36.05,323,348,373,398,0,9,9,9,9,0,,,,,,,4,0,4,0,0,28,28,23,,,,,,,,,,,,,,3,1.7354288999922574,3,0.25,0.44999999999999996,16.21932,return,2.3843585000140592,,,,,,,,,,,,,,,,,p301,19,female,up_down_width,2025-12-09_11h37.49.566,exp1,2023.1.0,59.96336238583155,
,,,,,,,,,,,,,,,,3,9.1,10,10.9,0,0,0.9,0.65,0.25,2.05,10,initial,36.05,328,361,393,0,0,9,9,9,0,0,,,,,,,4,0,4,0,0,29,29,13,,,,,,,,,,,,,,2,2.0200209000031464,2,0.35,0.2,7.20859,return,2.082362200017087,,,,,,,,,,,,,,,,,p301,19,female,up_down_width,2025-12-09_11h37.49.566,exp1,2023.1.0,59.96336238583155,
,,,,,,,,,,,,,,,,4,9.1,9.7,10.3,10.9,0,0.6000000000000001,0.20000000000000004,0.4,2.2,10,match,36.05,328,350,371,393,0,9,9,9,9,0,,,,,,,4,0,4,0,0,30,30,16,,,,,,,,,,,,,,3,1.8846171000041068,3,0.35,0.35,12.61502,return,1.8877127000014298,,,,,,,,,,,,,,,,,p301,19,female,up_down_width,2025-12-09_11h37.49.566,exp1,2023.1.0,59.96336238583155,
,,,,,,,,,,,,,,,,3,8.6,10,11.4,0,0,1.4,1.15,0.25,3.05,10,match,36.05,310,361,411,0,0,9,9,9,0,0,,,,,,,4,0,4,0,0,31,31,43,,,,,,,,,,,,,,2,1.7137937999796122,2,0.5,0.20000000000000007,7.20859,return,2.6842538999626413,,,,,,,,,,,,,,,,,p301,19,female,up_down_width,2025-12-09_11h37.49.566,exp1,2023.1.0,59.96336238583155,
,,,,,,,,,,,,,,,,5,8.275,9.1375,10,10.8625,11.725,0.8625,0.6125,0.25,3.7,10,match,36.05,298,329,361,392,423,9,9,9,9,9,,,,,,,4,0,4,0,0,32,32,22,,,,,,,,,,,,,,4,2.0585038000135683,4,0.45,0.15000000000000008,5.40644,return,2.391414800018538,,,,,,,,,,,,,,,,,p301,19,female,up_down_width,2025-12-09_11h37.49.566,exp1,2023.1.0,59.96336238583155,
,,,,,,,,,,,,,,,,5,8.65,9.325,10,10.675,11.35,0.675,0.275,0.4,3.1,10,match,36.05,312,336,361,385,409,9,9,9,9,9,,,,,,,4,0,4,0,0,33,33,33,,,,,,,,,,,,,,5,2.9330352999968454,5,0.25,0.3,10.81288,return,1.7748853999655694,,,,,,,,,,,,,,,,,p301,19,female,up_down_width,2025-12-09_11h37.49.566,exp1,2023.1.0,59.96336238583155,
,,,,,,,,,,,,,,,,3,9.1,10,10.9,0,0,0.9,0.5,0.4,2.2,10,initial,36.05,328,361,393,0,0,9,9,9,0,0,,,,,,,4,0,4,0,0,34,34,15,,,,,,,,,,,,,,2,1.9273133999668062,2,0.2,0.3,10.81288,return,2.202464999980293,,,,,,,,,,,,,,,,,p301,19,female,up_down_width,2025-12-09_11h37.49.566,exp1,2023.1.0,59.96336238583155,
,,,,,,,,,,,,,,,,3,9.3,10,10.7,0,0,0.7,0.44999999999999996,0.25,1.65,10,initial,36.05,335,361,386,0,0,9,9,9,0,0,,,,,,,4,0,4,0,0,35,35,7,,,,,,,,,,,,,,2,2.265963100013323,2,0.35,0.25,9.01073,return,2.5110405000159517,,,,,,,,,,,,,,,,,p301,19,female,up_down_width,2025-12-09_11h37.49.566,exp1,2023.1.0,59.96336238583155,
,,,,,,,,,,,,,,,,4,8.95,9.65,10.35,11.05,0,0.7,0.29999999999999993,0.4,2.5,10,initial,36.05,323,348,373,398,0,9,9,9,9,0,,,,,,,4,0,4,0,0,36,36,26,,,,,,,,,,,,,,4,3.4118461000034586,4,0.2,0.3,10.81288,return,2.650850900041405,,,,,,,,,,,,,,,,,p301,19,female,up_down_width,2025-12-09_11h37.49.566,exp1,2023.1.0,59.96336238583155,
,,,,,,,,,,,,,,,,5,8.65,9.325,10,10.675,11.35,0.675,0.42500000000000004,0.25,2.95,10,match,36.05,312,336,361,385,409,9,9,9,9,9,,,,,,,4,0,4,0,0,37,37,31,,,,,,,,,,,,,,4,3.4281859999755397,4,0.55,0.20000000000000007,7.20859,return,2.794552000006661,,,,,,,,,,,,,,,,,p301,19,female,up_down_width,2025-12-09_11h37.49.566,exp1,2023.1.0,59.96336238583155,
,,,,,,,,,,,,,,,,5,7.8,8.9,10,11.1,12.2,1.1,0.7000000000000001,0.4,4.800000000000001,10,initial,36.05,281,321,361,400,440,9,9,9,9,9,,,,,,,4,0,4,0,0,38,38,38,,,,,,,,,,,,,,4,2.2528179000364617,4,0.3,0.35,12.61502,return,1.9067049999721348,,,,,,,,,,,,,,,,,p301,19,female,up_down_width,2025-12-09_11h37.49.566,exp1,2023.1.0,59.96336238583155,
,,,,,,,,,,,,,,,,5,8.2,9.1,10,10.9,11.8,0.9,0.35,0.55,4.15,10,initial,36.05,296,328,361,393,425,9,9,9,9,9,,,,,,,4,0,4,0,0,39,39,46,,,,,,,,,,,,,,5,2.7158977000508457,5,0.55,0.4,14.41717,return,2.5279161000507884,,,,,,,,,,,,,,,,,p301,19,female,up_down_width,2025-12-09_11h37.49.566,exp1,2023.1.0,59.96336238583155,
,,,,,,,,,,,,,,,,4,8.95,9.65,10.35,11.05,0,0.7,0.44999999999999996,0.25,2.3499999999999996,10,initial,36.05,323,348,373,398,0,9,9,9,9,0,,,,,,,4,0,4,0,0,40,40,24,,,,,,,,,,,,,,3,1.9696598000009544,3,0.45,0.20000000000000007,7.20859,return,2.5457506999955513,,,,,,,,,,,,,,,,,p301,19,female,up_down_width,2025-12-09_11h37.49.566,exp1,2023.1.0,59.96336238583155,
,,,,,,,,,,,,,,,,3,8.2,10,11.8,0,0,1.8,1.55,0.25,3.85,10,match,36.05,296,361,425,0,0,9,9,9,0,0,,,,,,,4,0,4,0,0,41,41,49,,,,,,,,,,,,,,3,2.0126913000131026,3,0.55,0.20000000000000007,7.20859,return,2.044052399985958,,,,,,,,,,,,,,,,,p301,19,female,up_down_width,2025-12-09_11h37.49.566,exp1,2023.1.0,59.96336238583155,
,,,,,,,,,,,,,,,,5,8.35,9.175,10,10.825,11.65,0.8250000000000001,0.275,0.55,3.85,10,match,36.05,301,331,361,390,420,9,9,9,9,9,,,,,,,4,0,4,0,0,42,42,18,,,,,,,,,,,,,,4,1.6452174000442028,4,0.45,0.5,18.02146,return,1.434176100010518,,,,,,,,,,,,,,,,,p301,19,female,up_down_width,2025-12-09_11h37.49.566,exp1,2023.1.0,59.96336238583155,
,,,,,,,,,,,,,,,,3,7.8,10,12.2,0,0,2.2,1.65,0.55,4.95,10,match,36.05,281,361,440,0,0,9,9,9,0,0,,,,,,,4,0,4,0,0,43,43,35,,,,,,,,,,,,,,3,2.019273800018709,3,0.5,0.5,18.02146,return,1.2341585000394844,,,,,,,,,,,,,,,,,p301,19,female,up_down_width,2025-12-09_11h37.49.566,exp1,2023.1.0,59.96336238583155,
,,,,,,,,,,,,,,,,4,9.3,9.766666666666667,10.233333333333333,10.7,0,0.4666666666666667,0.21666666666666665,0.25,1.65,10,match,36.05,335,352,369,386,0,9,9,9,9,0,,,,,,,4,0,4,0,0,44,44,8,,,,,,,,,,,,,,3,1.5533004999742843,3,0.5,0.20000000000000007,7.20859,return,2.6907763999770395,,,,,,,,,,,,,,,,,p301,19,female,up_down_width,2025-12-09_11h37.49.566,exp1,2023.1.0,59.96336238583155,
,,,,,,,,,,,,,,,,3,8.2,10,11.8,0,0,1.7999999999999998,1.4,0.4,4,10,match,36.05,296,361,425,0,0,9,9,9,0,0,,,,,,,4,0,4,0,0,45,45,51,,,,,,,,,,,,,,3,1.608687200001441,3,0.35,0.35,12.61502,return,1.334398799983319,,,,,,,,,,,,,,,,,p301,19,female,up_down_width,2025-12-09_11h37.49.566,exp1,2023.1.0,59.96336238583155,
,,,,,,,,,,,,,,,,4,8.35,9.45,10.55,11.65,0,1.1,0.8500000000000001,0.25,3.5500000000000003,10,initial,36.05,301,341,380,420,0,9,9,9,9,0,,,,,,,4,0,4,0,0,46,46,19,,,,,,,,,,,,,,4,1.8026614999980666,4,0.45,0.20000000000000007,7.20859,return,2.8971975999884307,,,,,,,,,,,,,,,,,p301,19,female,up_down_width,2025-12-09_11h37.49.566,exp1,2023.1.0,59.96336238583155,
,,,,,,,,,,,,,,,,5,8.2,9.1,10,10.9,11.8,0.9,0.65,0.25,3.85,10,initial,36.05,296,328,361,393,425,9,9,9,9,9,,,,,,,4,0,4,0,0,47,47,48,,,,,,,,,,,,,,5,2.009957599977497,5,0.25,0.10000000000000002,3.60429,return,1.961187000037171,,,,,,,,,,,,,,,,,p301,19,female,up_down_width,2025-12-09_11h37.49.566,exp1,2023.1.0,59.96336238583155,
,,,,,,,,,,,,,,,,4,8.65,9.55,10.45,11.35,0,0.9,0.35,0.55,3.25,10,initial,36.05,312,344,377,409,0,9,9,9,9,0,,,,,,,4,0,4,0,0,48,48,28,,,,,,,,,,,,,,3,1.8218680000281893,3,0.55,0.5,18.02146,return,1.5872267999802716,,,,,,,,,,,,,,,,,p301,19,female,up_down_width,2025-12-09_11h37.49.566,exp1,2023.1.0,59.96336238583155,
,,,,,,,,,,,,,,,,3,8.9,10,11.1,0,0,1.1,0.55,0.55,2.75,10,initial,36.05,321,361,400,0,0,9,9,9,0,0,,,,,,,4,0,4,0,0,49,49,0,,,,,,,,,,,,,,2,1.3552991000469774,2,0.55,0.5,18.02146,return,1.603580700000748,,,,,,,,,,,,,,,,,p301,19,female,up_down_width,2025-12-09_11h37.49.566,exp1,2023.1.0,59.96336238583155,
,,,,,,,,,,,,,,,,3,9.3,10,10.7,0,0,0.7,0.29999999999999993,0.4,1.8,10,initial,36.05,335,361,386,0,0,9,9,9,0,0,,,,,,,4,0,4,0,0,50,50,9,,,,,,,,,,,,,,2,1.552100800035987,2,0.2,0.39999999999999997,14.41717,return,2.432853400008753,,,,,,,,,,,,,,,,,p301,19,female,up_down_width,2025-12-09_11h37.49.566,exp1,2023.1.0,59.96336238583155,
,,,,,,,,,,,,,,,,3,8.525,10,11.475,0,0,1.475,1.225,0.25,3.2,10,match,36.05,307,361,414,0,0,9,9,9,0,0,,,,,,,4,0,4,0,0,51,51,45,,,,,,,,,,,,,,2,1.3140739999944344,2,0.3,0.2,7.20859,return,1.3718062000116333,,,,,,,,,,,,,,,,,p301,19,female,up_down_width,2025-12-09_11h37.49.566,exp1,2023.1.0,59.96336238583155,
,,,,,,,,,,,,,,,,,,,,,,,,,,,,,,,,,,,,,,,,,,,,,4,0,4,0,,,,,,,,,,,,,,,,,,,,,,,,,,,,2506.110223099997,2506.110223099997,2506.110223099997,,,,,,,,,,,,p301,19,female,up_down_width,2025-12-09_11h37.49.566,exp1,2023.1.0,59.96336238583155,
,,,,,,,,,,,,,,,,4,8.9,9.633333333333333,10.366666666666667,11.1,0,0.7333333333333334,0.4833333333333334,0.25,2.45,10,match,36.05,321,347,374,400,0,9,9,9,9,0,,,,,,,5,0,5,0,0,0,0,3,,,,,,,,,,,,,,3,2.3058977000182495,3,0.5,0.30000000000000004,10.81288,return,11.076167599996552,,,,,,,,,,,,,,,,,p301,19,female,up_down_width,2025-12-09_11h37.49.566,exp1,2023.1.0,59.96336238583155,
,,,,,,,,,,,,,,,,4,9.3,9.766666666666667,10.233333333333333,10.7,0,0.4666666666666667,0.06666666666666665,0.4,1.8,10,match,36.05,335,352,369,386,0,9,9,9,9,0,,,,,,,5,0,5,0,0,1,1,10,,,,,,,,,,,,,,3,1.1944691999815404,3,0.3,0.35,12.61502,return,2.1054032999672927,,,,,,,,,,,,,,,,,p301,19,female,up_down_width,2025-12-09_11h37.49.566,exp1,2023.1.0,59.96336238583155,
,,,,,,,,,,,,,,,,3,8.2,10,11.8,0,0,1.7999999999999998,1.4,0.4,4,10,match,36.05,296,361,425,0,0,9,9,9,0,0,,,,,,,5,0,5,0,0,2,2,51,,,,,,,,,,,,,,3,1.5322449000086635,3,0.35,0.25,9.01073,return,2.1582435000455007,,,,,,,,,,,,,,,,,p301,19,female,up_down_width,2025-12-09_11h37.49.566,exp1,2023.1.0,59.96336238583155,
,,,,,,,,,,,,,,,,3,9.3,10,10.7,0,0,0.7,0.44999999999999996,0.25,1.65,10,initial,36.05,335,361,386,0,0,9,9,9,0,0,,,,,,,5,0,5,0,0,3,3,7,,,,,,,,,,,,,,2,1.2732754000462592,2,0.25,0.25,9.01073,return,1.0604864999768324,,,,,,,,,,,,,,,,,p301,19,female,up_down_width,2025-12-09_11h37.49.566,exp1,2023.1.0,59.96336238583155,
,,,,,,,,,,,,,,,,3,9.1,10,10.9,0,0,0.9,0.5,0.4,2.2,10,initial,36.05,328,361,393,0,0,9,9,9,0,0,,,,,,,5,0,5,0,0,4,4,15,,,,,,,,,,,,,,2,1.2233306000125594,2,0.25,0.35,12.61502,return,1.8777616000152193,,,,,,,,,,,,,,,,,p301,19,female,up_down_width,2025-12-09_11h37.49.566,exp1,2023.1.0,59.96336238583155,
,,,,,,,,,,,,,,,,4,9.1,9.7,10.3,10.9,0,0.5999999999999999,0.3499999999999999,0.25,2.05,10,match,36.05,328,350,371,393,0,9,9,9,9,0,,,,,,,5,0,5,0,0,5,5,14,,,,,,,,,,,,,,3,1.6552824000245892,3,0.35,0.2,7.20859,return,1.3641697999555618,,,,,,,,,,,,,,,,,p301,19,female,up_down_width,2025-12-09_11h37.49.566,exp1,2023.1.0,59.96336238583155,
,,,,,,,,,,,,,,,,5,8.6,9.3,10,10.7,11.4,0.7,0.44999999999999996,0.25,3.05,10,initial,36.05,310,335,361,386,411,9,9,9,9,9,,,,,,,5,0,5,0,0,6,6,42,,,,,,,,,,,,,,5,1.4305997000192292,5,0.55,0.15000000000000008,5.40644,return,3.1494394000037573,,,,,,,,,,,,,,,,,p301,19,female,up_down_width,2025-12-09_11h37.49.566,exp1,2023.1.0,59.96336238583155,
,,,,,,,,,,,,,,,,4,8.65,9.55,10.45,11.35,0,0.9,0.65,0.25,2.95,10,initial,36.05,312,344,377,409,0,9,9,9,9,0,,,,,,,5,0,5,0,0,7,7,30,,,,,,,,,,,,,,4,1.7466863000299782,4,0.45,0.20000000000000007,7.20859,return,2.107794900017325,,,,,,,,,,,,,,,,,p301,19,female,up_down_width,2025-12-09_11h37.49.566,exp1,2023.1.0,59.96336238583155,
,,,,,,,,,,,,,,,,4,8.35,9.45,10.55,11.65,0,1.1,0.55,0.55,3.8500000000000005,10,initial,36.05,301,341,380,420,0,9,9,9,9,0,,,,,,,5,0,5,0,0,8,8,17,,,,,,,,,,,,,,4,1.6261934000067413,4,0.25,0.39999999999999997,14.41717,return,1.816121599986218,,,,,,,,,,,,,,,,,p301,19,female,up_down_width,2025-12-09_11h37.49.566,exp1,2023.1.0,59.96336238583155,
,,,,,,,,,,,,,,,,5,7.8,8.9,10,11.1,12.2,1.1,0.7000000000000001,0.4,4.800000000000001,10,initial,36.05,281,321,361,400,440,9,9,9,9,9,,,,,,,5,0,5,0,0,9,9,38,,,,,,,,,,,,,,5,1.3460333999828435,5,0.5,0.35000000000000003,12.61502,return,1.3080487999832258,,,,,,,,,,,,,,,,,p301,19,female,up_down_width,2025-12-09_11h37.49.566,exp1,2023.1.0,59.96336238583155,
,,,,,,,,,,,,,,,,5,8.6,9.3,10,10.7,11.4,0.7,0.1499999999999999,0.55,3.3499999999999996,10,initial,36.05,310,335,361,386,411,9,9,9,9,9,,,,,,,5,0,5,0,0,10,10,40,,,,,,,,,,,,,,4,2.094537800003309,4,0.3,0.44999999999999996,16.21932,return,2.458483900001738,,,,,,,,,,,,,,,,,p301,19,female,up_down_width,2025-12-09_11h37.49.566,exp1,2023.1.0,59.96336238583155,
,,,,,,,,,,,,,,,,4,8.65,9.55,10.45,11.35,0,0.9,0.35,0.55,3.25,10,initial,36.05,312,344,377,409,0,9,9,9,9,0,,,,,,,5,0,5,0,0,11,11,28,,,,,,,,,,,,,,4,4.068018099991605,4,0.45,0.4,14.41717,return,1.3920358000323176,,,,,,,,,,,,,,,,,p301,19,female,up_down_width,2025-12-09_11h37.49.566,exp1,2023.1.0,59.96336238583155,
,,,,,,,,,,,,,,,,5,8.2,9.1,10,10.9,11.8,0.9,0.65,0.25,3.85,10,initial,36.05,296,328,361,393,425,9,9,9,9,9,,,,,,,5,0,5,0,0,12,12,48,,,,,,,,,,,,,,5,2.065936499973759,5,0.5,0.15000000000000008,5.40644,return,2.5592232000199147,,,,,,,,,,,,,,,,,p301,19,female,up_down_width,2025-12-09_11h37.49.566,exp1,2023.1.0,59.96336238583155,
,,,,,,,,,,,,,,,,5,8.65,9.325,10,10.675,11.35,0.675,0.275,0.4,3.1,10,match,36.05,312,336,361,385,409,9,9,9,9,9,,,,,,,5,0,5,0,0,13,13,33,,,,,,,,,,,,,,5,1.7594734999584034,5,0.3,0.3,10.81288,return,1.60732160002226,,,,,,,,,,,,,,,,,p301,19,female,up_down_width,2025-12-09_11h37.49.566,exp1,2023.1.0,59.96336238583155,
,,,,,,,,,,,,,,,,3,8.9,10,11.1,0,0,1.1,0.7000000000000001,0.4,2.6000000000000005,10,initial,36.05,321,361,400,0,0,9,9,9,0,0,,,,,,,5,0,5,0,0,14,14,4,,,,,,,,,,,,,,2,4.304559200012591,2,0.5,0.35000000000000003,12.61502,return,1.8431451999931596,,,,,,,,,,,,,,,,,p301,19,female,up_down_width,2025-12-09_11h37.49.566,exp1,2023.1.0,59.96336238583155,
,,,,,,,,,,,,,,,,5,8.65,9.325,10,10.675,11.35,0.675,0.42500000000000004,0.25,2.95,10,match,36.05,312,336,361,385,409,9,9,9,9,9,,,,,,,5,0,5,0,0,15,15,31,,,,,,,,,,,,,,5,1.8404284000280313,5,0.45,0.20000000000000007,7.20859,return,2.5014750999980606,,,,,,,,,,,,,,,,,p301,19,female,up_down_width,2025-12-09_11h37.49.566,exp1,2023.1.0,59.96336238583155,
,,,,,,,,,,,,,,,,5,8.35,9.175,10,10.825,11.65,0.8250000000000001,0.275,0.55,3.85,10,match,36.05,301,331,361,390,420,9,9,9,9,9,,,,,,,5,0,5,0,0,16,16,18,,,,,,,,,,,,,,5,1.6417905000271276,5,0.3,0.49999999999999994,18.02146,return,2.5180905000306666,,,,,,,,,,,,,,,,,p301,19,female,up_down_width,2025-12-09_11h37.49.566,exp1,2023.1.0,59.96336238583155,
,,,,,,,,,,,,,,,,4,8.35,9.45,10.55,11.65,0,1.1,0.8500000000000001,0.25,3.5500000000000003,10,initial,36.05,301,341,380,420,0,9,9,9,9,0,,,,,,,5,0,5,0,0,17,17,19,,,,,,,,,,,,,,3,1.9351252000196837,3,0.5,0.20000000000000007,7.20859,return,2.0493341000401415,,,,,,,,,,,,,,,,,p301,19,female,up_down_width,2025-12-09_11h37.49.566,exp1,2023.1.0,59.96336238583155,
,,,,,,,,,,,,,,,,4,8.9,9.633333333333333,10.366666666666667,11.1,0,0.7333333333333333,0.18333333333333326,0.55,2.75,10,match,36.05,321,347,374,400,0,9,9,9,9,0,,,,,,,5,0,5,0,0,18,18,1,,,,,,,,,,,,,,3,2.598530999966897,3,0.35,0.39999999999999997,14.41717,return,1.309124100022018,,,,,,,,,,,,,,,,,p301,19,female,up_down_width,2025-12-09_11h37.49.566,exp1,2023.1.0,59.96336238583155,
,,,,,,,,,,,,,,,,3,8.6,10,11.4,0,0,1.4,1.15,0.25,3.05,10,match,36.05,310,361,411,0,0,9,9,9,0,0,,,,,,,5,0,5,0,0,19,19,43,,,,,,,,,,,,,,2,1.4578707999899052,2,0.25,0.15000000000000002,5.40644,return,1.5424154999782331,,,,,,,,,,,,,,,,,p301,19,female,up_down_width,2025-12-09_11h37.49.566,exp1,2023.1.0,59.96336238583155,
,,,,,,,,,,,,,,,,5,7.8,8.9,10,11.1,12.2,1.1,0.55,0.55,4.95,10,initial,36.05,281,321,361,400,440,9,9,9,9,9,,,,,,,5,0,5,0,0,20,20,34,,,,,,,,,,,,,,5,1.5744621999911033,5,0.45,0.45,16.21932,return,1.605343899980653,,,,,,,,,,,,,,,,,p301,19,female,up_down_width,2025-12-09_11h37.49.566,exp1,2023.1.0,59.96336238583155,
,,,,,,,,,,,,,,,,3,9.3,10,10.7,0,0,0.7,0.1499999999999999,0.55,1.95,10,initial,36.05,335,361,386,0,0,9,9,9,0,0,,,,,,,5,0,5,0,0,21,21,6,,,,,,,,,,,,,,2,1.734065999975428,2,0.35,0.44999999999999996,16.21932,return,1.5195030000177212,,,,,,,,,,,,,,,,,p301,19,female,up_down_width,2025-12-09_11h37.49.566,exp1,2023.1.0,59.96336238583155,
,,,,,,,,,,,,,,,,5,8.2,9.1,10,10.9,11.8,0.9,0.5,0.4,4,10,initial,36.05,296,328,361,393,425,9,9,9,9,9,,,,,,,5,0,5,0,0,22,22,50,,,,,,,,,,,,,,5,1.1572503999923356,5,0.45,0.45,16.21932,return,1.4632697000051849,,,,,,,,,,,,,,,,,p301,19,female,up_down_width,2025-12-09_11h37.49.566,exp1,2023.1.0,59.96336238583155,
,,,,,,,,,,,,,,,,5,8.2,9.1,10,10.9,11.8,0.9,0.35,0.55,4.15,10,initial,36.05,296,328,361,393,425,9,9,9,9,9,,,,,,,5,0,5,0,0,23,23,46,,,,,,,,,,,,,,5,1.1658967999974266,5,0.45,0.55,19.82361,return,1.901062099961564,,,,,,,,,,,,,,,,,p301,19,female,up_down_width,2025-12-09_11h37.49.566,exp1,2023.1.0,59.96336238583155,
,,,,,,,,,,,,,,,,4,8.95,9.65,10.35,11.05,0,0.7,0.29999999999999993,0.4,2.5,10,initial,36.05,323,348,373,398,0,9,9,9,9,0,,,,,,,5,0,5,0,0,24,24,26,,,,,,,,,,,,,,4,2.3194827999686822,4,0.55,0.35000000000000003,12.61502,return,2.001153199991677,,,,,,,,,,,,,,,,,p301,19,female,up_down_width,2025-12-09_11h37.49.566,exp1,2023.1.0,59.96336238583155,
,,,,,,,,,,,,,,,,4,9.1,9.7,10.3,10.9,0,0.6000000000000001,0.20000000000000004,0.4,2.2,10,match,36.05,328,350,371,393,0,9,9,9,9,0,,,,,,,5,0,5,0,0,25,25,16,,,,,,,,,,,,,,3,1.438757199968677,3,0.5,0.15000000000000008,5.40644,return,2.836389700009022,,,,,,,,,,,,,,,,,p301,19,female,up_down_width,2025-12-09_11h37.49.566,exp1,2023.1.0,59.96336238583155,
