amount_p,posx1_p,posx2_p,posx3_p,posx4_p,posx5_p,center_to_center_p,edge_to_edge_p,w_p,stim_lengt_p,eccentricity_p,line1_p,line2_p,line3_p,line4_p,line5_p,amount,posx1,posx2,posx3,posx4,posx5,center_to_center,edge_to_edge,w,stim_length,eccentricity,trial_type,deg_to_pix_index,posx1_in_pix,posx2_in_pix,posx3_in_pix,posx4_in_pix,posx5_in_pix,line1,line2,line3,line4,line5,posx,setsize_cobdi,trials.thisRepN,trials.thisTrialN,trials.thisN,trials.thisIndex,blocks.thisRepN,blocks.thisTrialN,blocks.thisN,blocks.thisIndex,loop.thisRepN,loop.thisTrialN,loop.thisN,loop.thisIndex,first.thisRepN,first.thisTrialN,first.thisN,first.thisIndex,second.thisRepN,second.thisTrialN,second.thisN,second.thisIndex,thisRow.t,notes,key_resp_3.started,key_resp_3.keys,key_resp_3.rt,key_resp.keys,key_resp.rt,response,starting_width_deg,response_width_degree,response_width_pixel,next_5.keys,next_5.rt,key_resp_4.keys,key_resp_4.rt,text_3.started,text_4.started,key_resp_2.started,text_2.started,key_resp_2.keys,key_resp_2.rt,adjusting.started,next.keys,next.rt,text_control2.started,key_resp.started,key_resp.corr,text_bye.started,text_bye.stopped,participant,age,gender,resp_group,date,expName,psychopyVersion,frameRate,
,,,,,,,,,,,,,,,,,,,,,,,,,,,,,,,,,,,,,,,,,,,,,,,,,,,,,,,,,,,,,,,479.33962189999875,c,133.8446840000106,,,,,,,,,,,,,,,,,,,,,,,,,p302,21,female,up_down_width,2025-12-13_10h00.27.162,exp1,2023.1.0,59.93511425012232,
4,9.5,9.833333333333334,10.166666666666666,10.5,0,0.33333333333333337,0.23333333333333336,0.1,1.1,10,9,9,9,9,0,,,,,,,,,,,,,,,,,,,,,,,,,,0,0,0,3,,,,,,,,,,,,,,,,,,,,,,3,3.4882786000089254,3,0.2,0.10000000000000002,3.60429,return,10.403727299999446,,,,,,,,,,,,,,,,,p302,21,female,up_down_width,2025-12-13_10h00.27.162,exp1,2023.1.0,59.93511425012232,
4,8.65,9.55,10.45,11.35,0,0.9,0.5,0.4,3.1,10,9,9,9,9,0,,,,,,,,,,,,,,,,,,,,,,,,,,0,1,1,5,,,,,,,,,,,,,,,,,,,,,,3,3.0081683000025805,3,0.35,0.35,12.61502,return,2.2307255000050645,,,,,,,,,,,,,,,,,p302,21,female,up_down_width,2025-12-13_10h00.27.162,exp1,2023.1.0,59.93511425012232,
5,9.25,9.625,10,10.375,10.75,0.375,0.125,0.25,1.75,10,9,9,9,9,9,,,,,,,,,,,,,,,,,,,,,,,,,,0,2,2,6,,,,,,,,,,,,,,,,,,,,,,4,2.075749799987534,4,0.35,0.25,9.01073,return,6.215272000001278,,,,,,,,,,,,,,,,,p302,21,female,up_down_width,2025-12-13_10h00.27.162,exp1,2023.1.0,59.93511425012232,
3,9,10,11,0,0,1,0.9,0.1,2.1,10,9,9,9,0,0,,,,,,,,,,,,,,,,,,,,,,,,,,0,3,3,1,,,,,,,,,,,,,,,,,,,,,,2,1.4197783000126947,2,0.35,0.05000000000000002,1.80215,return,5.969878499978222,,,,,,,,,,,,,,,,,p302,21,female,up_down_width,2025-12-13_10h00.27.162,exp1,2023.1.0,59.93511425012232,
5,9,9.5,10,10.5,11,0.5,0.09999999999999998,0.4,2.4,10,9,9,9,9,9,,,,,,,,,,,,,,,,,,,,,,,,,,0,4,4,8,,,,,,,,,,,,,,,,,,,,,,4,2.4901958999980707,4,0.4,0.4,14.41717,return,1.3970926000038162,,,,,,,,,,,,,,,,,p302,21,female,up_down_width,2025-12-13_10h00.27.162,exp1,2023.1.0,59.93511425012232,
3,8.2,10,11.8,0,0,1.7999999999999998,1.4,0.4,4,10,9,9,9,0,0,,,,,,,,,,,,,,,,,,,,,,,,,,0,5,5,2,,,,,,,,,,,,,,,,,,,,,,2,1.7547583999985363,2,0.3,0.2,7.20859,return,3.0115339000185486,,,,,,,,,,,,,,,,,p302,21,female,up_down_width,2025-12-13_10h00.27.162,exp1,2023.1.0,59.93511425012232,
4,9.25,9.75,10.25,10.75,0,0.5,0.25,0.25,1.75,10,9,9,9,9,0,,,,,,,,,,,,,,,,,,,,,,,,,,0,6,6,4,,,,,,,,,,,,,,,,,,,,,,4,2.1416018000163604,4,0.55,0.30000000000000004,10.81288,return,5.607411299977684,,,,,,,,,,,,,,,,,p302,21,female,up_down_width,2025-12-13_10h00.27.162,exp1,2023.1.0,59.93511425012232,
3,9.5,10,10.5,0,0,0.5,0.4,0.1,1.1,10,9,9,9,0,0,,,,,,,,,,,,,,,,,,,,,,,,,,0,7,7,0,,,,,,,,,,,,,,,,,,,,,,2,1.4708541999862064,2,0.4,0.15000000000000008,5.40644,return,5.555370699992636,,,,,,,,,,,,,,,,,p302,21,female,up_down_width,2025-12-13_10h00.27.162,exp1,2023.1.0,59.93511425012232,
5,8.6,9.3,10,10.7,11.4,0.7,0.29999999999999993,0.4,3.1999999999999997,10,9,9,9,9,9,,,,,,,,,,,,,,,,,,,,,,,,,,0,8,8,7,,,,,,,,,,,,,,,,,,,,,,5,1.5492330999986734,5,0.3,0.3,10.81288,return,3.2616128999798093,,,,,,,,,,,,,,,,,p302,21,female,up_down_width,2025-12-13_10h00.27.162,exp1,2023.1.0,59.93511425012232,
,,,,,,,,,,,,,,,,,,,,,,,,,,,,,,,,,,,,,,,,,,,,,,,,,,,,,,,,,,,,,,,,,,,,,,,,,,c,84.79358560001128,,,,,,,,,,,,,,,p302,21,female,up_down_width,2025-12-13_10h00.27.162,exp1,2023.1.0,59.93511425012232,
,,,,,,,,,,,,,,,,5,8.2,9.1,10,10.9,11.8,0.9,0.5,0.4,4,10,initial,36.05,296,328,361,393,425,9,9,9,9,9,,,,,,,0,0,0,0,0,0,0,50,,,,,,,,,,,,,,4,1.7463446000183467,4,0.55,0.4,14.41717,return,3.3542453999980353,,,,,,,,,,,,,,,,,p302,21,female,up_down_width,2025-12-13_10h00.27.162,exp1,2023.1.0,59.93511425012232,
,,,,,,,,,,,,,,,,3,7.8,10,12.2,0,0,2.2,1.9500000000000002,0.25,4.65,10,match,36.05,281,361,440,0,0,9,9,9,0,0,,,,,,,0,0,0,0,0,1,1,37,,,,,,,,,,,,,,2,1.5123004000051878,2,0.5,0.25000000000000006,9.01073,return,4.282527200004552,,,,,,,,,,,,,,,,,p302,21,female,up_down_width,2025-12-13_10h00.27.162,exp1,2023.1.0,59.93511425012232,
,,,,,,,,,,,,,,,,3,9.1,10,10.9,0,0,0.9,0.65,0.25,2.05,10,initial,36.05,328,361,393,0,0,9,9,9,0,0,,,,,,,0,0,0,0,0,2,2,13,,,,,,,,,,,,,,3,1.9048118999926373,3,0.3,0.25,9.01073,return,2.7077489999937825,,,,,,,,,,,,,,,,,p302,21,female,up_down_width,2025-12-13_10h00.27.162,exp1,2023.1.0,59.93511425012232,
,,,,,,,,,,,,,,,,5,8.35,9.175,10,10.825,11.65,0.8250000000000001,0.275,0.55,3.85,10,match,36.05,301,331,361,390,420,9,9,9,9,9,,,,,,,0,0,0,0,0,3,3,18,,,,,,,,,,,,,,5,1.8883421999926213,5,0.25,0.35,12.61502,return,1.8428934999974445,,,,,,,,,,,,,,,,,p302,21,female,up_down_width,2025-12-13_10h00.27.162,exp1,2023.1.0,59.93511425012232,
,,,,,,,,,,,,,,,,5,8.95,9.475,10,10.525,11.05,0.525,0.125,0.4,2.5,10,match,36.05,323,342,361,379,398,9,9,9,9,9,,,,,,,0,0,0,0,0,4,4,27,,,,,,,,,,,,,,3,2.394533299986506,3,0.35,0.39999999999999997,14.41717,return,2.1531842999975197,,,,,,,,,,,,,,,,,p302,21,female,up_down_width,2025-12-13_10h00.27.162,exp1,2023.1.0,59.93511425012232,
,,,,,,,,,,,,,,,,3,9.1,10,10.9,0,0,0.9,0.35,0.55,2.35,10,initial,36.05,328,361,393,0,0,9,9,9,0,0,,,,,,,0,0,0,0,0,5,5,11,,,,,,,,,,,,,,2,1.2548776000039652,2,0.45,0.6500000000000001,23.4279,return,2.1789425000024494,,,,,,,,,,,,,,,,,p302,21,female,up_down_width,2025-12-13_10h00.27.162,exp1,2023.1.0,59.93511425012232,
,,,,,,,,,,,,,,,,4,8.35,9.45,10.55,11.65,0,1.1,0.8500000000000001,0.25,3.5500000000000003,10,initial,36.05,301,341,380,420,0,9,9,9,9,0,,,,,,,0,0,0,0,0,6,6,19,,,,,,,,,,,,,,4,3.2767950000124983,4,0.5,0.25000000000000006,9.01073,return,5.6248506999982055,,,,,,,,,,,,,,,,,p302,21,female,up_down_width,2025-12-13_10h00.27.162,exp1,2023.1.0,59.93511425012232,
,,,,,,,,,,,,,,,,3,7.8,10,12.2,0,0,2.2,1.65,0.55,4.95,10,match,36.05,281,361,440,0,0,9,9,9,0,0,,,,,,,0,0,0,0,0,7,7,35,,,,,,,,,,,,,,2,1.7868127999827266,2,0.4,0.45,16.21932,return,2.401690200000303,,,,,,,,,,,,,,,,,p302,21,female,up_down_width,2025-12-13_10h00.27.162,exp1,2023.1.0,59.93511425012232,
,,,,,,,,,,,,,,,,4,9.3,9.766666666666667,10.233333333333333,10.7,0,0.4666666666666667,0.06666666666666665,0.4,1.8,10,match,36.05,335,352,369,386,0,9,9,9,9,0,,,,,,,0,0,0,0,0,8,8,10,,,,,,,,,,,,,,3,2.489422199985711,3,0.25,0.39999999999999997,14.41717,return,3.7155637000105344,,,,,,,,,,,,,,,,,p302,21,female,up_down_width,2025-12-13_10h00.27.162,exp1,2023.1.0,59.93511425012232,
,,,,,,,,,,,,,,,,5,8.65,9.325,10,10.675,11.35,0.675,0.125,0.55,3.25,10,match,36.05,312,336,361,385,409,9,9,9,9,9,,,,,,,0,0,0,0,0,9,9,29,,,,,,,,,,,,,,3,2.009169099997962,3,0.25,0.6,21.62576,return,3.399412700004177,,,,,,,,,,,,,,,,,p302,21,female,up_down_width,2025-12-13_10h00.27.162,exp1,2023.1.0,59.93511425012232,
,,,,,,,,,,,,,,,,4,9.1,9.7,10.3,10.9,0,0.6000000000000001,0.20000000000000004,0.4,2.2,10,match,36.05,328,350,371,393,0,9,9,9,9,0,,,,,,,0,0,0,0,0,10,10,16,,,,,,,,,,,,,,4,1.4594293000118341,4,0.35,0.49999999999999994,18.02146,return,2.136209799995413,,,,,,,,,,,,,,,,,p302,21,female,up_down_width,2025-12-13_10h00.27.162,exp1,2023.1.0,59.93511425012232,
,,,,,,,,,,,,,,,,5,8.65,9.325,10,10.675,11.35,0.675,0.275,0.4,3.1,10,match,36.05,312,336,361,385,409,9,9,9,9,9,,,,,,,0,0,0,0,0,11,11,33,,,,,,,,,,,,,,5,2.568203100003302,5,0.55,0.45,16.21932,return,1.6652487000101246,,,,,,,,,,,,,,,,,p302,21,female,up_down_width,2025-12-13_10h00.27.162,exp1,2023.1.0,59.93511425012232,
,,,,,,,,,,,,,,,,5,8.6,9.3,10,10.7,11.4,0.7,0.29999999999999993,0.4,3.1999999999999997,10,initial,36.05,310,335,361,386,411,9,9,9,9,9,,,,,,,0,0,0,0,0,12,12,44,,,,,,,,,,,,,,5,1.8421953000070062,5,0.55,0.45,16.21932,return,2.727721399976872,,,,,,,,,,,,,,,,,p302,21,female,up_down_width,2025-12-13_10h00.27.162,exp1,2023.1.0,59.93511425012232,
,,,,,,,,,,,,,,,,5,7.8,8.9,10,11.1,12.2,1.1,0.7000000000000001,0.4,4.800000000000001,10,initial,36.05,281,321,361,400,440,9,9,9,9,9,,,,,,,0,0,0,0,0,13,13,38,,,,,,,,,,,,,,4,1.6991711999871768,4,0.35,0.49999999999999994,18.02146,return,1.9826432000263594,,,,,,,,,,,,,,,,,p302,21,female,up_down_width,2025-12-13_10h00.27.162,exp1,2023.1.0,59.93511425012232,
,,,,,,,,,,,,,,,,4,8.35,9.45,10.55,11.65,0,1.1,0.55,0.55,3.8500000000000005,10,initial,36.05,301,341,380,420,0,9,9,9,9,0,,,,,,,0,0,0,0,0,14,14,17,,,,,,,,,,,,,,3,1.6016914000210818,3,0.25,0.44999999999999996,16.21932,return,1.873563400004059,,,,,,,,,,,,,,,,,p302,21,female,up_down_width,2025-12-13_10h00.27.162,exp1,2023.1.0,59.93511425012232,
,,,,,,,,,,,,,,,,3,8.9,10,11.1,0,0,1.1,0.8500000000000001,0.25,2.45,10,initial,36.05,321,361,400,0,0,9,9,9,0,0,,,,,,,0,0,0,0,0,15,15,2,,,,,,,,,,,,,,2,1.2182920000050217,2,0.5,0.25000000000000006,9.01073,return,3.6807473999797367,,,,,,,,,,,,,,,,,p302,21,female,up_down_width,2025-12-13_10h00.27.162,exp1,2023.1.0,59.93511425012232,
,,,,,,,,,,,,,,,,3,7.800000000000001,10,12.2,0,0,2.1999999999999997,1.7999999999999998,0.4,4.8,10,match,36.05,281,361,440,0,0,9,9,9,0,0,,,,,,,0,0,0,0,0,16,16,39,,,,,,,,,,,,,,2,1.4994349000044167,2,0.35,0.44999999999999996,16.21932,return,2.478264500008663,,,,,,,,,,,,,,,,,p302,21,female,up_down_width,2025-12-13_10h00.27.162,exp1,2023.1.0,59.93511425012232,
,,,,,,,,,,,,,,,,5,8.2,9.1,10,10.9,11.8,0.9,0.65,0.25,3.85,10,initial,36.05,296,328,361,393,425,9,9,9,9,9,,,,,,,0,0,0,0,0,17,17,48,,,,,,,,,,,,,,4,1.7261870999936946,4,0.35,0.2,7.20859,return,2.103915599989705,,,,,,,,,,,,,,,,,p302,21,female,up_down_width,2025-12-13_10h00.27.162,exp1,2023.1.0,59.93511425012232,
,,,,,,,,,,,,,,,,4,8.95,9.65,10.35,11.05,0,0.7,0.29999999999999993,0.4,2.5,10,initial,36.05,323,348,373,398,0,9,9,9,9,0,,,,,,,0,0,0,0,0,18,18,26,,,,,,,,,,,,,,4,1.7288960999867413,4,0.4,0.4,14.41717,return,1.099163699982455,,,,,,,,,,,,,,,,,p302,21,female,up_down_width,2025-12-13_10h00.27.162,exp1,2023.1.0,59.93511425012232,
,,,,,,,,,,,,,,,,3,9.3,10,10.7,0,0,0.7,0.29999999999999993,0.4,1.8,10,initial,36.05,335,361,386,0,0,9,9,9,0,0,,,,,,,0,0,0,0,0,19,19,9,,,,,,,,,,,,,,2,1.4146602000109851,2,0.4,0.45,16.21932,return,1.5017250000091735,,,,,,,,,,,,,,,,,p302,21,female,up_down_width,2025-12-13_10h00.27.162,exp1,2023.1.0,59.93511425012232,
,,,,,,,,,,,,,,,,3,8.9,10,11.1,0,0,1.1,0.55,0.55,2.75,10,initial,36.05,321,361,400,0,0,9,9,9,0,0,,,,,,,0,0,0,0,0,20,20,0,,,,,,,,,,,,,,2,1.2974756000039633,2,0.35,0.5499999999999999,19.82361,return,2.349676699988777,,,,,,,,,,,,,,,,,p302,21,female,up_down_width,2025-12-13_10h00.27.162,exp1,2023.1.0,59.93511425012232,
,,,,,,,,,,,,,,,,4,8.35,9.45,10.55,11.65,0,1.1,0.7000000000000001,0.4,3.7,10,initial,36.05,301,341,380,420,0,9,9,9,9,0,,,,,,,0,0,0,0,0,21,21,21,,,,,,,,,,,,,,4,1.6283472999930382,4,0.5,0.55,19.82361,return,3.593469500017818,,,,,,,,,,,,,,,,,p302,21,female,up_down_width,2025-12-13_10h00.27.162,exp1,2023.1.0,59.93511425012232,
,,,,,,,,,,,,,,,,3,8.2,10,11.8,0,0,1.8,1.55,0.25,3.85,10,match,36.05,296,361,425,0,0,9,9,9,0,0,,,,,,,0,0,0,0,0,22,22,49,,,,,,,,,,,,,,2,1.4443254000216257,2,0.3,0.15000000000000002,5.40644,return,4.9045897999894805,,,,,,,,,,,,,,,,,p302,21,female,up_down_width,2025-12-13_10h00.27.162,exp1,2023.1.0,59.93511425012232,
,,,,,,,,,,,,,,,,5,8.275,9.1375,10,10.8625,11.725,0.8625,0.6125,0.25,3.7,10,match,36.05,298,329,361,392,423,9,9,9,9,9,,,,,,,0,0,0,0,0,23,23,22,,,,,,,,,,,,,,5,1.9220713000104297,5,0.25,0.2,7.20859,return,1.970939399994677,,,,,,,,,,,,,,,,,p302,21,female,up_down_width,2025-12-13_10h00.27.162,exp1,2023.1.0,59.93511425012232,
,,,,,,,,,,,,,,,,4,9.3,9.766666666666667,10.233333333333333,10.7,0,0.4666666666666667,0.21666666666666665,0.25,1.65,10,match,36.05,335,352,369,386,0,9,9,9,9,0,,,,,,,0,0,0,0,0,24,24,8,,,,,,,,,,,,,,3,1.473739300010493,3,0.45,0.15000000000000008,5.40644,return,2.9177657999971416,,,,,,,,,,,,,,,,,p302,21,female,up_down_width,2025-12-13_10h00.27.162,exp1,2023.1.0,59.93511425012232,
,,,,,,,,,,,,,,,,4,9.1,9.7,10.3,10.9,0,0.6,0.04999999999999997,0.55,2.35,10,match,36.05,328,350,371,393,0,9,9,9,9,0,,,,,,,0,0,0,0,0,25,25,12,,,,,,,,,,,,,,3,1.6456528999842703,3,0.2,0.6,21.62576,return,4.715789199981373,,,,,,,,,,,,,,,,,p302,21,female,up_down_width,2025-12-13_10h00.27.162,exp1,2023.1.0,59.93511425012232,
,,,,,,,,,,,,,,,,4,8.95,9.65,10.35,11.05,0,0.7,0.44999999999999996,0.25,2.3499999999999996,10,initial,36.05,323,348,373,398,0,9,9,9,9,0,,,,,,,0,0,0,0,0,26,26,24,,,,,,,,,,,,,,3,1.3979950999782886,3,0.35,0.2,7.20859,return,1.661596300022211,,,,,,,,,,,,,,,,,p302,21,female,up_down_width,2025-12-13_10h00.27.162,exp1,2023.1.0,59.93511425012232,
,,,,,,,,,,,,,,,,5,7.8,8.9,10,11.1,12.2,1.1,0.55,0.55,4.95,10,initial,36.05,281,321,361,400,440,9,9,9,9,9,,,,,,,0,0,0,0,0,27,27,34,,,,,,,,,,,,,,5,2.6897454999852926,5,0.45,0.55,19.82361,return,1.7008401000057347,,,,,,,,,,,,,,,,,p302,21,female,up_down_width,2025-12-13_10h00.27.162,exp1,2023.1.0,59.93511425012232,
,,,,,,,,,,,,,,,,4,8.9,9.633333333333333,10.366666666666667,11.1,0,0.7333333333333333,0.18333333333333326,0.55,2.75,10,match,36.05,321,347,374,400,0,9,9,9,9,0,,,,,,,0,0,0,0,0,28,28,1,,,,,,,,,,,,,,3,1.491223999997601,3,0.4,0.6500000000000001,23.4279,return,1.941573599993717,,,,,,,,,,,,,,,,,p302,21,female,up_down_width,2025-12-13_10h00.27.162,exp1,2023.1.0,59.93511425012232,
,,,,,,,,,,,,,,,,4,8.65,9.55,10.45,11.35,0,0.9,0.65,0.25,2.95,10,initial,36.05,312,344,377,409,0,9,9,9,9,0,,,,,,,0,0,0,0,0,29,29,30,,,,,,,,,,,,,,4,1.4703394999960437,4,0.4,0.20000000000000007,7.20859,return,3.3782831000280567,,,,,,,,,,,,,,,,,p302,21,female,up_down_width,2025-12-13_10h00.27.162,exp1,2023.1.0,59.93511425012232,
,,,,,,,,,,,,,,,,5,8.35,9.175,10,10.825,11.65,0.825,0.575,0.25,3.55,10,match,36.05,301,331,361,390,420,9,9,9,9,9,,,,,,,0,0,0,0,0,30,30,20,,,,,,,,,,,,,,6,1.5735738999792375,6,0.35,0.2,7.20859,return,2.9812725000083447,,,,,,,,,,,,,,,,,p302,21,female,up_down_width,2025-12-13_10h00.27.162,exp1,2023.1.0,59.93511425012232,
,,,,,,,,,,,,,,,,4,8.9,9.633333333333333,10.366666666666667,11.1,0,0.7333333333333334,0.4833333333333334,0.25,2.45,10,match,36.05,321,347,374,400,0,9,9,9,9,0,,,,,,,0,0,0,0,0,31,31,3,,,,,,,,,,,,,,4,1.5734345999953803,4,0.55,0.20000000000000007,7.20859,return,2.9329809000191744,,,,,,,,,,,,,,,,,p302,21,female,up_down_width,2025-12-13_10h00.27.162,exp1,2023.1.0,59.93511425012232,
,,,,,,,,,,,,,,,,3,9.1,10,10.9,0,0,0.9,0.5,0.4,2.2,10,initial,36.05,328,361,393,0,0,9,9,9,0,0,,,,,,,0,0,0,0,0,32,32,15,,,,,,,,,,,,,,2,1.5843434999987949,2,0.2,0.39999999999999997,14.41717,return,2.736157999985153,,,,,,,,,,,,,,,,,p302,21,female,up_down_width,2025-12-13_10h00.27.162,exp1,2023.1.0,59.93511425012232,
,,,,,,,,,,,,,,,,3,8.6,10,11.4,0,0,1.4,0.85,0.55,3.35,10,match,36.05,310,361,411,0,0,9,9,9,0,0,,,,,,,0,0,0,0,0,33,33,41,,,,,,,,,,,,,,3,1.4198256000236142,3,0.55,0.6000000000000001,21.62576,return,1.8099935000063851,,,,,,,,,,,,,,,,,p302,21,female,up_down_width,2025-12-13_10h00.27.162,exp1,2023.1.0,59.93511425012232,
,,,,,,,,,,,,,,,,3,8.6,10,11.4,0,0,1.4,1.15,0.25,3.05,10,match,36.05,310,361,411,0,0,9,9,9,0,0,,,,,,,0,0,0,0,0,34,34,43,,,,,,,,,,,,,,2,1.138744299998507,2,0.25,0.35,12.61502,return,1.7320889999973588,,,,,,,,,,,,,,,,,p302,21,female,up_down_width,2025-12-13_10h00.27.162,exp1,2023.1.0,59.93511425012232,
,,,,,,,,,,,,,,,,5,8.65,9.325,10,10.675,11.35,0.675,0.42500000000000004,0.25,2.95,10,match,36.05,312,336,361,385,409,9,9,9,9,9,,,,,,,0,0,0,0,0,35,35,31,,,,,,,,,,,,,,5,1.5036562999885064,5,0.35,0.2,7.20859,return,1.7627707999781705,,,,,,,,,,,,,,,,,p302,21,female,up_down_width,2025-12-13_10h00.27.162,exp1,2023.1.0,59.93511425012232,
,,,,,,,,,,,,,,,,4,8.65,9.55,10.45,11.35,0,0.9,0.35,0.55,3.25,10,initial,36.05,312,344,377,409,0,9,9,9,9,0,,,,,,,0,0,0,0,0,36,36,28,,,,,,,,,,,,,,3,1.1613122999842744,3,0.3,0.5499999999999999,19.82361,return,3.2259359000017866,,,,,,,,,,,,,,,,,p302,21,female,up_down_width,2025-12-13_10h00.27.162,exp1,2023.1.0,59.93511425012232,
,,,,,,,,,,,,,,,,5,8.6,9.3,10,10.7,11.4,0.7,0.1499999999999999,0.55,3.3499999999999996,10,initial,36.05,310,335,361,386,411,9,9,9,9,9,,,,,,,0,0,0,0,0,37,37,40,,,,,,,,,,,,,,5,1.324134700000286,5,0.45,0.6500000000000001,23.4279,return,1.4299866000073962,,,,,,,,,,,,,,,,,p302,21,female,up_down_width,2025-12-13_10h00.27.162,exp1,2023.1.0,59.93511425012232,
,,,,,,,,,,,,,,,,4,8.95,9.65,10.35,11.05,0,0.7,0.1499999999999999,0.55,2.65,10,initial,36.05,323,348,373,398,0,9,9,9,9,0,,,,,,,0,0,0,0,0,38,38,23,,,,,,,,,,,,,,4,1.2468869999866001,4,0.4,0.6000000000000001,21.62576,return,1.885061900014989,,,,,,,,,,,,,,,,,p302,21,female,up_down_width,2025-12-13_10h00.27.162,exp1,2023.1.0,59.93511425012232,
,,,,,,,,,,,,,,,,5,8.2,9.1,10,10.9,11.8,0.9,0.35,0.55,4.15,10,initial,36.05,296,328,361,393,425,9,9,9,9,9,,,,,,,0,0,0,0,0,39,39,46,,,,,,,,,,,,,,6,1.438341400003992,6,0.3,0.5499999999999999,19.82361,return,3.1230304000200704,,,,,,,,,,,,,,,,,p302,21,female,up_down_width,2025-12-13_10h00.27.162,exp1,2023.1.0,59.93511425012232,
,,,,,,,,,,,,,,,,5,7.8,8.9,10,11.1,12.2,1.1,0.8500000000000001,0.25,4.65,10,initial,36.05,281,321,361,400,440,9,9,9,9,9,,,,,,,0,0,0,0,0,40,40,36,,,,,,,,,,,,,,5,1.8825098000233993,5,0.5,0.15000000000000008,5.40644,return,4.237329600000521,,,,,,,,,,,,,,,,,p302,21,female,up_down_width,2025-12-13_10h00.27.162,exp1,2023.1.0,59.93511425012232,
,,,,,,,,,,,,,,,,3,8.525,10,11.475,0,0,1.475,1.225,0.25,3.2,10,match,36.05,307,361,414,0,0,9,9,9,0,0,,,,,,,0,0,0,0,0,41,41,45,,,,,,,,,,,,,,2,1.124927500000922,2,0.55,0.15000000000000008,5.40644,return,4.35949149998487,,,,,,,,,,,,,,,,,p302,21,female,up_down_width,2025-12-13_10h00.27.162,exp1,2023.1.0,59.93511425012232,
,,,,,,,,,,,,,,,,3,8.2,10,11.8,0,0,1.7999999999999998,1.4,0.4,4,10,match,36.05,296,361,425,0,0,9,9,9,0,0,,,,,,,0,0,0,0,0,42,42,51,,,,,,,,,,,,,,2,1.129573199985316,2,0.4,0.30000000000000004,10.81288,return,2.6195171999861486,,,,,,,,,,,,,,,,,p302,21,female,up_down_width,2025-12-13_10h00.27.162,exp1,2023.1.0,59.93511425012232,
,,,,,,,,,,,,,,,,3,8.9,10,11.1,0,0,1.1,0.7000000000000001,0.4,2.6000000000000005,10,initial,36.05,321,361,400,0,0,9,9,9,0,0,,,,,,,0,0,0,0,0,43,43,4,,,,,,,,,,,,,,2,1.588919600006193,2,0.3,0.39999999999999997,14.41717,return,1.716188799997326,,,,,,,,,,,,,,,,,p302,21,female,up_down_width,2025-12-13_10h00.27.162,exp1,2023.1.0,59.93511425012232,
,,,,,,,,,,,,,,,,4,8.825,9.608333333333333,10.391666666666667,11.175,0,0.7833333333333333,0.5333333333333333,0.25,2.6,10,match,36.05,318,346,375,403,0,9,9,9,9,0,,,,,,,0,0,0,0,0,44,44,5,,,,,,,,,,,,,,4,1.3301537999941502,4,0.55,0.25000000000000006,9.01073,return,3.4031991999945603,,,,,,,,,,,,,,,,,p302,21,female,up_down_width,2025-12-13_10h00.27.162,exp1,2023.1.0,59.93511425012232,
,,,,,,,,,,,,,,,,3,9.3,10,10.7,0,0,0.7,0.1499999999999999,0.55,1.95,10,initial,36.05,335,361,386,0,0,9,9,9,0,0,,,,,,,0,0,0,0,0,45,45,6,,,,,,,,,,,,,,2,1.9802952999889385,2,0.25,0.49999999999999994,18.02146,return,3.371541900007287,,,,,,,,,,,,,,,,,p302,21,female,up_down_width,2025-12-13_10h00.27.162,exp1,2023.1.0,59.93511425012232,
,,,,,,,,,,,,,,,,3,8.2,10,11.8,0,0,1.8,1.25,0.55,4.15,10,match,36.05,296,361,425,0,0,9,9,9,0,0,,,,,,,0,0,0,0,0,46,46,47,,,,,,,,,,,,,,2,1.4149733999802265,2,0.3,0.49999999999999994,18.02146,return,2.4611770000192337,,,,,,,,,,,,,,,,,p302,21,female,up_down_width,2025-12-13_10h00.27.162,exp1,2023.1.0,59.93511425012232,
,,,,,,,,,,,,,,,,4,8.65,9.55,10.45,11.35,0,0.9,0.5,0.4,3.1,10,initial,36.05,312,344,377,409,0,9,9,9,9,0,,,,,,,0,0,0,0,0,47,47,32,,,,,,,,,,,,,,4,1.3609912999963854,4,0.45,0.6000000000000001,21.62576,return,1.5616304999857675,,,,,,,,,,,,,,,,,p302,21,female,up_down_width,2025-12-13_10h00.27.162,exp1,2023.1.0,59.93511425012232,
,,,,,,,,,,,,,,,,4,9.1,9.7,10.3,10.9,0,0.5999999999999999,0.3499999999999999,0.25,2.05,10,match,36.05,328,350,371,393,0,9,9,9,9,0,,,,,,,0,0,0,0,0,48,48,14,,,,,,,,,,,,,,2,1.1831512000062503,2,0.5,0.15000000000000002,5.40644,return,5.726350999990245,,,,,,,,,,,,,,,,,p302,21,female,up_down_width,2025-12-13_10h00.27.162,exp1,2023.1.0,59.93511425012232,
,,,,,,,,,,,,,,,,3,9.3,10,10.7,0,0,0.7,0.44999999999999996,0.25,1.65,10,initial,36.05,335,361,386,0,0,9,9,9,0,0,,,,,,,0,0,0,0,0,49,49,7,,,,,,,,,,,,,,2,1.0309630999981891,2,0.25,0.10000000000000002,3.60429,return,1.7896002999914344,,,,,,,,,,,,,,,,,p302,21,female,up_down_width,2025-12-13_10h00.27.162,exp1,2023.1.0,59.93511425012232,
,,,,,,,,,,,,,,,,5,8.95,9.475,10,10.525,11.05,0.525,0.275,0.25,2.35,10,match,36.05,323,342,361,379,398,9,9,9,9,9,,,,,,,0,0,0,0,0,50,50,25,,,,,,,,,,,,,,5,1.9493733000126667,5,0.45,0.10000000000000007,3.60429,return,2.7820350999827497,,,,,,,,,,,,,,,,,p302,21,female,up_down_width,2025-12-13_10h00.27.162,exp1,2023.1.0,59.93511425012232,
,,,,,,,,,,,,,,,,5,8.6,9.3,10,10.7,11.4,0.7,0.44999999999999996,0.25,3.05,10,initial,36.05,310,335,361,386,411,9,9,9,9,9,,,,,,,0,0,0,0,0,51,51,42,,,,,,,,,,,,,,5,1.6172764000075404,5,0.55,0.20000000000000007,7.20859,return,3.840156200021738,,,,,,,,,,,,,,,,,p302,21,female,up_down_width,2025-12-13_10h00.27.162,exp1,2023.1.0,59.93511425012232,
,,,,,,,,,,,,,,,,,,,,,,,,,,,,,,,,,,,,,,,,,,,,,0,0,0,0,,,,,,,,,,,,,,,,,,,,,,,,,,,,1093.306076900015,1093.306076900015,1093.306076900015,,,,,,,,,,,,p302,21,female,up_down_width,2025-12-13_10h00.27.162,exp1,2023.1.0,59.93511425012232,
,,,,,,,,,,,,,,,,5,7.8,8.9,10,11.1,12.2,1.1,0.8500000000000001,0.25,4.65,10,initial,36.05,281,321,361,400,440,9,9,9,9,9,,,,,,,1,0,1,0,0,0,0,36,,,,,,,,,,,,,,5,1.6420844999956898,5,0.55,0.25000000000000006,9.01073,return,2.9674667000072077,,,,,,,,,,,,,,,,,p302,21,female,up_down_width,2025-12-13_10h00.27.162,exp1,2023.1.0,59.93511425012232,
,,,,,,,,,,,,,,,,5,8.2,9.1,10,10.9,11.8,0.9,0.65,0.25,3.85,10,initial,36.05,296,328,361,393,425,9,9,9,9,9,,,,,,,1,0,1,0,0,1,1,48,,,,,,,,,,,,,,5,1.4211017000197899,5,0.25,0.3,10.81288,return,1.4123615999997128,,,,,,,,,,,,,,,,,p302,21,female,up_down_width,2025-12-13_10h00.27.162,exp1,2023.1.0,59.93511425012232,
,,,,,,,,,,,,,,,,3,9.3,10,10.7,0,0,0.7,0.44999999999999996,0.25,1.65,10,initial,36.05,335,361,386,0,0,9,9,9,0,0,,,,,,,1,0,1,0,0,2,2,7,,,,,,,,,,,,,,2,1.0995591999962926,2,0.3,0.15000000000000002,5.40644,return,1.6154111000068951,,,,,,,,,,,,,,,,,p302,21,female,up_down_width,2025-12-13_10h00.27.162,exp1,2023.1.0,59.93511425012232,
,,,,,,,,,,,,,,,,5,8.65,9.325,10,10.675,11.35,0.675,0.42500000000000004,0.25,2.95,10,match,36.05,312,336,361,385,409,9,9,9,9,9,,,,,,,1,0,1,0,0,3,3,31,,,,,,,,,,,,,,5,1.5749047999852337,5,0.45,0.20000000000000007,7.20859,return,2.486138700012816,,,,,,,,,,,,,,,,,p302,21,female,up_down_width,2025-12-13_10h00.27.162,exp1,2023.1.0,59.93511425012232,
,,,,,,,,,,,,,,,,5,8.275,9.1375,10,10.8625,11.725,0.8625,0.6125,0.25,3.7,10,match,36.05,298,329,361,392,423,9,9,9,9,9,,,,,,,1,0,1,0,0,4,4,22,,,,,,,,,,,,,,6,1.7154939000029117,6,0.5,0.20000000000000007,7.20859,return,2.5590939999965485,,,,,,,,,,,,,,,,,p302,21,female,up_down_width,2025-12-13_10h00.27.162,exp1,2023.1.0,59.93511425012232,
,,,,,,,,,,,,,,,,4,8.35,9.45,10.55,11.65,0,1.1,0.55,0.55,3.8500000000000005,10,initial,36.05,301,341,380,420,0,9,9,9,9,0,,,,,,,1,0,1,0,0,5,5,17,,,,,,,,,,,,,,4,1.8574439999938477,4,0.35,0.49999999999999994,18.02146,return,1.670007499982603,,,,,,,,,,,,,,,,,p302,21,female,up_down_width,2025-12-13_10h00.27.162,exp1,2023.1.0,59.93511425012232,
,,,,,,,,,,,,,,,,4,9.1,9.7,10.3,10.9,0,0.5999999999999999,0.3499999999999999,0.25,2.05,10,match,36.05,328,350,371,393,0,9,9,9,9,0,,,,,,,1,0,1,0,0,6,6,14,,,,,,,,,,,,,,3,1.6844322999822907,3,0.25,0.3,10.81288,return,1.6310920999967493,,,,,,,,,,,,,,,,,p302,21,female,up_down_width,2025-12-13_10h00.27.162,exp1,2023.1.0,59.93511425012232,
,,,,,,,,,,,,,,,,5,8.2,9.1,10,10.9,11.8,0.9,0.5,0.4,4,10,initial,36.05,296,328,361,393,425,9,9,9,9,9,,,,,,,1,0,1,0,0,7,7,50,,,,,,,,,,,,,,5,1.7995527000166476,5,0.25,0.35,12.61502,return,2.301847299997462,,,,,,,,,,,,,,,,,p302,21,female,up_down_width,2025-12-13_10h00.27.162,exp1,2023.1.0,59.93511425012232,
,,,,,,,,,,,,,,,,5,8.2,9.1,10,10.9,11.8,0.9,0.35,0.55,4.15,10,initial,36.05,296,328,361,393,425,9,9,9,9,9,,,,,,,1,0,1,0,0,8,8,46,,,,,,,,,,,,,,4,1.3056836999894585,4,0.3,0.44999999999999996,16.21932,return,1.2993383000139147,,,,,,,,,,,,,,,,,p302,21,female,up_down_width,2025-12-13_10h00.27.162,exp1,2023.1.0,59.93511425012232,
,,,,,,,,,,,,,,,,5,8.6,9.3,10,10.7,11.4,0.7,0.29999999999999993,0.4,3.1999999999999997,10,initial,36.05,310,335,361,386,411,9,9,9,9,9,,,,,,,1,0,1,0,0,9,9,44,,,,,,,,,,,,,,4,2.009131400001934,4,0.2,0.49999999999999994,18.02146,return,2.4717675000138115,,,,,,,,,,,,,,,,,p302,21,female,up_down_width,2025-12-13_10h00.27.162,exp1,2023.1.0,59.93511425012232,
,,,,,,,,,,,,,,,,3,9.3,10,10.7,0,0,0.7,0.29999999999999993,0.4,1.8,10,initial,36.05,335,361,386,0,0,9,9,9,0,0,,,,,,,1,0,1,0,0,10,10,9,,,,,,,,,,,,,,2,0.6696105000155512,2,0.2,0.39999999999999997,14.41717,return,1.6979209999844898,,,,,,,,,,,,,,,,,p302,21,female,up_down_width,2025-12-13_10h00.27.162,exp1,2023.1.0,59.93511425012232,
,,,,,,,,,,,,,,,,5,8.6,9.3,10,10.7,11.4,0.7,0.44999999999999996,0.25,3.05,10,initial,36.05,310,335,361,386,411,9,9,9,9,9,,,,,,,1,0,1,0,0,11,11,42,,,,,,,,,,,,,,6,1.600642000004882,6,0.2,0.15000000000000002,5.40644,return,1.7284614999953192,,,,,,,,,,,,,,,,,p302,21,female,up_down_width,2025-12-13_10h00.27.162,exp1,2023.1.0,59.93511425012232,
,,,,,,,,,,,,,,,,3,8.525,10,11.475,0,0,1.475,1.225,0.25,3.2,10,match,36.05,307,361,414,0,0,9,9,9,0,0,,,,,,,1,0,1,0,0,12,12,45,,,,,,,,,,,,,,2,0.9680980000121053,2,0.2,0.15000000000000002,5.40644,return,1.4083141000010073,,,,,,,,,,,,,,,,,p302,21,female,up_down_width,2025-12-13_10h00.27.162,exp1,2023.1.0,59.93511425012232,
,,,,,,,,,,,,,,,,5,8.95,9.475,10,10.525,11.05,0.525,0.125,0.4,2.5,10,match,36.05,323,342,361,379,398,9,9,9,9,9,,,,,,,1,0,1,0,0,13,13,27,,,,,,,,,,,,,,4,1.5631558000168297,4,0.4,0.35000000000000003,12.61502,return,2.1557230000034906,,,,,,,,,,,,,,,,,p302,21,female,up_down_width,2025-12-13_10h00.27.162,exp1,2023.1.0,59.93511425012232,
,,,,,,,,,,,,,,,,3,9.1,10,10.9,0,0,0.9,0.65,0.25,2.05,10,initial,36.05,328,361,393,0,0,9,9,9,0,0,,,,,,,1,0,1,0,0,14,14,13,,,,,,,,,,,,,,2,0.7825848000065889,2,0.35,0.2,7.20859,return,2.3342245000239927,,,,,,,,,,,,,,,,,p302,21,female,up_down_width,2025-12-13_10h00.27.162,exp1,2023.1.0,59.93511425012232,
,,,,,,,,,,,,,,,,4,8.35,9.45,10.55,11.65,0,1.1,0.8500000000000001,0.25,3.5500000000000003,10,initial,36.05,301,341,380,420,0,9,9,9,9,0,,,,,,,1,0,1,0,0,15,15,19,,,,,,,,,,,,,,3,1.6403703000105452,3,0.5,0.15000000000000008,5.40644,return,4.597475099988515,,,,,,,,,,,,,,,,,p302,21,female,up_down_width,2025-12-13_10h00.27.162,exp1,2023.1.0,59.93511425012232,
,,,,,,,,,,,,,,,,4,8.35,9.45,10.55,11.65,0,1.1,0.7000000000000001,0.4,3.7,10,initial,36.05,301,341,380,420,0,9,9,9,9,0,,,,,,,1,0,1,0,0,16,16,21,,,,,,,,,,,,,,3,1.6905842999985907,3,0.35,0.39999999999999997,14.41717,return,1.62162520000129,,,,,,,,,,,,,,,,,p302,21,female,up_down_width,2025-12-13_10h00.27.162,exp1,2023.1.0,59.93511425012232,
,,,,,,,,,,,,,,,,4,9.3,9.766666666666667,10.233333333333333,10.7,0,0.4666666666666667,0.06666666666666665,0.4,1.8,10,match,36.05,335,352,369,386,0,9,9,9,9,0,,,,,,,1,0,1,0,0,17,17,10,,,,,,,,,,,,,,3,1.890484400006244,3,0.25,0.44999999999999996,16.21932,return,2.66077449999284,,,,,,,,,,,,,,,,,p302,21,female,up_down_width,2025-12-13_10h00.27.162,exp1,2023.1.0,59.93511425012232,
,,,,,,,,,,,,,,,,4,9.3,9.766666666666667,10.233333333333333,10.7,0,0.4666666666666667,0.21666666666666665,0.25,1.65,10,match,36.05,335,352,369,386,0,9,9,9,9,0,,,,,,,1,0,1,0,0,18,18,8,,,,,,,,,,,,,,2,0.8661527000076603,2,0.4,0.20000000000000007,7.20859,return,5.182624799985206,,,,,,,,,,,,,,,,,p302,21,female,up_down_width,2025-12-13_10h00.27.162,exp1,2023.1.0,59.93511425012232,
,,,,,,,,,,,,,,,,4,8.65,9.55,10.45,11.35,0,0.9,0.35,0.55,3.25,10,initial,36.05,312,344,377,409,0,9,9,9,9,0,,,,,,,1,0,1,0,0,19,19,28,,,,,,,,,,,,,,3,1.8724670999799855,3,0.5,0.55,19.82361,return,2.2123769000172615,,,,,,,,,,,,,,,,,p302,21,female,up_down_width,2025-12-13_10h00.27.162,exp1,2023.1.0,59.93511425012232,
,,,,,,,,,,,,,,,,3,9.3,10,10.7,0,0,0.7,0.1499999999999999,0.55,1.95,10,initial,36.05,335,361,386,0,0,9,9,9,0,0,,,,,,,1,0,1,0,0,20,20,6,,,,,,,,,,,,,,2,0.9273405999992974,2,0.45,0.6000000000000001,21.62576,return,1.6097516999871004,,,,,,,,,,,,,,,,,p302,21,female,up_down_width,2025-12-13_10h00.27.162,exp1,2023.1.0,59.93511425012232,
,,,,,,,,,,,,,,,,3,8.6,10,11.4,0,0,1.4,0.85,0.55,3.35,10,match,36.05,310,361,411,0,0,9,9,9,0,0,,,,,,,1,0,1,0,0,21,21,41,,,,,,,,,,,,,,2,0.844420400011586,2,0.2,0.5499999999999999,19.82361,return,4.681243099999847,,,,,,,,,,,,,,,,,p302,21,female,up_down_width,2025-12-13_10h00.27.162,exp1,2023.1.0,59.93511425012232,
,,,,,,,,,,,,,,,,3,7.800000000000001,10,12.2,0,0,2.1999999999999997,1.7999999999999998,0.4,4.8,10,match,36.05,281,361,440,0,0,9,9,9,0,0,,,,,,,1,0,1,0,0,22,22,39,,,,,,,,,,,,,,3,1.5527655000041705,3,0.25,0.44999999999999996,16.21932,return,2.6263518999912776,,,,,,,,,,,,,,,,,p302,21,female,up_down_width,2025-12-13_10h00.27.162,exp1,2023.1.0,59.93511425012232,
,,,,,,,,,,,,,,,,4,8.95,9.65,10.35,11.05,0,0.7,0.29999999999999993,0.4,2.5,10,initial,36.05,323,348,373,398,0,9,9,9,9,0,,,,,,,1,0,1,0,0,23,23,26,,,,,,,,,,,,,,4,0.9661491999868304,4,0.2,0.39999999999999997,14.41717,return,1.9027375000005122,,,,,,,,,,,,,,,,,p302,21,female,up_down_width,2025-12-13_10h00.27.162,exp1,2023.1.0,59.93511425012232,
,,,,,,,,,,,,,,,,3,9.1,10,10.9,0,0,0.9,0.5,0.4,2.2,10,initial,36.05,328,361,393,0,0,9,9,9,0,0,,,,,,,1,0,1,0,0,24,24,15,,,,,,,,,,,,,,3,1.099291999998968,3,0.2,0.44999999999999996,16.21932,return,4.126392299978761,,,,,,,,,,,,,,,,,p302,21,female,up_down_width,2025-12-13_10h00.27.162,exp1,2023.1.0,59.93511425012232,
,,,,,,,,,,,,,,,,5,8.95,9.475,10,10.525,11.05,0.525,0.275,0.25,2.35,10,match,36.05,323,342,361,379,398,9,9,9,9,9,,,,,,,1,0,1,0,0,25,25,25,,,,,,,,,,,,,,5,2.018405300012091,5,0.5,0.15000000000000008,5.40644,return,3.2968332000018563,,,,,,,,,,,,,,,,,p302,21,female,up_down_width,2025-12-13_10h00.27.162,exp1,2023.1.0,59.93511425012232,
,,,,,,,,,,,,,,,,4,9.1,9.7,10.3,10.9,0,0.6000000000000001,0.20000000000000004,0.4,2.2,10,match,36.05,328,350,371,393,0,9,9,9,9,0,,,,,,,1,0,1,0,0,26,26,16,,,,,,,,,,,,,,4,2.7929506999789737,4,0.2,0.3,10.81288,return,1.7054167999885976,,,,,,,,,,,,,,,,,p302,21,female,up_down_width,2025-12-13_10h00.27.162,exp1,2023.1.0,59.93511425012232,
,,,,,,,,,,,,,,,,3,7.8,10,12.2,0,0,2.2,1.9500000000000002,0.25,4.65,10,match,36.05,281,361,440,0,0,9,9,9,0,0,,,,,,,1,0,1,0,0,27,27,37,,,,,,,,,,,,,,3,1.2660905000229832,3,0.3,0.2,7.20859,return,2.0937050000065938,,,,,,,,,,,,,,,,,p302,21,female,up_down_width,2025-12-13_10h00.27.162,exp1,2023.1.0,59.93511425012232,
,,,,,,,,,,,,,,,,4,8.65,9.55,10.45,11.35,0,0.9,0.5,0.4,3.1,10,initial,36.05,312,344,377,409,0,9,9,9,9,0,,,,,,,1,0,1,0,0,28,28,32,,,,,,,,,,,,,,4,1.4829197000071872,4,0.45,0.30000000000000004,10.81288,return,1.9991481000033673,,,,,,,,,,,,,,,,,p302,21,female,up_down_width,2025-12-13_10h00.27.162,exp1,2023.1.0,59.93511425012232,
,,,,,,,,,,,,,,,,3,8.6,10,11.4,0,0,1.4,1.15,0.25,3.05,10,match,36.05,310,361,411,0,0,9,9,9,0,0,,,,,,,1,0,1,0,0,29,29,43,,,,,,,,,,,,,,2,0.8609202000079677,2,0.55,0.20000000000000007,7.20859,return,3.1938183000020217,,,,,,,,,,,,,,,,,p302,21,female,up_down_width,2025-12-13_10h00.27.162,exp1,2023.1.0,59.93511425012232,
,,,,,,,,,,,,,,,,5,8.65,9.325,10,10.675,11.35,0.675,0.125,0.55,3.25,10,match,36.05,312,336,361,385,409,9,9,9,9,9,,,,,,,1,0,1,0,0,30,30,29,,,,,,,,,,,,,,4,1.692972600023495,4,0.4,0.55,19.82361,return,1.751727499999106,,,,,,,,,,,,,,,,,p302,21,female,up_down_width,2025-12-13_10h00.27.162,exp1,2023.1.0,59.93511425012232,
,,,,,,,,,,,,,,,,3,8.9,10,11.1,0,0,1.1,0.7000000000000001,0.4,2.6000000000000005,10,initial,36.05,321,361,400,0,0,9,9,9,0,0,,,,,,,1,0,1,0,0,31,31,4,,,,,,,,,,,,,,2,0.8694383000256494,2,0.4,0.45,16.21932,return,2.401269299996784,,,,,,,,,,,,,,,,,p302,21,female,up_down_width,2025-12-13_10h00.27.162,exp1,2023.1.0,59.93511425012232,
,,,,,,,,,,,,,,,,3,8.9,10,11.1,0,0,1.1,0.55,0.55,2.75,10,initial,36.05,321,361,400,0,0,9,9,9,0,0,,,,,,,1,0,1,0,0,32,32,0,,,,,,,,,,,,,,2,1.897233800002141,2,0.4,0.6000000000000001,21.62576,return,2.316434799984563,,,,,,,,,,,,,,,,,p302,21,female,up_down_width,2025-12-13_10h00.27.162,exp1,2023.1.0,59.93511425012232,
,,,,,,,,,,,,,,,,3,8.2,10,11.8,0,0,1.7999999999999998,1.4,0.4,4,10,match,36.05,296,361,425,0,0,9,9,9,0,0,,,,,,,1,0,1,0,0,33,33,51,,,,,,,,,,,,,,2,0.6851675000216346,2,0.2,0.44999999999999996,16.21932,return,2.0487677000055555,,,,,,,,,,,,,,,,,p302,21,female,up_down_width,2025-12-13_10h00.27.162,exp1,2023.1.0,59.93511425012232,
,,,,,,,,,,,,,,,,3,7.8,10,12.2,0,0,2.2,1.65,0.55,4.95,10,match,36.05,281,361,440,0,0,9,9,9,0,0,,,,,,,1,0,1,0,0,34,34,35,,,,,,,,,,,,,,2,0.8811166000086814,2,0.4,0.6500000000000001,23.4279,return,1.9176100000040606,,,,,,,,,,,,,,,,,p302,21,female,up_down_width,2025-12-13_10h00.27.162,exp1,2023.1.0,59.93511425012232,
,,,,,,,,,,,,,,,,5,7.8,8.9,10,11.1,12.2,1.1,0.7000000000000001,0.4,4.800000000000001,10,initial,36.05,281,321,361,400,440,9,9,9,9,9,,,,,,,1,0,1,0,0,35,35,38,,,,,,,,,,,,,,5,1.2517844999965746,5,0.3,0.49999999999999994,18.02146,return,2.5124096000217833,,,,,,,,,,,,,,,,,p302,21,female,up_down_width,2025-12-13_10h00.27.162,exp1,2023.1.0,59.93511425012232,
,,,,,,,,,,,,,,,,4,8.825,9.608333333333333,10.391666666666667,11.175,0,0.7833333333333333,0.5333333333333333,0.25,2.6,10,match,36.05,318,346,375,403,0,9,9,9,9,0,,,,,,,1,0,1,0,0,36,36,5,,,,,,,,,,,,,,4,1.3483614000142552,4,0.3,0.25,9.01073,return,5.5009982000046875,,,,,,,,,,,,,,,,,p302,21,female,up_down_width,2025-12-13_10h00.27.162,exp1,2023.1.0,59.93511425012232,
,,,,,,,,,,,,,,,,3,8.9,10,11.1,0,0,1.1,0.8500000000000001,0.25,2.45,10,initial,36.05,321,361,400,0,0,9,9,9,0,0,,,,,,,1,0,1,0,0,37,37,2,,,,,,,,,,,,,,2,1.368164200015599,2,0.55,0.20000000000000007,7.20859,return,3.600801499997033,,,,,,,,,,,,,,,,,p302,21,female,up_down_width,2025-12-13_10h00.27.162,exp1,2023.1.0,59.93511425012232,
,,,,,,,,,,,,,,,,4,8.95,9.65,10.35,11.05,0,0.7,0.1499999999999999,0.55,2.65,10,initial,36.05,323,348,373,398,0,9,9,9,9,0,,,,,,,1,0,1,0,0,38,38,23,,,,,,,,,,,,,,3,1.3681796000164468,3,0.45,0.55,19.82361,return,1.1841411999776028,,,,,,,,,,,,,,,,,p302,21,female,up_down_width,2025-12-13_10h00.27.162,exp1,2023.1.0,59.93511425012232,
,,,,,,,,,,,,,,,,4,8.9,9.633333333333333,10.366666666666667,11.1,0,0.7333333333333333,0.18333333333333326,0.55,2.75,10,match,36.05,321,347,374,400,0,9,9,9,9,0,,,,,,,1,0,1,0,0,39,39,1,,,,,,,,,,,,,,3,0.8617283999919891,3,0.45,0.55,19.82361,return,1.162560199998552,,,,,,,,,,,,,,,,,p302,21,female,up_down_width,2025-12-13_10h00.27.162,exp1,2023.1.0,59.93511425012232,
,,,,,,,,,,,,,,,,5,8.35,9.175,10,10.825,11.65,0.825,0.575,0.25,3.55,10,match,36.05,301,331,361,390,420,9,9,9,9,9,,,,,,,1,0,1,0,0,40,40,20,,,,,,,,,,,,,,4,1.2992269000096712,4,0.25,0.15000000000000002,5.40644,return,1.1657969999941997,,,,,,,,,,,,,,,,,p302,21,female,up_down_width,2025-12-13_10h00.27.162,exp1,2023.1.0,59.93511425012232,
,,,,,,,,,,,,,,,,5,8.6,9.3,10,10.7,11.4,0.7,0.1499999999999999,0.55,3.3499999999999996,10,initial,36.05,310,335,361,386,411,9,9,9,9,9,,,,,,,1,0,1,0,0,41,41,40,,,,,,,,,,,,,,5,1.9374610999948345,5,0.25,0.35,12.61502,return,1.9217695000115782,,,,,,,,,,,,,,,,,p302,21,female,up_down_width,2025-12-13_10h00.27.162,exp1,2023.1.0,59.93511425012232,
,,,,,,,,,,,,,,,,4,8.9,9.633333333333333,10.366666666666667,11.1,0,0.7333333333333334,0.4833333333333334,0.25,2.45,10,match,36.05,321,347,374,400,0,9,9,9,9,0,,,,,,,1,0,1,0,0,42,42,3,,,,,,,,,,,,,,5,1.5502957999997307,5,0.2,0.15000000000000002,5.40644,return,1.6161177000030875,,,,,,,,,,,,,,,,,p302,21,female,up_down_width,2025-12-13_10h00.27.162,exp1,2023.1.0,59.93511425012232,
,,,,,,,,,,,,,,,,3,9.1,10,10.9,0,0,0.9,0.35,0.55,2.35,10,initial,36.05,328,361,393,0,0,9,9,9,0,0,,,,,,,1,0,1,0,0,43,43,11,,,,,,,,,,,,,,2,0.9246655000024475,2,0.35,0.44999999999999996,16.21932,return,1.7828951999836136,,,,,,,,,,,,,,,,,p302,21,female,up_down_width,2025-12-13_10h00.27.162,exp1,2023.1.0,59.93511425012232,
,,,,,,,,,,,,,,,,5,8.65,9.325,10,10.675,11.35,0.675,0.275,0.4,3.1,10,match,36.05,312,336,361,385,409,9,9,9,9,9,,,,,,,1,0,1,0,0,44,44,33,,,,,,,,,,,,,,5,1.6891862000047695,5,0.45,0.5,18.02146,return,1.524074799992377,,,,,,,,,,,,,,,,,p302,21,female,up_down_width,2025-12-13_10h00.27.162,exp1,2023.1.0,59.93511425012232,
,,,,,,,,,,,,,,,,5,8.35,9.175,10,10.825,11.65,0.8250000000000001,0.275,0.55,3.85,10,match,36.05,301,331,361,390,420,9,9,9,9,9,,,,,,,1,0,1,0,0,45,45,18,,,,,,,,,,,,,,5,2.1744985000113957,5,0.2,0.44999999999999996,16.21932,return,1.8782142999989446,,,,,,,,,,,,,,,,,p302,21,female,up_down_width,2025-12-13_10h00.27.162,exp1,2023.1.0,59.93511425012232,
,,,,,,,,,,,,,,,,5,7.8,8.9,10,11.1,12.2,1.1,0.55,0.55,4.95,10,initial,36.05,281,321,361,400,440,9,9,9,9,9,,,,,,,1,0,1,0,0,46,46,34,,,,,,,,,,,,,,6,3.3902803999953903,6,0.2,0.49999999999999994,18.02146,return,3.1571161999891046,,,,,,,,,,,,,,,,,p302,21,female,up_down_width,2025-12-13_10h00.27.162,exp1,2023.1.0,59.93511425012232,
,,,,,,,,,,,,,,,,4,8.65,9.55,10.45,11.35,0,0.9,0.65,0.25,2.95,10,initial,36.05,312,344,377,409,0,9,9,9,9,0,,,,,,,1,0,1,0,0,47,47,30,,,,,,,,,,,,,,4,1.3903578000026755,4,0.4,0.10000000000000007,3.60429,return,3.9095725000079256,,,,,,,,,,,,,,,,,p302,21,female,up_down_width,2025-12-13_10h00.27.162,exp1,2023.1.0,59.93511425012232,
,,,,,,,,,,,,,,,,3,8.2,10,11.8,0,0,1.8,1.25,0.55,4.15,10,match,36.05,296,361,425,0,0,9,9,9,0,0,,,,,,,1,0,1,0,0,48,48,47,,,,,,,,,,,,,,2,0.7905836999998428,2,0.5,0.5,18.02146,return,1.1418042999866884,,,,,,,,,,,,,,,,,p302,21,female,up_down_width,2025-12-13_10h00.27.162,exp1,2023.1.0,59.93511425012232,
,,,,,,,,,,,,,,,,4,9.1,9.7,10.3,10.9,0,0.6,0.04999999999999997,0.55,2.35,10,match,36.05,328,350,371,393,0,9,9,9,9,0,,,,,,,1,0,1,0,0,49,49,12,,,,,,,,,,,,,,2,0.8491513000044506,2,0.45,0.6000000000000001,21.62576,return,1.9490240000013728,,,,,,,,,,,,,,,,,p302,21,female,up_down_width,2025-12-13_10h00.27.162,exp1,2023.1.0,59.93511425012232,
,,,,,,,,,,,,,,,,4,8.95,9.65,10.35,11.05,0,0.7,0.44999999999999996,0.25,2.3499999999999996,10,initial,36.05,323,348,373,398,0,9,9,9,9,0,,,,,,,1,0,1,0,0,50,50,24,,,,,,,,,,,,,,3,1.1596608000108972,3,0.35,0.15000000000000002,5.40644,return,2.007610599976033,,,,,,,,,,,,,,,,,p302,21,female,up_down_width,2025-12-13_10h00.27.162,exp1,2023.1.0,59.93511425012232,
,,,,,,,,,,,,,,,,3,8.2,10,11.8,0,0,1.8,1.55,0.25,3.85,10,match,36.05,296,361,425,0,0,9,9,9,0,0,,,,,,,1,0,1,0,0,51,51,49,,,,,,,,,,,,,,2,0.656283699994674,2,0.2,0.10000000000000002,3.60429,return,1.7170572000031825,,,,,,,,,,,,,,,,,p302,21,female,up_down_width,2025-12-13_10h00.27.162,exp1,2023.1.0,59.93511425012232,
,,,,,,,,,,,,,,,,,,,,,,,,,,,,,,,,,,,,,,,,,,,,,1,0,1,0,,,,,,,,,,,,,,,,,,,,,,,,,,,,1393.839288499992,1393.839288499992,1393.839288499992,,,,,,,,,,,,p302,21,female,up_down_width,2025-12-13_10h00.27.162,exp1,2023.1.0,59.93511425012232,
,,,,,,,,,,,,,,,,5,8.95,9.475,10,10.525,11.05,0.525,0.125,0.4,2.5,10,match,36.05,323,342,361,379,398,9,9,9,9,9,,,,,,,2,0,2,0,0,0,0,27,,,,,,,,,,,,,,5,1.758159599994542,5,0.25,0.35,12.61502,return,1.5907816000108141,,,,,,,,,,,,,,,,,p302,21,female,up_down_width,2025-12-13_10h00.27.162,exp1,2023.1.0,59.93511425012232,
,,,,,,,,,,,,,,,,3,7.8,10,12.2,0,0,2.2,1.65,0.55,4.95,10,match,36.05,281,361,440,0,0,9,9,9,0,0,,,,,,,2,0,2,0,0,1,1,35,,,,,,,,,,,,,,2,0.6983558000065386,2,0.4,0.55,19.82361,return,1.853020300011849,,,,,,,,,,,,,,,,,p302,21,female,up_down_width,2025-12-13_10h00.27.162,exp1,2023.1.0,59.93511425012232,
,,,,,,,,,,,,,,,,5,8.95,9.475,10,10.525,11.05,0.525,0.275,0.25,2.35,10,match,36.05,323,342,361,379,398,9,9,9,9,9,,,,,,,2,0,2,0,0,2,2,25,,,,,,,,,,,,,,5,1.0823304999794345,5,0.35,0.25,9.01073,return,1.9976857000146993,,,,,,,,,,,,,,,,,p302,21,female,up_down_width,2025-12-13_10h00.27.162,exp1,2023.1.0,59.93511425012232,
,,,,,,,,,,,,,,,,4,8.65,9.55,10.45,11.35,0,0.9,0.5,0.4,3.1,10,initial,36.05,312,344,377,409,0,9,9,9,9,0,,,,,,,2,0,2,0,0,3,3,32,,,,,,,,,,,,,,4,1.4402227000100538,4,0.5,0.30000000000000004,10.81288,return,2.0543222000123933,,,,,,,,,,,,,,,,,p302,21,female,up_down_width,2025-12-13_10h00.27.162,exp1,2023.1.0,59.93511425012232,
,,,,,,,,,,,,,,,,5,7.8,8.9,10,11.1,12.2,1.1,0.8500000000000001,0.25,4.65,10,initial,36.05,281,321,361,400,440,9,9,9,9,9,,,,,,,2,0,2,0,0,4,4,36,,,,,,,,,,,,,,5,1.3017196000146214,5,0.2,0.15000000000000002,5.40644,return,1.247821800003294,,,,,,,,,,,,,,,,,p302,21,female,up_down_width,2025-12-13_10h00.27.162,exp1,2023.1.0,59.93511425012232,
,,,,,,,,,,,,,,,,4,8.9,9.633333333333333,10.366666666666667,11.1,0,0.7333333333333334,0.4833333333333334,0.25,2.45,10,match,36.05,321,347,374,400,0,9,9,9,9,0,,,,,,,2,0,2,0,0,5,5,3,,,,,,,,,,,,,,4,1.2702874999959022,4,0.25,0.15000000000000002,5.40644,return,1.2185048999963328,,,,,,,,,,,,,,,,,p302,21,female,up_down_width,2025-12-13_10h00.27.162,exp1,2023.1.0,59.93511425012232,
,,,,,,,,,,,,,,,,4,8.95,9.65,10.35,11.05,0,0.7,0.29999999999999993,0.4,2.5,10,initial,36.05,323,348,373,398,0,9,9,9,9,0,,,,,,,2,0,2,0,0,6,6,26,,,,,,,,,,,,,,4,1.18977709999308,4,0.55,0.35000000000000003,12.61502,return,1.8291736999817658,,,,,,,,,,,,,,,,,p302,21,female,up_down_width,2025-12-13_10h00.27.162,exp1,2023.1.0,59.93511425012232,
,,,,,,,,,,,,,,,,3,7.800000000000001,10,12.2,0,0,2.1999999999999997,1.7999999999999998,0.4,4.8,10,match,36.05,281,361,440,0,0,9,9,9,0,0,,,,,,,2,0,2,0,0,7,7,39,,,,,,,,,,,,,,2,0.7325918000133242,2,0.2,0.39999999999999997,14.41717,return,2.254266599979019,,,,,,,,,,,,,,,,,p302,21,female,up_down_width,2025-12-13_10h00.27.162,exp1,2023.1.0,59.93511425012232,
,,,,,,,,,,,,,,,,5,8.275,9.1375,10,10.8625,11.725,0.8625,0.6125,0.25,3.7,10,match,36.05,298,329,361,392,423,9,9,9,9,9,,,,,,,2,0,2,0,0,8,8,22,,,,,,,,,,,,,,6,1.4093095999851357,6,0.5,0.25000000000000006,9.01073,return,2.0399569000001065,,,,,,,,,,,,,,,,,p302,21,female,up_down_width,2025-12-13_10h00.27.162,exp1,2023.1.0,59.93511425012232,
,,,,,,,,,,,,,,,,4,9.3,9.766666666666667,10.233333333333333,10.7,0,0.4666666666666667,0.06666666666666665,0.4,1.8,10,match,36.05,335,352,369,386,0,9,9,9,9,0,,,,,,,2,0,2,0,0,9,9,10,,,,,,,,,,,,,,3,1.576444200007245,3,0.45,0.35000000000000003,12.61502,return,1.8175222999998368,,,,,,,,,,,,,,,,,p302,21,female,up_down_width,2025-12-13_10h00.27.162,exp1,2023.1.0,59.93511425012232,
,,,,,,,,,,,,,,,,4,9.1,9.7,10.3,10.9,0,0.5999999999999999,0.3499999999999999,0.25,2.05,10,match,36.05,328,350,371,393,0,9,9,9,9,0,,,,,,,2,0,2,0,0,10,10,14,,,,,,,,,,,,,,4,1.3319845999940298,4,0.45,0.25000000000000006,9.01073,return,1.5013224000285845,,,,,,,,,,,,,,,,,p302,21,female,up_down_width,2025-12-13_10h00.27.162,exp1,2023.1.0,59.93511425012232,
,,,,,,,,,,,,,,,,5,8.6,9.3,10,10.7,11.4,0.7,0.44999999999999996,0.25,3.05,10,initial,36.05,310,335,361,386,411,9,9,9,9,9,,,,,,,2,0,2,0,0,11,11,42,,,,,,,,,,,,,,5,1.518551800021669,5,0.35,0.2,7.20859,return,1.32957129998249,,,,,,,,,,,,,,,,,p302,21,female,up_down_width,2025-12-13_10h00.27.162,exp1,2023.1.0,59.93511425012232,
,,,,,,,,,,,,,,,,5,8.65,9.325,10,10.675,11.35,0.675,0.42500000000000004,0.25,2.95,10,match,36.05,312,336,361,385,409,9,9,9,9,9,,,,,,,2,0,2,0,0,12,12,31,,,,,,,,,,,,,,6,1.1570897999918088,6,0.3,0.15000000000000002,5.40644,return,1.6862742000084836,,,,,,,,,,,,,,,,,p302,21,female,up_down_width,2025-12-13_10h00.27.162,exp1,2023.1.0,59.93511425012232,
,,,,,,,,,,,,,,,,5,7.8,8.9,10,11.1,12.2,1.1,0.55,0.55,4.95,10,initial,36.05,281,321,361,400,440,9,9,9,9,9,,,,,,,2,0,2,0,0,13,13,34,,,,,,,,,,,,,,6,1.1623931000067387,6,0.35,0.35,12.61502,return,1.8675800999917556,,,,,,,,,,,,,,,,,p302,21,female,up_down_width,2025-12-13_10h00.27.162,exp1,2023.1.0,59.93511425012232,
,,,,,,,,,,,,,,,,3,9.1,10,10.9,0,0,0.9,0.35,0.55,2.35,10,initial,36.05,328,361,393,0,0,9,9,9,0,0,,,,,,,2,0,2,0,0,14,14,11,,,,,,,,,,,,,,2,0.6267942000122275,2,0.3,0.44999999999999996,16.21932,return,1.8803136000060476,,,,,,,,,,,,,,,,,p302,21,female,up_down_width,2025-12-13_10h00.27.162,exp1,2023.1.0,59.93511425012232,
,,,,,,,,,,,,,,,,5,8.2,9.1,10,10.9,11.8,0.9,0.35,0.55,4.15,10,initial,36.05,296,328,361,393,425,9,9,9,9,9,,,,,,,2,0,2,0,0,15,15,46,,,,,,,,,,,,,,6,1.4056033000233583,6,0.5,0.45,16.21932,return,1.3010221000295132,,,,,,,,,,,,,,,,,p302,21,female,up_down_width,2025-12-13_10h00.27.162,exp1,2023.1.0,59.93511425012232,
,,,,,,,,,,,,,,,,3,9.3,10,10.7,0,0,0.7,0.29999999999999993,0.4,1.8,10,initial,36.05,335,361,386,0,0,9,9,9,0,0,,,,,,,2,0,2,0,0,16,16,9,,,,,,,,,,,,,,2,0.714657200005604,2,0.35,0.44999999999999996,16.21932,return,1.373232600017218,,,,,,,,,,,,,,,,,p302,21,female,up_down_width,2025-12-13_10h00.27.162,exp1,2023.1.0,59.93511425012232,
,,,,,,,,,,,,,,,,4,8.65,9.55,10.45,11.35,0,0.9,0.65,0.25,2.95,10,initial,36.05,312,344,377,409,0,9,9,9,9,0,,,,,,,2,0,2,0,0,17,17,30,,,,,,,,,,,,,,5,1.2190131999959704,5,0.45,0.25000000000000006,9.01073,return,2.0328220000083093,,,,,,,,,,,,,,,,,p302,21,female,up_down_width,2025-12-13_10h00.27.162,exp1,2023.1.0,59.93511425012232,
,,,,,,,,,,,,,,,,4,8.95,9.65,10.35,11.05,0,0.7,0.1499999999999999,0.55,2.65,10,initial,36.05,323,348,373,398,0,9,9,9,9,0,,,,,,,2,0,2,0,0,18,18,23,,,,,,,,,,,,,,3,1.0418661000148859,3,0.25,0.65,23.4279,return,2.5180161999887787,,,,,,,,,,,,,,,,,p302,21,female,up_down_width,2025-12-13_10h00.27.162,exp1,2023.1.0,59.93511425012232,
,,,,,,,,,,,,,,,,4,9.1,9.7,10.3,10.9,0,0.6,0.04999999999999997,0.55,2.35,10,match,36.05,328,350,371,393,0,9,9,9,9,0,,,,,,,2,0,2,0,0,19,19,12,,,,,,,,,,,,,,3,1.0676436999929138,3,0.55,0.6500000000000001,23.4279,return,1.2782663000107277,,,,,,,,,,,,,,,,,p302,21,female,up_down_width,2025-12-13_10h00.27.162,exp1,2023.1.0,59.93511425012232,
,,,,,,,,,,,,,,,,4,8.825,9.608333333333333,10.391666666666667,11.175,0,0.7833333333333333,0.5333333333333333,0.25,2.6,10,match,36.05,318,346,375,403,0,9,9,9,9,0,,,,,,,2,0,2,0,0,20,20,5,,,,,,,,,,,,,,4,1.6932570000062697,4,0.3,0.2,7.20859,return,2.4248372000001837,,,,,,,,,,,,,,,,,p302,21,female,up_down_width,2025-12-13_10h00.27.162,exp1,2023.1.0,59.93511425012232,
,,,,,,,,,,,,,,,,3,9.1,10,10.9,0,0,0.9,0.65,0.25,2.05,10,initial,36.05,328,361,393,0,0,9,9,9,0,0,,,,,,,2,0,2,0,0,21,21,13,,,,,,,,,,,,,,2,0.7197258000087459,2,0.35,0.2,7.20859,return,2.2584806000231765,,,,,,,,,,,,,,,,,p302,21,female,up_down_width,2025-12-13_10h00.27.162,exp1,2023.1.0,59.93511425012232,
,,,,,,,,,,,,,,,,3,9.3,10,10.7,0,0,0.7,0.1499999999999999,0.55,1.95,10,initial,36.05,335,361,386,0,0,9,9,9,0,0,,,,,,,2,0,2,0,0,22,22,6,,,,,,,,,,,,,,2,0.5557889000046998,2,0.2,0.44999999999999996,16.21932,return,2.2761144999822136,,,,,,,,,,,,,,,,,p302,21,female,up_down_width,2025-12-13_10h00.27.162,exp1,2023.1.0,59.93511425012232,
,,,,,,,,,,,,,,,,4,8.35,9.45,10.55,11.65,0,1.1,0.8500000000000001,0.25,3.5500000000000003,10,initial,36.05,301,341,380,420,0,9,9,9,9,0,,,,,,,2,0,2,0,0,23,23,19,,,,,,,,,,,,,,5,1.407450400001835,5,0.55,0.25000000000000006,9.01073,return,2.7269450000021607,,,,,,,,,,,,,,,,,p302,21,female,up_down_width,2025-12-13_10h00.27.162,exp1,2023.1.0,59.93511425012232,
,,,,,,,,,,,,,,,,3,8.6,10,11.4,0,0,1.4,0.85,0.55,3.35,10,match,36.05,310,361,411,0,0,9,9,9,0,0,,,,,,,2,0,2,0,0,24,24,41,,,,,,,,,,,,,,2,0.5696921000198927,2,0.4,0.5,18.02146,return,1.602709800004959,,,,,,,,,,,,,,,,,p302,21,female,up_down_width,2025-12-13_10h00.27.162,exp1,2023.1.0,59.93511425012232,
,,,,,,,,,,,,,,,,4,8.65,9.55,10.45,11.35,0,0.9,0.35,0.55,3.25,10,initial,36.05,312,344,377,409,0,9,9,9,9,0,,,,,,,2,0,2,0,0,25,25,28,,,,,,,,,,,,,,5,2.1389221999852452,5,0.35,0.49999999999999994,18.02146,return,1.9725146000273526,,,,,,,,,,,,,,,,,p302,21,female,up_down_width,2025-12-13_10h00.27.162,exp1,2023.1.0,59.93511425012232,
,,,,,,,,,,,,,,,,3,8.525,10,11.475,0,0,1.475,1.225,0.25,3.2,10,match,36.05,307,361,414,0,0,9,9,9,0,0,,,,,,,2,0,2,0,0,26,26,45,,,,,,,,,,,,,,2,0.5657931000168901,2,0.55,0.15000000000000008,5.40644,return,4.5277455000032205,,,,,,,,,,,,,,,,,p302,21,female,up_down_width,2025-12-13_10h00.27.162,exp1,2023.1.0,59.93511425012232,
,,,,,,,,,,,,,,,,4,8.35,9.45,10.55,11.65,0,1.1,0.7000000000000001,0.4,3.7,10,initial,36.05,301,341,380,420,0,9,9,9,9,0,,,,,,,2,0,2,0,0,27,27,21,,,,,,,,,,,,,,4,1.6804626999946777,4,0.2,0.35,12.61502,return,1.4365117000124883,,,,,,,,,,,,,,,,,p302,21,female,up_down_width,2025-12-13_10h00.27.162,exp1,2023.1.0,59.93511425012232,
,,,,,,,,,,,,,,,,3,8.9,10,11.1,0,0,1.1,0.7000000000000001,0.4,2.6000000000000005,10,initial,36.05,321,361,400,0,0,9,9,9,0,0,,,,,,,2,0,2,0,0,28,28,4,,,,,,,,,,,,,,2,0.6202717999985907,2,0.3,0.39999999999999997,14.41717,return,1.9697735000227112,,,,,,,,,,,,,,,,,p302,21,female,up_down_width,2025-12-13_10h00.27.162,exp1,2023.1.0,59.93511425012232,
,,,,,,,,,,,,,,,,3,9.3,10,10.7,0,0,0.7,0.44999999999999996,0.25,1.65,10,initial,36.05,335,361,386,0,0,9,9,9,0,0,,,,,,,2,0,2,0,0,29,29,7,,,,,,,,,,,,,,2,0.913043500011554,2,0.5,0.20000000000000007,7.20859,return,3.2103614000079688,,,,,,,,,,,,,,,,,p302,21,female,up_down_width,2025-12-13_10h00.27.162,exp1,2023.1.0,59.93511425012232,
,,,,,,,,,,,,,,,,3,8.2,10,11.8,0,0,1.7999999999999998,1.4,0.4,4,10,match,36.05,296,361,425,0,0,9,9,9,0,0,,,,,,,2,0,2,0,0,30,30,51,,,,,,,,,,,,,,2,0.5577599999960512,2,0.35,0.39999999999999997,14.41717,return,3.7187733000027947,,,,,,,,,,,,,,,,,p302,21,female,up_down_width,2025-12-13_10h00.27.162,exp1,2023.1.0,59.93511425012232,
,,,,,,,,,,,,,,,,3,8.9,10,11.1,0,0,1.1,0.55,0.55,2.75,10,initial,36.05,321,361,400,0,0,9,9,9,0,0,,,,,,,2,0,2,0,0,31,31,0,,,,,,,,,,,,,,2,0.6773573000100441,2,0.5,0.6000000000000001,21.62576,return,1.8329345000092871,,,,,,,,,,,,,,,,,p302,21,female,up_down_width,2025-12-13_10h00.27.162,exp1,2023.1.0,59.93511425012232,
,,,,,,,,,,,,,,,,3,8.6,10,11.4,0,0,1.4,1.15,0.25,3.05,10,match,36.05,310,361,411,0,0,9,9,9,0,0,,,,,,,2,0,2,0,0,32,32,43,,,,,,,,,,,,,,2,0.8726198000076693,2,0.2,0.15000000000000002,5.40644,return,1.4450158000108786,,,,,,,,,,,,,,,,,p302,21,female,up_down_width,2025-12-13_10h00.27.162,exp1,2023.1.0,59.93511425012232,
,,,,,,,,,,,,,,,,5,8.65,9.325,10,10.675,11.35,0.675,0.275,0.4,3.1,10,match,36.05,312,336,361,385,409,9,9,9,9,9,,,,,,,2,0,2,0,0,33,33,33,,,,,,,,,,,,,,6,1.703030000004219,6,0.3,0.25,9.01073,return,1.682146000006469,,,,,,,,,,,,,,,,,p302,21,female,up_down_width,2025-12-13_10h00.27.162,exp1,2023.1.0,59.93511425012232,
,,,,,,,,,,,,,,,,5,8.35,9.175,10,10.825,11.65,0.8250000000000001,0.275,0.55,3.85,10,match,36.05,301,331,361,390,420,9,9,9,9,9,,,,,,,2,0,2,0,0,34,34,18,,,,,,,,,,,,,,5,1.3288759000133723,5,0.2,0.39999999999999997,14.41717,return,1.7861415999941528,,,,,,,,,,,,,,,,,p302,21,female,up_down_width,2025-12-13_10h00.27.162,exp1,2023.1.0,59.93511425012232,
,,,,,,,,,,,,,,,,3,8.9,10,11.1,0,0,1.1,0.8500000000000001,0.25,2.45,10,initial,36.05,321,361,400,0,0,9,9,9,0,0,,,,,,,2,0,2,0,0,35,35,2,,,,,,,,,,,,,,2,0.860268399992492,2,0.3,0.2,7.20859,return,1.8163767000078224,,,,,,,,,,,,,,,,,p302,21,female,up_down_width,2025-12-13_10h00.27.162,exp1,2023.1.0,59.93511425012232,
,,,,,,,,,,,,,,,,3,7.8,10,12.2,0,0,2.2,1.9500000000000002,0.25,4.65,10,match,36.05,281,361,440,0,0,9,9,9,0,0,,,,,,,2,0,2,0,0,36,36,37,,,,,,,,,,,,,,2,0.5771604999899864,2,0.45,0.20000000000000007,7.20859,return,2.217257900018012,,,,,,,,,,,,,,,,,p302,21,female,up_down_width,2025-12-13_10h00.27.162,exp1,2023.1.0,59.93511425012232,
,,,,,,,,,,,,,,,,5,7.8,8.9,10,11.1,12.2,1.1,0.7000000000000001,0.4,4.800000000000001,10,initial,36.05,281,321,361,400,440,9,9,9,9,9,,,,,,,2,0,2,0,0,37,37,38,,,,,,,,,,,,,,7,1.954454499995336,7,0.4,0.20000000000000007,7.20859,return,2.4496325999789406,,,,,,,,,,,,,,,,,p302,21,female,up_down_width,2025-12-13_10h00.27.162,exp1,2023.1.0,59.93511425012232,
,,,,,,,,,,,,,,,,4,9.3,9.766666666666667,10.233333333333333,10.7,0,0.4666666666666667,0.21666666666666665,0.25,1.65,10,match,36.05,335,352,369,386,0,9,9,9,9,0,,,,,,,2,0,2,0,0,38,38,8,,,,,,,,,,,,,,4,3.325002500001574,4,0.55,0.15000000000000008,5.40644,return,3.76766189999762,,,,,,,,,,,,,,,,,p302,21,female,up_down_width,2025-12-13_10h00.27.162,exp1,2023.1.0,59.93511425012232,
,,,,,,,,,,,,,,,,5,8.6,9.3,10,10.7,11.4,0.7,0.29999999999999993,0.4,3.1999999999999997,10,initial,36.05,310,335,361,386,411,9,9,9,9,9,,,,,,,2,0,2,0,0,39,39,44,,,,,,,,,,,,,,5,1.667760799988173,5,0.2,0.3,10.81288,return,2.080268099991372,,,,,,,,,,,,,,,,,p302,21,female,up_down_width,2025-12-13_10h00.27.162,exp1,2023.1.0,59.93511425012232,
,,,,,,,,,,,,,,,,5,8.6,9.3,10,10.7,11.4,0.7,0.1499999999999999,0.55,3.3499999999999996,10,initial,36.05,310,335,361,386,411,9,9,9,9,9,,,,,,,2,0,2,0,0,40,40,40,,,,,,,,,,,,,,6,1.524648700025864,6,0.4,0.45,16.21932,return,1.1584168999979738,,,,,,,,,,,,,,,,,p302,21,female,up_down_width,2025-12-13_10h00.27.162,exp1,2023.1.0,59.93511425012232,
,,,,,,,,,,,,,,,,4,8.95,9.65,10.35,11.05,0,0.7,0.44999999999999996,0.25,2.3499999999999996,10,initial,36.05,323,348,373,398,0,9,9,9,9,0,,,,,,,2,0,2,0,0,41,41,24,,,,,,,,,,,,,,4,1.941176299995277,4,0.55,0.25000000000000006,9.01073,return,2.3268880999821704,,,,,,,,,,,,,,,,,p302,21,female,up_down_width,2025-12-13_10h00.27.162,exp1,2023.1.0,59.93511425012232,
,,,,,,,,,,,,,,,,4,8.35,9.45,10.55,11.65,0,1.1,0.55,0.55,3.8500000000000005,10,initial,36.05,301,341,380,420,0,9,9,9,9,0,,,,,,,2,0,2,0,0,42,42,17,,,,,,,,,,,,,,6,2.1631655000091996,6,0.2,0.35,12.61502,return,2.154484600003343,,,,,,,,,,,,,,,,,p302,21,female,up_down_width,2025-12-13_10h00.27.162,exp1,2023.1.0,59.93511425012232,
,,,,,,,,,,,,,,,,4,8.9,9.633333333333333,10.366666666666667,11.1,0,0.7333333333333333,0.18333333333333326,0.55,2.75,10,match,36.05,321,347,374,400,0,9,9,9,9,0,,,,,,,2,0,2,0,0,43,43,1,,,,,,,,,,,,,,2,1.9493843000091147,2,0.25,0.3,10.81288,return,1.5662822000158485,,,,,,,,,,,,,,,,,p302,21,female,up_down_width,2025-12-13_10h00.27.162,exp1,2023.1.0,59.93511425012232,
,,,,,,,,,,,,,,,,3,9.1,10,10.9,0,0,0.9,0.5,0.4,2.2,10,initial,36.05,328,361,393,0,0,9,9,9,0,0,,,,,,,2,0,2,0,0,44,44,15,,,,,,,,,,,,,,2,0.6478213999944273,2,0.2,0.35,12.61502,return,1.8045049000065774,,,,,,,,,,,,,,,,,p302,21,female,up_down_width,2025-12-13_10h00.27.162,exp1,2023.1.0,59.93511425012232,
,,,,,,,,,,,,,,,,4,9.1,9.7,10.3,10.9,0,0.6000000000000001,0.20000000000000004,0.4,2.2,10,match,36.05,328,350,371,393,0,9,9,9,9,0,,,,,,,2,0,2,0,0,45,45,16,,,,,,,,,,,,,,4,1.3775526999961585,4,0.25,0.44999999999999996,16.21932,return,1.7692421000101604,,,,,,,,,,,,,,,,,p302,21,female,up_down_width,2025-12-13_10h00.27.162,exp1,2023.1.0,59.93511425012232,
,,,,,,,,,,,,,,,,5,8.2,9.1,10,10.9,11.8,0.9,0.5,0.4,4,10,initial,36.05,296,328,361,393,425,9,9,9,9,9,,,,,,,2,0,2,0,0,46,46,50,,,,,,,,,,,,,,6,1.2091154000081588,6,0.5,0.35000000000000003,12.61502,return,2.2163637000194285,,,,,,,,,,,,,,,,,p302,21,female,up_down_width,2025-12-13_10h00.27.162,exp1,2023.1.0,59.93511425012232,
,,,,,,,,,,,,,,,,5,8.2,9.1,10,10.9,11.8,0.9,0.65,0.25,3.85,10,initial,36.05,296,328,361,393,425,9,9,9,9,9,,,,,,,2,0,2,0,0,47,47,48,,,,,,,,,,,,,,6,1.7851717000012286,6,0.45,0.35000000000000003,12.61502,return,1.7768075999920256,,,,,,,,,,,,,,,,,p302,21,female,up_down_width,2025-12-13_10h00.27.162,exp1,2023.1.0,59.93511425012232,
,,,,,,,,,,,,,,,,3,8.2,10,11.8,0,0,1.8,1.25,0.55,4.15,10,match,36.05,296,361,425,0,0,9,9,9,0,0,,,,,,,2,0,2,0,0,48,48,47,,,,,,,,,,,,,,2,0.5787874999805354,2,0.25,0.39999999999999997,14.41717,return,2.1544914999976754,,,,,,,,,,,,,,,,,p302,21,female,up_down_width,2025-12-13_10h00.27.162,exp1,2023.1.0,59.93511425012232,
,,,,,,,,,,,,,,,,5,8.35,9.175,10,10.825,11.65,0.825,0.575,0.25,3.55,10,match,36.05,301,331,361,390,420,9,9,9,9,9,,,,,,,2,0,2,0,0,49,49,20,,,,,,,,,,,,,,6,2.0115416000189725,6,0.25,0.35,12.61502,return,1.5144467999925837,,,,,,,,,,,,,,,,,p302,21,female,up_down_width,2025-12-13_10h00.27.162,exp1,2023.1.0,59.93511425012232,
,,,,,,,,,,,,,,,,5,8.65,9.325,10,10.675,11.35,0.675,0.125,0.55,3.25,10,match,36.05,312,336,361,385,409,9,9,9,9,9,,,,,,,2,0,2,0,0,50,50,29,,,,,,,,,,,,,,7,2.5964316000172403,7,0.4,0.4,14.41717,return,1.9477026999811642,,,,,,,,,,,,,,,,,p302,21,female,up_down_width,2025-12-13_10h00.27.162,exp1,2023.1.0,59.93511425012232,
,,,,,,,,,,,,,,,,3,8.2,10,11.8,0,0,1.8,1.55,0.25,3.85,10,match,36.05,296,361,425,0,0,9,9,9,0,0,,,,,,,2,0,2,0,0,51,51,49,,,,,,,,,,,,,,3,1.227239899977576,3,0.25,0.35,12.61502,return,1.305060400016373,,,,,,,,,,,,,,,,,p302,21,female,up_down_width,2025-12-13_10h00.27.162,exp1,2023.1.0,59.93511425012232,
,,,,,,,,,,,,,,,,,,,,,,,,,,,,,,,,,,,,,,,,,,,,,2,0,2,0,,,,,,,,,,,,,,,,,,,,,,,,,,,,1708.5390707000042,1708.5390707000042,1708.5390707000042,,,,,,,,,,,,p302,21,female,up_down_width,2025-12-13_10h00.27.162,exp1,2023.1.0,59.93511425012232,
,,,,,,,,,,,,,,,,3,9.3,10,10.7,0,0,0.7,0.29999999999999993,0.4,1.8,10,initial,36.05,335,361,386,0,0,9,9,9,0,0,,,,,,,3,0,3,0,0,0,0,9,,,,,,,,,,,,,,2,0.6431162999942899,2,0.35,0.44999999999999996,16.21932,return,1.4959000000089873,,,,,,,,,,,,,,,,,p302,21,female,up_down_width,2025-12-13_10h00.27.162,exp1,2023.1.0,59.93511425012232,
,,,,,,,,,,,,,,,,5,8.65,9.325,10,10.675,11.35,0.675,0.125,0.55,3.25,10,match,36.05,312,336,361,385,409,9,9,9,9,9,,,,,,,3,0,3,0,0,1,1,29,,,,,,,,,,,,,,4,1.4377840999804903,4,0.45,0.5,18.02146,return,1.2510580999951344,,,,,,,,,,,,,,,,,p302,21,female,up_down_width,2025-12-13_10h00.27.162,exp1,2023.1.0,59.93511425012232,
,,,,,,,,,,,,,,,,3,9.1,10,10.9,0,0,0.9,0.35,0.55,2.35,10,initial,36.05,328,361,393,0,0,9,9,9,0,0,,,,,,,3,0,3,0,0,2,2,11,,,,,,,,,,,,,,2,0.6341530000208877,2,0.2,0.44999999999999996,16.21932,return,4.656477000011364,,,,,,,,,,,,,,,,,p302,21,female,up_down_width,2025-12-13_10h00.27.162,exp1,2023.1.0,59.93511425012232,
,,,,,,,,,,,,,,,,5,8.275,9.1375,10,10.8625,11.725,0.8625,0.6125,0.25,3.7,10,match,36.05,298,329,361,392,423,9,9,9,9,9,,,,,,,3,0,3,0,0,3,3,22,,,,,,,,,,,,,,6,1.7724547999969218,6,0.2,0.2,7.20859,return,1.251724200003082,,,,,,,,,,,,,,,,,p302,21,female,up_down_width,2025-12-13_10h00.27.162,exp1,2023.1.0,59.93511425012232,
,,,,,,,,,,,,,,,,3,8.9,10,11.1,0,0,1.1,0.8500000000000001,0.25,2.45,10,initial,36.05,321,361,400,0,0,9,9,9,0,0,,,,,,,3,0,3,0,0,4,4,2,,,,,,,,,,,,,,2,0.76730450001196,2,0.25,0.15000000000000002,5.40644,return,2.3347902999958023,,,,,,,,,,,,,,,,,p302,21,female,up_down_width,2025-12-13_10h00.27.162,exp1,2023.1.0,59.93511425012232,
,,,,,,,,,,,,,,,,5,8.95,9.475,10,10.525,11.05,0.525,0.125,0.4,2.5,10,match,36.05,323,342,361,379,398,9,9,9,9,9,,,,,,,3,0,3,0,0,5,5,27,,,,,,,,,,,,,,4,1.8352722999989055,4,0.45,0.25000000000000006,9.01073,return,3.6010904999857303,,,,,,,,,,,,,,,,,p302,21,female,up_down_width,2025-12-13_10h00.27.162,exp1,2023.1.0,59.93511425012232,
,,,,,,,,,,,,,,,,5,8.2,9.1,10,10.9,11.8,0.9,0.65,0.25,3.85,10,initial,36.05,296,328,361,393,425,9,9,9,9,9,,,,,,,3,0,3,0,0,6,6,48,,,,,,,,,,,,,,7,1.6032069999782834,7,0.4,0.15000000000000008,5.40644,return,2.274201799998991,,,,,,,,,,,,,,,,,p302,21,female,up_down_width,2025-12-13_10h00.27.162,exp1,2023.1.0,59.93511425012232,
,,,,,,,,,,,,,,,,4,8.9,9.633333333333333,10.366666666666667,11.1,0,0.7333333333333333,0.18333333333333326,0.55,2.75,10,match,36.05,321,347,374,400,0,9,9,9,9,0,,,,,,,3,0,3,0,0,7,7,1,,,,,,,,,,,,,,3,1.2298111999989487,3,0.45,0.6000000000000001,21.62576,return,1.5967821000085678,,,,,,,,,,,,,,,,,p302,21,female,up_down_width,2025-12-13_10h00.27.162,exp1,2023.1.0,59.93511425012232,
,,,,,,,,,,,,,,,,4,9.3,9.766666666666667,10.233333333333333,10.7,0,0.4666666666666667,0.21666666666666665,0.25,1.65,10,match,36.05,335,352,369,386,0,9,9,9,9,0,,,,,,,3,0,3,0,0,8,8,8,,,,,,,,,,,,,,4,1.5999199000070803,4,0.2,0.10000000000000002,3.60429,return,1.5510269000078551,,,,,,,,,,,,,,,,,p302,21,female,up_down_width,2025-12-13_10h00.27.162,exp1,2023.1.0,59.93511425012232,
,,,,,,,,,,,,,,,,3,8.2,10,11.8,0,0,1.8,1.55,0.25,3.85,10,match,36.05,296,361,425,0,0,9,9,9,0,0,,,,,,,3,0,3,0,0,9,9,49,,,,,,,,,,,,,,3,2.5710448999889195,3,0.55,0.15000000000000008,5.40644,return,6.274642300006235,,,,,,,,,,,,,,,,,p302,21,female,up_down_width,2025-12-13_10h00.27.162,exp1,2023.1.0,59.93511425012232,
,,,,,,,,,,,,,,,,4,8.95,9.65,10.35,11.05,0,0.7,0.44999999999999996,0.25,2.3499999999999996,10,initial,36.05,323,348,373,398,0,9,9,9,9,0,,,,,,,3,0,3,0,0,10,10,24,,,,,,,,,,,,,,4,1.4249011999927461,4,0.2,0.2,7.20859,return,1.814919700002065,,,,,,,,,,,,,,,,,p302,21,female,up_down_width,2025-12-13_10h00.27.162,exp1,2023.1.0,59.93511425012232,
,,,,,,,,,,,,,,,,3,8.9,10,11.1,0,0,1.1,0.7000000000000001,0.4,2.6000000000000005,10,initial,36.05,321,361,400,0,0,9,9,9,0,0,,,,,,,3,0,3,0,0,11,11,4,,,,,,,,,,,,,,2,0.8049831000098493,2,0.35,0.35,12.61502,return,1.1718345999834128,,,,,,,,,,,,,,,,,p302,21,female,up_down_width,2025-12-13_10h00.27.162,exp1,2023.1.0,59.93511425012232,
,,,,,,,,,,,,,,,,3,7.8,10,12.2,0,0,2.2,1.9500000000000002,0.25,4.65,10,match,36.05,281,361,440,0,0,9,9,9,0,0,,,,,,,3,0,3,0,0,12,12,37,,,,,,,,,,,,,,2,0.8179220000165515,2,0.4,0.25000000000000006,9.01073,return,1.776037500007078,,,,,,,,,,,,,,,,,p302,21,female,up_down_width,2025-12-13_10h00.27.162,exp1,2023.1.0,59.93511425012232,
,,,,,,,,,,,,,,,,5,8.65,9.325,10,10.675,11.35,0.675,0.42500000000000004,0.25,2.95,10,match,36.05,312,336,361,385,409,9,9,9,9,9,,,,,,,3,0,3,0,0,13,13,31,,,,,,,,,,,,,,6,1.6259868000051938,6,0.55,0.20000000000000007,7.20859,return,2.61615200000233,,,,,,,,,,,,,,,,,p302,21,female,up_down_width,2025-12-13_10h00.27.162,exp1,2023.1.0,59.93511425012232,
,,,,,,,,,,,,,,,,3,8.2,10,11.8,0,0,1.7999999999999998,1.4,0.4,4,10,match,36.05,296,361,425,0,0,9,9,9,0,0,,,,,,,3,0,3,0,0,14,14,51,,,,,,,,,,,,,,2,0.7846314999915194,2,0.5,0.20000000000000007,7.20859,return,3.1677171000046656,,,,,,,,,,,,,,,,,p302,21,female,up_down_width,2025-12-13_10h00.27.162,exp1,2023.1.0,59.93511425012232,
,,,,,,,,,,,,,,,,4,8.65,9.55,10.45,11.35,0,0.9,0.35,0.55,3.25,10,initial,36.05,312,344,377,409,0,9,9,9,9,0,,,,,,,3,0,3,0,0,15,15,28,,,,,,,,,,,,,,6,1.8488662999880034,6,0.5,0.4,14.41717,return,1.5829948000027798,,,,,,,,,,,,,,,,,p302,21,female,up_down_width,2025-12-13_10h00.27.162,exp1,2023.1.0,59.93511425012232,
,,,,,,,,,,,,,,,,4,9.1,9.7,10.3,10.9,0,0.6,0.04999999999999997,0.55,2.35,10,match,36.05,328,350,371,393,0,9,9,9,9,0,,,,,,,3,0,3,0,0,16,16,12,,,,,,,,,,,,,,3,1.1802584000106435,3,0.35,0.6,21.62576,return,2.1238377999980003,,,,,,,,,,,,,,,,,p302,21,female,up_down_width,2025-12-13_10h00.27.162,exp1,2023.1.0,59.93511425012232,
,,,,,,,,,,,,,,,,4,8.35,9.45,10.55,11.65,0,1.1,0.8500000000000001,0.25,3.5500000000000003,10,initial,36.05,301,341,380,420,0,9,9,9,9,0,,,,,,,3,0,3,0,0,17,17,19,,,,,,,,,,,,,,4,1.2801008000096772,4,0.2,0.2,7.20859,return,1.3710334999777842,,,,,,,,,,,,,,,,,p302,21,female,up_down_width,2025-12-13_10h00.27.162,exp1,2023.1.0,59.93511425012232,
,,,,,,,,,,,,,,,,4,8.35,9.45,10.55,11.65,0,1.1,0.55,0.55,3.8500000000000005,10,initial,36.05,301,341,380,420,0,9,9,9,9,0,,,,,,,3,0,3,0,0,18,18,17,,,,,,,,,,,,,,5,1.3679942000017036,5,0.2,0.35,12.61502,return,1.695616200013319,,,,,,,,,,,,,,,,,p302,21,female,up_down_width,2025-12-13_10h00.27.162,exp1,2023.1.0,59.93511425012232,
,,,,,,,,,,,,,,,,5,8.35,9.175,10,10.825,11.65,0.8250000000000001,0.275,0.55,3.85,10,match,36.05,301,331,361,390,420,9,9,9,9,9,,,,,,,3,0,3,0,0,19,19,18,,,,,,,,,,,,,,6,2.6871529999771155,6,0.5,0.4,14.41717,return,2.4020782000152394,,,,,,,,,,,,,,,,,p302,21,female,up_down_width,2025-12-13_10h00.27.162,exp1,2023.1.0,59.93511425012232,
,,,,,,,,,,,,,,,,5,8.6,9.3,10,10.7,11.4,0.7,0.44999999999999996,0.25,3.05,10,initial,36.05,310,335,361,386,411,9,9,9,9,9,,,,,,,3,0,3,0,0,20,20,42,,,,,,,,,,,,,,7,1.9229957000061404,7,0.2,0.2,7.20859,return,1.3975879000208806,,,,,,,,,,,,,,,,,p302,21,female,up_down_width,2025-12-13_10h00.27.162,exp1,2023.1.0,59.93511425012232,
,,,,,,,,,,,,,,,,3,8.6,10,11.4,0,0,1.4,0.85,0.55,3.35,10,match,36.05,310,361,411,0,0,9,9,9,0,0,,,,,,,3,0,3,0,0,21,21,41,,,,,,,,,,,,,,2,0.9857350000238512,2,0.35,0.65,23.4279,return,2.4656960000284016,,,,,,,,,,,,,,,,,p302,21,female,up_down_width,2025-12-13_10h00.27.162,exp1,2023.1.0,59.93511425012232,
,,,,,,,,,,,,,,,,4,8.825,9.608333333333333,10.391666666666667,11.175,0,0.7833333333333333,0.5333333333333333,0.25,2.6,10,match,36.05,318,346,375,403,0,9,9,9,9,0,,,,,,,3,0,3,0,0,22,22,5,,,,,,,,,,,,,,4,1.2217972000071313,4,0.5,0.35000000000000003,12.61502,return,5.1718683000071906,,,,,,,,,,,,,,,,,p302,21,female,up_down_width,2025-12-13_10h00.27.162,exp1,2023.1.0,59.93511425012232,
,,,,,,,,,,,,,,,,4,8.65,9.55,10.45,11.35,0,0.9,0.65,0.25,2.95,10,initial,36.05,312,344,377,409,0,9,9,9,9,0,,,,,,,3,0,3,0,0,23,23,30,,,,,,,,,,,,,,4,1.590320499992231,4,0.3,0.25,9.01073,return,2.5014273000124376,,,,,,,,,,,,,,,,,p302,21,female,up_down_width,2025-12-13_10h00.27.162,exp1,2023.1.0,59.93511425012232,
,,,,,,,,,,,,,,,,3,9.3,10,10.7,0,0,0.7,0.44999999999999996,0.25,1.65,10,initial,36.05,335,361,386,0,0,9,9,9,0,0,,,,,,,3,0,3,0,0,24,24,7,,,,,,,,,,,,,,3,1.3473319000040647,3,0.2,0.3,10.81288,return,2.108489300007932,,,,,,,,,,,,,,,,,p302,21,female,up_down_width,2025-12-13_10h00.27.162,exp1,2023.1.0,59.93511425012232,
,,,,,,,,,,,,,,,,3,9.1,10,10.9,0,0,0.9,0.65,0.25,2.05,10,initial,36.05,328,361,393,0,0,9,9,9,0,0,,,,,,,3,0,3,0,0,25,25,13,,,,,,,,,,,,,,2,0.7087444000062533,2,0.45,0.15000000000000008,5.40644,return,4.9994179000204895,,,,,,,,,,,,,,,,,p302,21,female,up_down_width,2025-12-13_10h00.27.162,exp1,2023.1.0,59.93511425012232,
,,,,,,,,,,,,,,,,4,8.9,9.633333333333333,10.366666666666667,11.1,0,0.7333333333333334,0.4833333333333334,0.25,2.45,10,match,36.05,321,347,374,400,0,9,9,9,9,0,,,,,,,3,0,3,0,0,26,26,3,,,,,,,,,,,,,,4,1.335856399993645,4,0.4,0.20000000000000007,7.20859,return,2.1301104000012856,,,,,,,,,,,,,,,,,p302,21,female,up_down_width,2025-12-13_10h00.27.162,exp1,2023.1.0,59.93511425012232,
,,,,,,,,,,,,,,,,5,8.6,9.3,10,10.7,11.4,0.7,0.29999999999999993,0.4,3.1999999999999997,10,initial,36.05,310,335,361,386,411,9,9,9,9,9,,,,,,,3,0,3,0,0,27,27,44,,,,,,,,,,,,,,7,1.5991967000300065,7,0.25,0.2,7.20859,return,1.9344464000023436,,,,,,,,,,,,,,,,,p302,21,female,up_down_width,2025-12-13_10h00.27.162,exp1,2023.1.0,59.93511425012232,
,,,,,,,,,,,,,,,,5,8.95,9.475,10,10.525,11.05,0.525,0.275,0.25,2.35,10,match,36.05,323,342,361,379,398,9,9,9,9,9,,,,,,,3,0,3,0,0,28,28,25,,,,,,,,,,,,,,6,2.0511317999917082,6,0.45,0.20000000000000007,7.20859,return,2.1762132000003476,,,,,,,,,,,,,,,,,p302,21,female,up_down_width,2025-12-13_10h00.27.162,exp1,2023.1.0,59.93511425012232,
,,,,,,,,,,,,,,,,3,9.1,10,10.9,0,0,0.9,0.5,0.4,2.2,10,initial,36.05,328,361,393,0,0,9,9,9,0,0,,,,,,,3,0,3,0,0,29,29,15,,,,,,,,,,,,,,2,0.5342399000073783,2,0.3,0.39999999999999997,14.41717,return,1.5184333000215702,,,,,,,,,,,,,,,,,p302,21,female,up_down_width,2025-12-13_10h00.27.162,exp1,2023.1.0,59.93511425012232,
,,,,,,,,,,,,,,,,3,9.3,10,10.7,0,0,0.7,0.1499999999999999,0.55,1.95,10,initial,36.05,335,361,386,0,0,9,9,9,0,0,,,,,,,3,0,3,0,0,30,30,6,,,,,,,,,,,,,,2,0.6398246000171639,2,0.55,0.8000000000000003,28.83434,return,3.1730117999832146,,,,,,,,,,,,,,,,,p302,21,female,up_down_width,2025-12-13_10h00.27.162,exp1,2023.1.0,59.93511425012232,
,,,,,,,,,,,,,,,,5,8.35,9.175,10,10.825,11.65,0.825,0.575,0.25,3.55,10,match,36.05,301,331,361,390,420,9,9,9,9,9,,,,,,,3,0,3,0,0,31,31,20,,,,,,,,,,,,,,6,1.6608639999758452,6,0.25,0.10000000000000002,3.60429,return,1.8496410000079777,,,,,,,,,,,,,,,,,p302,21,female,up_down_width,2025-12-13_10h00.27.162,exp1,2023.1.0,59.93511425012232,
,,,,,,,,,,,,,,,,4,8.35,9.45,10.55,11.65,0,1.1,0.7000000000000001,0.4,3.7,10,initial,36.05,301,341,380,420,0,9,9,9,9,0,,,,,,,3,0,3,0,0,32,32,21,,,,,,,,,,,,,,3,1.5107582000200637,3,0.5,0.45,16.21932,return,1.8010247999918647,,,,,,,,,,,,,,,,,p302,21,female,up_down_width,2025-12-13_10h00.27.162,exp1,2023.1.0,59.93511425012232,
,,,,,,,,,,,,,,,,4,8.65,9.55,10.45,11.35,0,0.9,0.5,0.4,3.1,10,initial,36.05,312,344,377,409,0,9,9,9,9,0,,,,,,,3,0,3,0,0,33,33,32,,,,,,,,,,,,,,6,2.7472146000072826,6,0.2,0.35,12.61502,return,2.012336400017375,,,,,,,,,,,,,,,,,p302,21,female,up_down_width,2025-12-13_10h00.27.162,exp1,2023.1.0,59.93511425012232,
,,,,,,,,,,,,,,,,3,8.6,10,11.4,0,0,1.4,1.15,0.25,3.05,10,match,36.05,310,361,411,0,0,9,9,9,0,0,,,,,,,3,0,3,0,0,34,34,43,,,,,,,,,,,,,,2,0.6577986999764107,2,0.5,0.20000000000000007,7.20859,return,3.8158467000175733,,,,,,,,,,,,,,,,,p302,21,female,up_down_width,2025-12-13_10h00.27.162,exp1,2023.1.0,59.93511425012232,
,,,,,,,,,,,,,,,,3,7.800000000000001,10,12.2,0,0,2.1999999999999997,1.7999999999999998,0.4,4.8,10,match,36.05,281,361,440,0,0,9,9,9,0,0,,,,,,,3,0,3,0,0,35,35,39,,,,,,,,,,,,,,3,1.232291799999075,3,0.45,0.35000000000000003,12.61502,return,7.485899200022686,,,,,,,,,,,,,,,,,p302,21,female,up_down_width,2025-12-13_10h00.27.162,exp1,2023.1.0,59.93511425012232,
,,,,,,,,,,,,,,,,5,8.2,9.1,10,10.9,11.8,0.9,0.5,0.4,4,10,initial,36.05,296,328,361,393,425,9,9,9,9,9,,,,,,,3,0,3,0,0,36,36,50,,,,,,,,,,,,,,5,1.279329700017115,5,0.3,0.3,10.81288,return,2.459514299989678,,,,,,,,,,,,,,,,,p302,21,female,up_down_width,2025-12-13_10h00.27.162,exp1,2023.1.0,59.93511425012232,
,,,,,,,,,,,,,,,,3,8.525,10,11.475,0,0,1.475,1.225,0.25,3.2,10,match,36.05,307,361,414,0,0,9,9,9,0,0,,,,,,,3,0,3,0,0,37,37,45,,,,,,,,,,,,,,3,0.8825514999916777,3,0.5,0.20000000000000007,7.20859,return,3.949517900007777,,,,,,,,,,,,,,,,,p302,21,female,up_down_width,2025-12-13_10h00.27.162,exp1,2023.1.0,59.93511425012232,
,,,,,,,,,,,,,,,,5,7.8,8.9,10,11.1,12.2,1.1,0.8500000000000001,0.25,4.65,10,initial,36.05,281,321,361,400,440,9,9,9,9,9,,,,,,,3,0,3,0,0,38,38,36,,,,,,,,,,,,,,7,1.2870705999957863,7,0.55,0.20000000000000007,7.20859,return,2.8508619999920484,,,,,,,,,,,,,,,,,p302,21,female,up_down_width,2025-12-13_10h00.27.162,exp1,2023.1.0,59.93511425012232,
,,,,,,,,,,,,,,,,5,7.8,8.9,10,11.1,12.2,1.1,0.7000000000000001,0.4,4.800000000000001,10,initial,36.05,281,321,361,400,440,9,9,9,9,9,,,,,,,3,0,3,0,0,39,39,38,,,,,,,,,,,,,,6,1.864072299998952,6,0.45,0.30000000000000004,10.81288,return,2.701443500001915,,,,,,,,,,,,,,,,,p302,21,female,up_down_width,2025-12-13_10h00.27.162,exp1,2023.1.0,59.93511425012232,
,,,,,,,,,,,,,,,,4,8.95,9.65,10.35,11.05,0,0.7,0.1499999999999999,0.55,2.65,10,initial,36.05,323,348,373,398,0,9,9,9,9,0,,,,,,,3,0,3,0,0,40,40,23,,,,,,,,,,,,,,3,1.5604727000172716,3,0.45,0.6000000000000001,21.62576,return,1.4980987000162713,,,,,,,,,,,,,,,,,p302,21,female,up_down_width,2025-12-13_10h00.27.162,exp1,2023.1.0,59.93511425012232,
,,,,,,,,,,,,,,,,4,9.1,9.7,10.3,10.9,0,0.6000000000000001,0.20000000000000004,0.4,2.2,10,match,36.05,328,350,371,393,0,9,9,9,9,0,,,,,,,3,0,3,0,0,41,41,16,,,,,,,,,,,,,,3,1.6363879999844357,3,0.5,0.6000000000000001,21.62576,return,2.4180444999947213,,,,,,,,,,,,,,,,,p302,21,female,up_down_width,2025-12-13_10h00.27.162,exp1,2023.1.0,59.93511425012232,
,,,,,,,,,,,,,,,,3,8.2,10,11.8,0,0,1.8,1.25,0.55,4.15,10,match,36.05,296,361,425,0,0,9,9,9,0,0,,,,,,,3,0,3,0,0,42,42,47,,,,,,,,,,,,,,2,0.8994553000084125,2,0.3,0.65,23.4279,return,3.055212000006577,,,,,,,,,,,,,,,,,p302,21,female,up_down_width,2025-12-13_10h00.27.162,exp1,2023.1.0,59.93511425012232,
,,,,,,,,,,,,,,,,4,8.95,9.65,10.35,11.05,0,0.7,0.29999999999999993,0.4,2.5,10,initial,36.05,323,348,373,398,0,9,9,9,9,0,,,,,,,3,0,3,0,0,43,43,26,,,,,,,,,,,,,,4,1.282107700011693,4,0.2,0.44999999999999996,16.21932,return,1.8207305000105407,,,,,,,,,,,,,,,,,p302,21,female,up_down_width,2025-12-13_10h00.27.162,exp1,2023.1.0,59.93511425012232,
,,,,,,,,,,,,,,,,5,8.6,9.3,10,10.7,11.4,0.7,0.1499999999999999,0.55,3.3499999999999996,10,initial,36.05,310,335,361,386,411,9,9,9,9,9,,,,,,,3,0,3,0,0,44,44,40,,,,,,,,,,,,,,5,1.5330200000025798,5,0.5,0.5,18.02146,return,1.3275316000217572,,,,,,,,,,,,,,,,,p302,21,female,up_down_width,2025-12-13_10h00.27.162,exp1,2023.1.0,59.93511425012232,
,,,,,,,,,,,,,,,,3,8.9,10,11.1,0,0,1.1,0.55,0.55,2.75,10,initial,36.05,321,361,400,0,0,9,9,9,0,0,,,,,,,3,0,3,0,0,45,45,0,,,,,,,,,,,,,,2,0.7975806999893393,2,0.55,0.55,19.82361,return,1.6605036999972071,,,,,,,,,,,,,,,,,p302,21,female,up_down_width,2025-12-13_10h00.27.162,exp1,2023.1.0,59.93511425012232,
,,,,,,,,,,,,,,,,5,8.65,9.325,10,10.675,11.35,0.675,0.275,0.4,3.1,10,match,36.05,312,336,361,385,409,9,9,9,9,9,,,,,,,3,0,3,0,0,46,46,33,,,,,,,,,,,,,,6,1.2237724000005983,6,0.5,0.4,14.41717,return,2.1175140000123065,,,,,,,,,,,,,,,,,p302,21,female,up_down_width,2025-12-13_10h00.27.162,exp1,2023.1.0,59.93511425012232,
,,,,,,,,,,,,,,,,4,9.3,9.766666666666667,10.233333333333333,10.7,0,0.4666666666666667,0.06666666666666665,0.4,1.8,10,match,36.05,335,352,369,386,0,9,9,9,9,0,,,,,,,3,0,3,0,0,47,47,10,,,,,,,,,,,,,,3,0.7691752999962773,3,0.5,0.6500000000000001,23.4279,return,5.521713299996918,,,,,,,,,,,,,,,,,p302,21,female,up_down_width,2025-12-13_10h00.27.162,exp1,2023.1.0,59.93511425012232,
,,,,,,,,,,,,,,,,3,7.8,10,12.2,0,0,2.2,1.65,0.55,4.95,10,match,36.05,281,361,440,0,0,9,9,9,0,0,,,,,,,3,0,3,0,0,48,48,35,,,,,,,,,,,,,,2,0.7111260000092443,2,0.35,0.7000000000000001,25.23005,return,3.1150501999945845,,,,,,,,,,,,,,,,,p302,21,female,up_down_width,2025-12-13_10h00.27.162,exp1,2023.1.0,59.93511425012232,
,,,,,,,,,,,,,,,,4,9.1,9.7,10.3,10.9,0,0.5999999999999999,0.3499999999999999,0.25,2.05,10,match,36.05,328,350,371,393,0,9,9,9,9,0,,,,,,,3,0,3,0,0,49,49,14,,,,,,,,,,,,,,4,1.6237078999984078,4,0.2,0.25,9.01073,return,2.309254299994791,,,,,,,,,,,,,,,,,p302,21,female,up_down_width,2025-12-13_10h00.27.162,exp1,2023.1.0,59.93511425012232,
,,,,,,,,,,,,,,,,5,8.2,9.1,10,10.9,11.8,0.9,0.35,0.55,4.15,10,initial,36.05,296,328,361,393,425,9,9,9,9,9,,,,,,,3,0,3,0,0,50,50,46,,,,,,,,,,,,,,6,2.0744127000216395,6,0.55,0.4,14.41717,return,2.7105343000148423,,,,,,,,,,,,,,,,,p302,21,female,up_down_width,2025-12-13_10h00.27.162,exp1,2023.1.0,59.93511425012232,
,,,,,,,,,,,,,,,,5,7.8,8.9,10,11.1,12.2,1.1,0.55,0.55,4.95,10,initial,36.05,281,321,361,400,440,9,9,9,9,9,,,,,,,3,0,3,0,0,51,51,34,,,,,,,,,,,,,,7,1.6066984000208322,7,0.4,0.4,14.41717,return,1.0777405999833718,,,,,,,,,,,,,,,,,p302,21,female,up_down_width,2025-12-13_10h00.27.162,exp1,2023.1.0,59.93511425012232,
,,,,,,,,,,,,,,,,,,,,,,,,,,,,,,,,,,,,,,,,,,,,,3,0,3,0,,,,,,,,,,,,,,,,,,,,,,,,,,,,2095.6054173999873,2095.6054173999873,2095.6054173999873,,,,,,,,,,,,p302,21,female,up_down_width,2025-12-13_10h00.27.162,exp1,2023.1.0,59.93511425012232,
,,,,,,,,,,,,,,,,5,8.65,9.325,10,10.675,11.35,0.675,0.125,0.55,3.25,10,match,36.05,312,336,361,385,409,9,9,9,9,9,,,,,,,4,0,4,0,0,0,0,29,,,,,,,,,,,,,,4,1.279088299983414,4,0.55,0.6500000000000001,23.4279,return,1.2418720999849029,,,,,,,,,,,,,,,,,p302,21,female,up_down_width,2025-12-13_10h00.27.162,exp1,2023.1.0,59.93511425012232,
,,,,,,,,,,,,,,,,3,9.3,10,10.7,0,0,0.7,0.44999999999999996,0.25,1.65,10,initial,36.05,335,361,386,0,0,9,9,9,0,0,,,,,,,4,0,4,0,0,1,1,7,,,,,,,,,,,,,,3,0.9660944000061136,3,0.55,0.30000000000000004,10.81288,return,2.1430202000192367,,,,,,,,,,,,,,,,,p302,21,female,up_down_width,2025-12-13_10h00.27.162,exp1,2023.1.0,59.93511425012232,
,,,,,,,,,,,,,,,,3,9.3,10,10.7,0,0,0.7,0.1499999999999999,0.55,1.95,10,initial,36.05,335,361,386,0,0,9,9,9,0,0,,,,,,,4,0,4,0,0,2,2,6,,,,,,,,,,,,,,3,1.164485400018748,3,0.2,0.5499999999999999,19.82361,return,4.0131880000117235,,,,,,,,,,,,,,,,,p302,21,female,up_down_width,2025-12-13_10h00.27.162,exp1,2023.1.0,59.93511425012232,
,,,,,,,,,,,,,,,,5,7.8,8.9,10,11.1,12.2,1.1,0.8500000000000001,0.25,4.65,10,initial,36.05,281,321,361,400,440,9,9,9,9,9,,,,,,,4,0,4,0,0,3,3,36,,,,,,,,,,,,,,5,2.06166080001276,5,0.25,0.2,7.20859,return,1.8331631000037305,,,,,,,,,,,,,,,,,p302,21,female,up_down_width,2025-12-13_10h00.27.162,exp1,2023.1.0,59.93511425012232,
,,,,,,,,,,,,,,,,3,8.9,10,11.1,0,0,1.1,0.7000000000000001,0.4,2.6000000000000005,10,initial,36.05,321,361,400,0,0,9,9,9,0,0,,,,,,,4,0,4,0,0,4,4,4,,,,,,,,,,,,,,2,0.6180604000110179,2,0.35,0.35,12.61502,return,1.0713741999934427,,,,,,,,,,,,,,,,,p302,21,female,up_down_width,2025-12-13_10h00.27.162,exp1,2023.1.0,59.93511425012232,
,,,,,,,,,,,,,,,,5,8.65,9.325,10,10.675,11.35,0.675,0.275,0.4,3.1,10,match,36.05,312,336,361,385,409,9,9,9,9,9,,,,,,,4,0,4,0,0,5,5,33,,,,,,,,,,,,,,6,1.853680100000929,6,0.45,0.30000000000000004,10.81288,return,1.8898458000039682,,,,,,,,,,,,,,,,,p302,21,female,up_down_width,2025-12-13_10h00.27.162,exp1,2023.1.0,59.93511425012232,
,,,,,,,,,,,,,,,,5,8.6,9.3,10,10.7,11.4,0.7,0.1499999999999999,0.55,3.3499999999999996,10,initial,36.05,310,335,361,386,411,9,9,9,9,9,,,,,,,4,0,4,0,0,6,6,40,,,,,,,,,,,,,,5,1.146284700022079,5,0.5,0.4,14.41717,return,1.3231163999880664,,,,,,,,,,,,,,,,,p302,21,female,up_down_width,2025-12-13_10h00.27.162,exp1,2023.1.0,59.93511425012232,
,,,,,,,,,,,,,,,,5,8.2,9.1,10,10.9,11.8,0.9,0.5,0.4,4,10,initial,36.05,296,328,361,393,425,9,9,9,9,9,,,,,,,4,0,4,0,0,7,7,50,,,,,,,,,,,,,,6,1.068658800009871,6,0.3,0.35,12.61502,return,1.5532292000134476,,,,,,,,,,,,,,,,,p302,21,female,up_down_width,2025-12-13_10h00.27.162,exp1,2023.1.0,59.93511425012232,
,,,,,,,,,,,,,,,,5,8.2,9.1,10,10.9,11.8,0.9,0.35,0.55,4.15,10,initial,36.05,296,328,361,393,425,9,9,9,9,9,,,,,,,4,0,4,0,0,8,8,46,,,,,,,,,,,,,,6,1.2280894999857992,6,0.55,0.45,16.21932,return,1.4014484000217635,,,,,,,,,,,,,,,,,p302,21,female,up_down_width,2025-12-13_10h00.27.162,exp1,2023.1.0,59.93511425012232,
,,,,,,,,,,,,,,,,3,8.9,10,11.1,0,0,1.1,0.55,0.55,2.75,10,initial,36.05,321,361,400,0,0,9,9,9,0,0,,,,,,,4,0,4,0,0,9,9,0,,,,,,,,,,,,,,2,0.8245792000088841,2,0.25,0.39999999999999997,14.41717,return,1.7348793999990448,,,,,,,,,,,,,,,,,p302,21,female,up_down_width,2025-12-13_10h00.27.162,exp1,2023.1.0,59.93511425012232,
,,,,,,,,,,,,,,,,3,8.525,10,11.475,0,0,1.475,1.225,0.25,3.2,10,match,36.05,307,361,414,0,0,9,9,9,0,0,,,,,,,4,0,4,0,0,10,10,45,,,,,,,,,,,,,,2,0.649007400003029,2,0.5,0.10000000000000007,3.60429,return,2.988367499987362,,,,,,,,,,,,,,,,,p302,21,female,up_down_width,2025-12-13_10h00.27.162,exp1,2023.1.0,59.93511425012232,
,,,,,,,,,,,,,,,,4,8.65,9.55,10.45,11.35,0,0.9,0.35,0.55,3.25,10,initial,36.05,312,344,377,409,0,9,9,9,9,0,,,,,,,4,0,4,0,0,11,11,28,,,,,,,,,,,,,,5,2.7826518999936525,5,0.3,0.44999999999999996,16.21932,return,2.526900700002443,,,,,,,,,,,,,,,,,p302,21,female,up_down_width,2025-12-13_10h00.27.162,exp1,2023.1.0,59.93511425012232,
,,,,,,,,,,,,,,,,3,7.8,10,12.2,0,0,2.2,1.65,0.55,4.95,10,match,36.05,281,361,440,0,0,9,9,9,0,0,,,,,,,4,0,4,0,0,12,12,35,,,,,,,,,,,,,,3,2.35175000000163,3,0.5,0.5,18.02146,return,1.4416408000106458,,,,,,,,,,,,,,,,,p302,21,female,up_down_width,2025-12-13_10h00.27.162,exp1,2023.1.0,59.93511425012232,
,,,,,,,,,,,,,,,,3,9.1,10,10.9,0,0,0.9,0.35,0.55,2.35,10,initial,36.05,328,361,393,0,0,9,9,9,0,0,,,,,,,4,0,4,0,0,13,13,11,,,,,,,,,,,,,,2,0.596741799992742,2,0.25,0.39999999999999997,14.41717,return,2.2362327000009827,,,,,,,,,,,,,,,,,p302,21,female,up_down_width,2025-12-13_10h00.27.162,exp1,2023.1.0,59.93511425012232,
,,,,,,,,,,,,,,,,5,8.6,9.3,10,10.7,11.4,0.7,0.44999999999999996,0.25,3.05,10,initial,36.05,310,335,361,386,411,9,9,9,9,9,,,,,,,4,0,4,0,0,14,14,42,,,,,,,,,,,,,,6,1.8079288000008091,6,0.4,0.20000000000000007,7.20859,return,1.9585088999883737,,,,,,,,,,,,,,,,,p302,21,female,up_down_width,2025-12-13_10h00.27.162,exp1,2023.1.0,59.93511425012232,
,,,,,,,,,,,,,,,,4,8.95,9.65,10.35,11.05,0,0.7,0.29999999999999993,0.4,2.5,10,initial,36.05,323,348,373,398,0,9,9,9,9,0,,,,,,,4,0,4,0,0,15,15,26,,,,,,,,,,,,,,4,2.654990600014571,4,0.35,0.35,12.61502,return,2.050913200015202,,,,,,,,,,,,,,,,,p302,21,female,up_down_width,2025-12-13_10h00.27.162,exp1,2023.1.0,59.93511425012232,
,,,,,,,,,,,,,,,,5,8.95,9.475,10,10.525,11.05,0.525,0.275,0.25,2.35,10,match,36.05,323,342,361,379,398,9,9,9,9,9,,,,,,,4,0,4,0,0,16,16,25,,,,,,,,,,,,,,6,1.514943200018024,6,0.2,0.25,9.01073,return,1.5326120000099763,,,,,,,,,,,,,,,,,p302,21,female,up_down_width,2025-12-13_10h00.27.162,exp1,2023.1.0,59.93511425012232,
,,,,,,,,,,,,,,,,4,8.9,9.633333333333333,10.366666666666667,11.1,0,0.7333333333333333,0.18333333333333326,0.55,2.75,10,match,36.05,321,347,374,400,0,9,9,9,9,0,,,,,,,4,0,4,0,0,17,17,1,,,,,,,,,,,,,,3,2.0169814999972004,3,0.5,0.4,14.41717,return,2.272100700007286,,,,,,,,,,,,,,,,,p302,21,female,up_down_width,2025-12-13_10h00.27.162,exp1,2023.1.0,59.93511425012232,
,,,,,,,,,,,,,,,,4,8.825,9.608333333333333,10.391666666666667,11.175,0,0.7833333333333333,0.5333333333333333,0.25,2.6,10,match,36.05,318,346,375,403,0,9,9,9,9,0,,,,,,,4,0,4,0,0,18,18,5,,,,,,,,,,,,,,6,1.41448209999362,6,0.3,0.15000000000000002,5.40644,return,1.468056899990188,,,,,,,,,,,,,,,,,p302,21,female,up_down_width,2025-12-13_10h00.27.162,exp1,2023.1.0,59.93511425012232,
,,,,,,,,,,,,,,,,5,7.8,8.9,10,11.1,12.2,1.1,0.55,0.55,4.95,10,initial,36.05,281,321,361,400,440,9,9,9,9,9,,,,,,,4,0,4,0,0,19,19,34,,,,,,,,,,,,,,7,1.368575400003465,7,0.35,0.25,9.01073,return,2.2736843999882694,,,,,,,,,,,,,,,,,p302,21,female,up_down_width,2025-12-13_10h00.27.162,exp1,2023.1.0,59.93511425012232,
,,,,,,,,,,,,,,,,4,9.1,9.7,10.3,10.9,0,0.6000000000000001,0.20000000000000004,0.4,2.2,10,match,36.05,328,350,371,393,0,9,9,9,9,0,,,,,,,4,0,4,0,0,20,20,16,,,,,,,,,,,,,,4,2.5163865000067744,4,0.5,0.30000000000000004,10.81288,return,2.845832099992549,,,,,,,,,,,,,,,,,p302,21,female,up_down_width,2025-12-13_10h00.27.162,exp1,2023.1.0,59.93511425012232,
,,,,,,,,,,,,,,,,3,9.1,10,10.9,0,0,0.9,0.65,0.25,2.05,10,initial,36.05,328,361,393,0,0,9,9,9,0,0,,,,,,,4,0,4,0,0,21,21,13,,,,,,,,,,,,,,2,0.905907100008335,2,0.35,0.2,7.20859,return,2.01969509999617,,,,,,,,,,,,,,,,,p302,21,female,up_down_width,2025-12-13_10h00.27.162,exp1,2023.1.0,59.93511425012232,
,,,,,,,,,,,,,,,,3,8.6,10,11.4,0,0,1.4,1.15,0.25,3.05,10,match,36.05,310,361,411,0,0,9,9,9,0,0,,,,,,,4,0,4,0,0,22,22,43,,,,,,,,,,,,,,3,4.53276289999485,3,0.5,0.4,14.41717,return,1.8064012000104412,,,,,,,,,,,,,,,,,p302,21,female,up_down_width,2025-12-13_10h00.27.162,exp1,2023.1.0,59.93511425012232,
,,,,,,,,,,,,,,,,4,8.95,9.65,10.35,11.05,0,0.7,0.44999999999999996,0.25,2.3499999999999996,10,initial,36.05,323,348,373,398,0,9,9,9,9,0,,,,,,,4,0,4,0,0,23,23,24,,,,,,,,,,,,,,3,1.0165422999998555,3,0.4,0.15000000000000008,5.40644,return,2.1760281000169925,,,,,,,,,,,,,,,,,p302,21,female,up_down_width,2025-12-13_10h00.27.162,exp1,2023.1.0,59.93511425012232,
,,,,,,,,,,,,,,,,4,8.65,9.55,10.45,11.35,0,0.9,0.5,0.4,3.1,10,initial,36.05,312,344,377,409,0,9,9,9,9,0,,,,,,,4,0,4,0,0,24,24,32,,,,,,,,,,,,,,5,1.9219108000106644,5,0.4,0.20000000000000007,7.20859,return,2.4346687000070233,,,,,,,,,,,,,,,,,p302,21,female,up_down_width,2025-12-13_10h00.27.162,exp1,2023.1.0,59.93511425012232,
,,,,,,,,,,,,,,,,5,8.6,9.3,10,10.7,11.4,0.7,0.29999999999999993,0.4,3.1999999999999997,10,initial,36.05,310,335,361,386,411,9,9,9,9,9,,,,,,,4,0,4,0,0,25,25,44,,,,,,,,,,,,,,6,1.2889136000012513,6,0.35,0.2,7.20859,return,1.4923264999815729,,,,,,,,,,,,,,,,,p302,21,female,up_down_width,2025-12-13_10h00.27.162,exp1,2023.1.0,59.93511425012232,
,,,,,,,,,,,,,,,,4,9.3,9.766666666666667,10.233333333333333,10.7,0,0.4666666666666667,0.21666666666666665,0.25,1.65,10,match,36.05,335,352,369,386,0,9,9,9,9,0,,,,,,,4,0,4,0,0,26,26,8,,,,,,,,,,,,,,3,1.890022899984615,3,0.55,0.15000000000000008,5.40644,return,2.5651118000096176,,,,,,,,,,,,,,,,,p302,21,female,up_down_width,2025-12-13_10h00.27.162,exp1,2023.1.0,59.93511425012232,
,,,,,,,,,,,,,,,,5,8.35,9.175,10,10.825,11.65,0.8250000000000001,0.275,0.55,3.85,10,match,36.05,301,331,361,390,420,9,9,9,9,9,,,,,,,4,0,4,0,0,27,27,18,,,,,,,,,,,,,,5,1.4099311000027228,5,0.35,0.44999999999999996,16.21932,return,1.7992923999845516,,,,,,,,,,,,,,,,,p302,21,female,up_down_width,2025-12-13_10h00.27.162,exp1,2023.1.0,59.93511425012232,
,,,,,,,,,,,,,,,,5,7.8,8.9,10,11.1,12.2,1.1,0.7000000000000001,0.4,4.800000000000001,10,initial,36.05,281,321,361,400,440,9,9,9,9,9,,,,,,,4,0,4,0,0,28,28,38,,,,,,,,,,,,,,7,1.4006956999946851,7,0.25,0.39999999999999997,14.41717,return,1.9357621000090148,,,,,,,,,,,,,,,,,p302,21,female,up_down_width,2025-12-13_10h00.27.162,exp1,2023.1.0,59.93511425012232,
,,,,,,,,,,,,,,,,4,8.65,9.55,10.45,11.35,0,0.9,0.65,0.25,2.95,10,initial,36.05,312,344,377,409,0,9,9,9,9,0,,,,,,,4,0,4,0,0,29,29,30,,,,,,,,,,,,,,3,0.8031849000253715,3,0.4,0.25000000000000006,9.01073,return,1.4259431000100449,,,,,,,,,,,,,,,,,p302,21,female,up_down_width,2025-12-13_10h00.27.162,exp1,2023.1.0,59.93511425012232,
,,,,,,,,,,,,,,,,3,9.3,10,10.7,0,0,0.7,0.29999999999999993,0.4,1.8,10,initial,36.05,335,361,386,0,0,9,9,9,0,0,,,,,,,4,0,4,0,0,30,30,9,,,,,,,,,,,,,,2,1.521954600000754,2,0.5,0.30000000000000004,10.81288,return,1.732958900014637,,,,,,,,,,,,,,,,,p302,21,female,up_down_width,2025-12-13_10h00.27.162,exp1,2023.1.0,59.93511425012232,
,,,,,,,,,,,,,,,,3,7.8,10,12.2,0,0,2.2,1.9500000000000002,0.25,4.65,10,match,36.05,281,361,440,0,0,9,9,9,0,0,,,,,,,4,0,4,0,0,31,31,37,,,,,,,,,,,,,,3,0.9358498000074178,3,0.25,0.2,7.20859,return,2.017677099996945,,,,,,,,,,,,,,,,,p302,21,female,up_down_width,2025-12-13_10h00.27.162,exp1,2023.1.0,59.93511425012232,
,,,,,,,,,,,,,,,,3,9.1,10,10.9,0,0,0.9,0.5,0.4,2.2,10,initial,36.05,328,361,393,0,0,9,9,9,0,0,,,,,,,4,0,4,0,0,32,32,15,,,,,,,,,,,,,,3,0.6972287999815308,3,0.3,0.39999999999999997,14.41717,return,2.68439650000073,,,,,,,,,,,,,,,,,p302,21,female,up_down_width,2025-12-13_10h00.27.162,exp1,2023.1.0,59.93511425012232,
,,,,,,,,,,,,,,,,3,8.2,10,11.8,0,0,1.8,1.25,0.55,4.15,10,match,36.05,296,361,425,0,0,9,9,9,0,0,,,,,,,4,0,4,0,0,33,33,47,,,,,,,,,,,,,,3,0.6268927000055555,3,0.55,0.30000000000000004,10.81288,return,7.320096300012665,,,,,,,,,,,,,,,,,p302,21,female,up_down_width,2025-12-13_10h00.27.162,exp1,2023.1.0,59.93511425012232,
,,,,,,,,,,,,,,,,4,8.95,9.65,10.35,11.05,0,0.7,0.1499999999999999,0.55,2.65,10,initial,36.05,323,348,373,398,0,9,9,9,9,0,,,,,,,4,0,4,0,0,34,34,23,,,,,,,,,,,,,,3,1.9430025999899954,3,0.2,0.44999999999999996,16.21932,return,2.680259399989154,,,,,,,,,,,,,,,,,p302,21,female,up_down_width,2025-12-13_10h00.27.162,exp1,2023.1.0,59.93511425012232,
,,,,,,,,,,,,,,,,5,8.95,9.475,10,10.525,11.05,0.525,0.125,0.4,2.5,10,match,36.05,323,342,361,379,398,9,9,9,9,9,,,,,,,4,0,4,0,0,35,35,27,,,,,,,,,,,,,,3,3.120055500010494,3,0.25,0.25,9.01073,return,6.801300399994943,,,,,,,,,,,,,,,,,p302,21,female,up_down_width,2025-12-13_10h00.27.162,exp1,2023.1.0,59.93511425012232,
,,,,,,,,,,,,,,,,4,8.35,9.45,10.55,11.65,0,1.1,0.7000000000000001,0.4,3.7,10,initial,36.05,301,341,380,420,0,9,9,9,9,0,,,,,,,4,0,4,0,0,36,36,21,,,,,,,,,,,,,,4,1.2855288999853656,4,0.55,0.30000000000000004,10.81288,return,1.9366257000074256,,,,,,,,,,,,,,,,,p302,21,female,up_down_width,2025-12-13_10h00.27.162,exp1,2023.1.0,59.93511425012232,
,,,,,,,,,,,,,,,,5,8.65,9.325,10,10.675,11.35,0.675,0.42500000000000004,0.25,2.95,10,match,36.05,312,336,361,385,409,9,9,9,9,9,,,,,,,4,0,4,0,0,37,37,31,,,,,,,,,,,,,,7,1.7483752999978606,7,0.35,0.2,7.20859,return,1.5488801999890711,,,,,,,,,,,,,,,,,p302,21,female,up_down_width,2025-12-13_10h00.27.162,exp1,2023.1.0,59.93511425012232,
,,,,,,,,,,,,,,,,3,8.6,10,11.4,0,0,1.4,0.85,0.55,3.35,10,match,36.05,310,361,411,0,0,9,9,9,0,0,,,,,,,4,0,4,0,0,38,38,41,,,,,,,,,,,,,,3,0.7387099000043236,3,0.3,0.3,10.81288,return,1.876348699996015,,,,,,,,,,,,,,,,,p302,21,female,up_down_width,2025-12-13_10h00.27.162,exp1,2023.1.0,59.93511425012232,
,,,,,,,,,,,,,,,,5,8.35,9.175,10,10.825,11.65,0.825,0.575,0.25,3.55,10,match,36.05,301,331,361,390,420,9,9,9,9,9,,,,,,,4,0,4,0,0,39,39,20,,,,,,,,,,,,,,7,1.2216324000037275,7,0.35,0.2,7.20859,return,1.4116374000150245,,,,,,,,,,,,,,,,,p302,21,female,up_down_width,2025-12-13_10h00.27.162,exp1,2023.1.0,59.93511425012232,
,,,,,,,,,,,,,,,,3,8.2,10,11.8,0,0,1.8,1.55,0.25,3.85,10,match,36.05,296,361,425,0,0,9,9,9,0,0,,,,,,,4,0,4,0,0,40,40,49,,,,,,,,,,,,,,3,0.6492655999900308,3,0.5,0.15000000000000008,5.40644,return,2.589662699989276,,,,,,,,,,,,,,,,,p302,21,female,up_down_width,2025-12-13_10h00.27.162,exp1,2023.1.0,59.93511425012232,
,,,,,,,,,,,,,,,,3,8.2,10,11.8,0,0,1.7999999999999998,1.4,0.4,4,10,match,36.05,296,361,425,0,0,9,9,9,0,0,,,,,,,4,0,4,0,0,41,41,51,,,,,,,,,,,,,,3,0.9674790999852121,3,0.25,0.49999999999999994,18.02146,return,4.351107499998761,,,,,,,,,,,,,,,,,p302,21,female,up_down_width,2025-12-13_10h00.27.162,exp1,2023.1.0,59.93511425012232,
,,,,,,,,,,,,,,,,5,8.2,9.1,10,10.9,11.8,0.9,0.65,0.25,3.85,10,initial,36.05,296,328,361,393,425,9,9,9,9,9,,,,,,,4,0,4,0,0,42,42,48,,,,,,,,,,,,,,6,3.065888100012671,6,0.2,0.35,12.61502,return,1.5184756999951787,,,,,,,,,,,,,,,,,p302,21,female,up_down_width,2025-12-13_10h00.27.162,exp1,2023.1.0,59.93511425012232,
,,,,,,,,,,,,,,,,4,9.1,9.7,10.3,10.9,0,0.6,0.04999999999999997,0.55,2.35,10,match,36.05,328,350,371,393,0,9,9,9,9,0,,,,,,,4,0,4,0,0,43,43,12,,,,,,,,,,,,,,3,1.5392251999874134,3,0.35,0.6,21.62576,return,1.9404748000088148,,,,,,,,,,,,,,,,,p302,21,female,up_down_width,2025-12-13_10h00.27.162,exp1,2023.1.0,59.93511425012232,
,,,,,,,,,,,,,,,,4,9.3,9.766666666666667,10.233333333333333,10.7,0,0.4666666666666667,0.06666666666666665,0.4,1.8,10,match,36.05,335,352,369,386,0,9,9,9,9,0,,,,,,,4,0,4,0,0,44,44,10,,,,,,,,,,,,,,2,3.032674299989594,2,0.4,0.4,14.41717,return,3.885974400007399,,,,,,,,,,,,,,,,,p302,21,female,up_down_width,2025-12-13_10h00.27.162,exp1,2023.1.0,59.93511425012232,
,,,,,,,,,,,,,,,,3,8.9,10,11.1,0,0,1.1,0.8500000000000001,0.25,2.45,10,initial,36.05,321,361,400,0,0,9,9,9,0,0,,,,,,,4,0,4,0,0,45,45,2,,,,,,,,,,,,,,2,0.5473653000080958,2,0.3,0.10000000000000002,3.60429,return,2.349494900001446,,,,,,,,,,,,,,,,,p302,21,female,up_down_width,2025-12-13_10h00.27.162,exp1,2023.1.0,59.93511425012232,
,,,,,,,,,,,,,,,,4,9.1,9.7,10.3,10.9,0,0.5999999999999999,0.3499999999999999,0.25,2.05,10,match,36.05,328,350,371,393,0,9,9,9,9,0,,,,,,,4,0,4,0,0,46,46,14,,,,,,,,,,,,,,4,1.8304323999909684,4,0.2,0.15000000000000002,5.40644,return,1.9484835999901406,,,,,,,,,,,,,,,,,p302,21,female,up_down_width,2025-12-13_10h00.27.162,exp1,2023.1.0,59.93511425012232,
,,,,,,,,,,,,,,,,4,8.9,9.633333333333333,10.366666666666667,11.1,0,0.7333333333333334,0.4833333333333334,0.25,2.45,10,match,36.05,321,347,374,400,0,9,9,9,9,0,,,,,,,4,0,4,0,0,47,47,3,,,,,,,,,,,,,,4,0.8798893999774009,4,0.4,0.15000000000000002,5.40644,return,4.282931499998085,,,,,,,,,,,,,,,,,p302,21,female,up_down_width,2025-12-13_10h00.27.162,exp1,2023.1.0,59.93511425012232,
,,,,,,,,,,,,,,,,3,7.800000000000001,10,12.2,0,0,2.1999999999999997,1.7999999999999998,0.4,4.8,10,match,36.05,281,361,440,0,0,9,9,9,0,0,,,,,,,4,0,4,0,0,48,48,39,,,,,,,,,,,,,,3,1.5365882999903988,3,0.4,0.25000000000000006,9.01073,return,2.721879299991997,,,,,,,,,,,,,,,,,p302,21,female,up_down_width,2025-12-13_10h00.27.162,exp1,2023.1.0,59.93511425012232,
,,,,,,,,,,,,,,,,4,8.35,9.45,10.55,11.65,0,1.1,0.8500000000000001,0.25,3.5500000000000003,10,initial,36.05,301,341,380,420,0,9,9,9,9,0,,,,,,,4,0,4,0,0,49,49,19,,,,,,,,,,,,,,3,3.288469699997222,3,0.55,0.45,16.21932,return,1.556376199994702,,,,,,,,,,,,,,,,,p302,21,female,up_down_width,2025-12-13_10h00.27.162,exp1,2023.1.0,59.93511425012232,
,,,,,,,,,,,,,,,,4,8.35,9.45,10.55,11.65,0,1.1,0.55,0.55,3.8500000000000005,10,initial,36.05,301,341,380,420,0,9,9,9,9,0,,,,,,,4,0,4,0,0,50,50,17,,,,,,,,,,,,,,4,0.9515365000115708,4,0.4,0.4,14.41717,return,1.3272560999903362,,,,,,,,,,,,,,,,,p302,21,female,up_down_width,2025-12-13_10h00.27.162,exp1,2023.1.0,59.93511425012232,
,,,,,,,,,,,,,,,,5,8.275,9.1375,10,10.8625,11.725,0.8625,0.6125,0.25,3.7,10,match,36.05,298,329,361,392,423,9,9,9,9,9,,,,,,,4,0,4,0,0,51,51,22,,,,,,,,,,,,,,7,1.3419453999958932,7,0.3,0.15000000000000002,5.40644,return,1.2230351000034716,,,,,,,,,,,,,,,,,p302,21,female,up_down_width,2025-12-13_10h00.27.162,exp1,2023.1.0,59.93511425012232,
,,,,,,,,,,,,,,,,,,,,,,,,,,,,,,,,,,,,,,,,,,,,,4,0,4,0,,,,,,,,,,,,,,,,,,,,,,,,,,,,2455.721706899989,2455.721706899989,2455.721706899989,,,,,,,,,,,,p302,21,female,up_down_width,2025-12-13_10h00.27.162,exp1,2023.1.0,59.93511425012232,
,,,,,,,,,,,,,,,,5,8.6,9.3,10,10.7,11.4,0.7,0.29999999999999993,0.4,3.1999999999999997,10,initial,36.05,310,335,361,386,411,9,9,9,9,9,,,,,,,5,0,5,0,0,0,0,44,,,,,,,,,,,,,,5,2.4944026000157464,5,0.2,0.35,12.61502,return,1.7848017000069376,,,,,,,,,,,,,,,,,p302,21,female,up_down_width,2025-12-13_10h00.27.162,exp1,2023.1.0,59.93511425012232,
,,,,,,,,,,,,,,,,4,8.65,9.55,10.45,11.35,0,0.9,0.5,0.4,3.1,10,initial,36.05,312,344,377,409,0,9,9,9,9,0,,,,,,,5,0,5,0,0,1,1,32,,,,,,,,,,,,,,3,1.2907400999974925,3,0.55,0.35000000000000003,12.61502,return,1.7014307000208646,,,,,,,,,,,,,,,,,p302,21,female,up_down_width,2025-12-13_10h00.27.162,exp1,2023.1.0,59.93511425012232,
,,,,,,,,,,,,,,,,5,8.6,9.3,10,10.7,11.4,0.7,0.1499999999999999,0.55,3.3499999999999996,10,initial,36.05,310,335,361,386,411,9,9,9,9,9,,,,,,,5,0,5,0,0,2,2,40,,,,,,,,,,,,,,5,1.1990405999822542,5,0.55,0.45,16.21932,return,1.3106010000046808,,,,,,,,,,,,,,,,,p302,21,female,up_down_width,2025-12-13_10h00.27.162,exp1,2023.1.0,59.93511425012232,
,,,,,,,,,,,,,,,,4,8.95,9.65,10.35,11.05,0,0.7,0.1499999999999999,0.55,2.65,10,initial,36.05,323,348,373,398,0,9,9,9,9,0,,,,,,,5,0,5,0,0,3,3,23,,,,,,,,,,,,,,4,1.165494500019122,4,0.45,0.45,16.21932,return,1.293998700013617,,,,,,,,,,,,,,,,,p302,21,female,up_down_width,2025-12-13_10h00.27.162,exp1,2023.1.0,59.93511425012232,
,,,,,,,,,,,,,,,,5,8.95,9.475,10,10.525,11.05,0.525,0.125,0.4,2.5,10,match,36.05,323,342,361,379,398,9,9,9,9,9,,,,,,,5,0,5,0,0,4,4,27,,,,,,,,,,,,,,5,1.1635936999809928,5,0.3,0.35,12.61502,return,1.4839964999991935,,,,,,,,,,,,,,,,,p302,21,female,up_down_width,2025-12-13_10h00.27.162,exp1,2023.1.0,59.93511425012232,
,,,,,,,,,,,,,,,,5,7.8,8.9,10,11.1,12.2,1.1,0.8500000000000001,0.25,4.65,10,initial,36.05,281,321,361,400,440,9,9,9,9,9,,,,,,,5,0,5,0,0,5,5,36,,,,,,,,,,,,,,6,1.4825672000006307,6,0.3,0.2,7.20859,return,1.326499499991769,,,,,,,,,,,,,,,,,p302,21,female,up_down_width,2025-12-13_10h00.27.162,exp1,2023.1.0,59.93511425012232,
,,,,,,,,,,,,,,,,4,8.35,9.45,10.55,11.65,0,1.1,0.55,0.55,3.8500000000000005,10,initial,36.05,301,341,380,420,0,9,9,9,9,0,,,,,,,5,0,5,0,0,6,6,17,,,,,,,,,,,,,,3,1.215468200010946,3,0.25,0.39999999999999997,14.41717,return,1.5509159000066575,,,,,,,,,,,,,,,,,p302,21,female,up_down_width,2025-12-13_10h00.27.162,exp1,2023.1.0,59.93511425012232,
,,,,,,,,,,,,,,,,3,9.3,10,10.7,0,0,0.7,0.1499999999999999,0.55,1.95,10,initial,36.05,335,361,386,0,0,9,9,9,0,0,,,,,,,5,0,5,0,0,7,7,6,,,,,,,,,,,,,,2,0.9377897999947891,2,0.4,0.5,18.02146,return,1.1553676000039559,,,,,,,,,,,,,,,,,p302,21,female,up_down_width,2025-12-13_10h00.27.162,exp1,2023.1.0,59.93511425012232,
,,,,,,,,,,,,,,,,4,9.3,9.766666666666667,10.233333333333333,10.7,0,0.4666666666666667,0.06666666666666665,0.4,1.8,10,match,36.05,335,352,369,386,0,9,9,9,9,0,,,,,,,5,0,5,0,0,8,8,10,,,,,,,,,,,,,,3,0.8406069000193384,3,0.5,0.4,14.41717,return,1.5251320000097621,,,,,,,,,,,,,,,,,p302,21,female,up_down_width,2025-12-13_10h00.27.162,exp1,2023.1.0,59.93511425012232,
,,,,,,,,,,,,,,,,3,8.9,10,11.1,0,0,1.1,0.7000000000000001,0.4,2.6000000000000005,10,initial,36.05,321,361,400,0,0,9,9,9,0,0,,,,,,,5,0,5,0,0,9,9,4,,,,,,,,,,,,,,3,0.763403200020548,3,0.5,0.4,14.41717,return,2.3324716000061017,,,,,,,,,,,,,,,,,p302,21,female,up_down_width,2025-12-13_10h00.27.162,exp1,2023.1.0,59.93511425012232,
,,,,,,,,,,,,,,,,3,7.800000000000001,10,12.2,0,0,2.1999999999999997,1.7999999999999998,0.4,4.8,10,match,36.05,281,361,440,0,0,9,9,9,0,0,,,,,,,5,0,5,0,0,10,10,39,,,,,,,,,,,,,,2,0.9072002999891993,2,0.5,0.25000000000000006,9.01073,return,2.775128000008408,,,,,,,,,,,,,,,,,p302,21,female,up_down_width,2025-12-13_10h00.27.162,exp1,2023.1.0,59.93511425012232,
,,,,,,,,,,,,,,,,3,7.8,10,12.2,0,0,2.2,1.9500000000000002,0.25,4.65,10,match,36.05,281,361,440,0,0,9,9,9,0,0,,,,,,,5,0,5,0,0,11,11,37,,,,,,,,,,,,,,2,0.6639533000125084,2,0.55,0.10000000000000007,3.60429,return,4.5732055000262335,,,,,,,,,,,,,,,,,p302,21,female,up_down_width,2025-12-13_10h00.27.162,exp1,2023.1.0,59.93511425012232,
,,,,,,,,,,,,,,,,3,8.2,10,11.8,0,0,1.8,1.25,0.55,4.15,10,match,36.05,296,361,425,0,0,9,9,9,0,0,,,,,,,5,0,5,0,0,12,12,47,,,,,,,,,,,,,,2,0.6638016999932006,2,0.35,0.5499999999999999,19.82361,return,1.724388500006171,,,,,,,,,,,,,,,,,p302,21,female,up_down_width,2025-12-13_10h00.27.162,exp1,2023.1.0,59.93511425012232,
,,,,,,,,,,,,,,,,3,7.8,10,12.2,0,0,2.2,1.65,0.55,4.95,10,match,36.05,281,361,440,0,0,9,9,9,0,0,,,,,,,5,0,5,0,0,13,13,35,,,,,,,,,,,,,,2,0.5512692999909632,2,0.45,0.5,18.02146,return,1.7764457000012044,,,,,,,,,,,,,,,,,p302,21,female,up_down_width,2025-12-13_10h00.27.162,exp1,2023.1.0,59.93511425012232,
,,,,,,,,,,,,,,,,4,8.35,9.45,10.55,11.65,0,1.1,0.7000000000000001,0.4,3.7,10,initial,36.05,301,341,380,420,0,9,9,9,9,0,,,,,,,5,0,5,0,0,14,14,21,,,,,,,,,,,,,,4,1.3666614000103436,4,0.35,0.3,10.81288,return,1.6954007000022102,,,,,,,,,,,,,,,,,p302,21,female,up_down_width,2025-12-13_10h00.27.162,exp1,2023.1.0,59.93511425012232,
,,,,,,,,,,,,,,,,5,7.8,8.9,10,11.1,12.2,1.1,0.55,0.55,4.95,10,initial,36.05,281,321,361,400,440,9,9,9,9,9,,,,,,,5,0,5,0,0,15,15,34,,,,,,,,,,,,,,7,2.036525100003928,7,0.3,0.39999999999999997,14.41717,return,1.4092191000236198,,,,,,,,,,,,,,,,,p302,21,female,up_down_width,2025-12-13_10h00.27.162,exp1,2023.1.0,59.93511425012232,
,,,,,,,,,,,,,,,,3,9.1,10,10.9,0,0,0.9,0.35,0.55,2.35,10,initial,36.05,328,361,393,0,0,9,9,9,0,0,,,,,,,5,0,5,0,0,16,16,11,,,,,,,,,,,,,,2,0.5952616000140551,2,0.4,0.5,18.02146,return,1.7057073999894783,,,,,,,,,,,,,,,,,p302,21,female,up_down_width,2025-12-13_10h00.27.162,exp1,2023.1.0,59.93511425012232,
,,,,,,,,,,,,,,,,5,8.65,9.325,10,10.675,11.35,0.675,0.275,0.4,3.1,10,match,36.05,312,336,361,385,409,9,9,9,9,9,,,,,,,5,0,5,0,0,17,17,33,,,,,,,,,,,,,,7,1.6144974999770056,7,0.25,0.3,10.81288,return,1.741883600014262,,,,,,,,,,,,,,,,,p302,21,female,up_down_width,2025-12-13_10h00.27.162,exp1,2023.1.0,59.93511425012232,
,,,,,,,,,,,,,,,,5,8.2,9.1,10,10.9,11.8,0.9,0.5,0.4,4,10,initial,36.05,296,328,361,393,425,9,9,9,9,9,,,,,,,5,0,5,0,0,18,18,50,,,,,,,,,,,,,,7,1.7228485000086948,7,0.25,0.3,10.81288,return,1.2040635000157636,,,,,,,,,,,,,,,,,p302,21,female,up_down_width,2025-12-13_10h00.27.162,exp1,2023.1.0,59.93511425012232,
,,,,,,,,,,,,,,,,4,8.9,9.633333333333333,10.366666666666667,11.1,0,0.7333333333333334,0.4833333333333334,0.25,2.45,10,match,36.05,321,347,374,400,0,9,9,9,9,0,,,,,,,5,0,5,0,0,19,19,3,,,,,,,,,,,,,,3,1.3451759000017773,3,0.45,0.15000000000000008,5.40644,return,3.8023614000121597,,,,,,,,,,,,,,,,,p302,21,female,up_down_width,2025-12-13_10h00.27.162,exp1,2023.1.0,59.93511425012232,
,,,,,,,,,,,,,,,,3,8.2,10,11.8,0,0,1.8,1.55,0.25,3.85,10,match,36.05,296,361,425,0,0,9,9,9,0,0,,,,,,,5,0,5,0,0,20,20,49,,,,,,,,,,,,,,3,1.1579300000157673,3,0.5,0.20000000000000007,7.20859,return,2.3744329000182915,,,,,,,,,,,,,,,,,p302,21,female,up_down_width,2025-12-13_10h00.27.162,exp1,2023.1.0,59.93511425012232,
,,,,,,,,,,,,,,,,5,8.65,9.325,10,10.675,11.35,0.675,0.42500000000000004,0.25,2.95,10,match,36.05,312,336,361,385,409,9,9,9,9,9,,,,,,,5,0,5,0,0,21,21,31,,,,,,,,,,,,,,5,1.5284647999797016,5,0.45,0.15000000000000008,5.40644,return,2.1371970000036526,,,,,,,,,,,,,,,,,p302,21,female,up_down_width,2025-12-13_10h00.27.162,exp1,2023.1.0,59.93511425012232,
,,,,,,,,,,,,,,,,3,8.9,10,11.1,0,0,1.1,0.55,0.55,2.75,10,initial,36.05,321,361,400,0,0,9,9,9,0,0,,,,,,,5,0,5,0,0,22,22,0,,,,,,,,,,,,,,2,0.6851341000001412,2,0.35,0.5499999999999999,19.82361,return,2.70422340001096,,,,,,,,,,,,,,,,,p302,21,female,up_down_width,2025-12-13_10h00.27.162,exp1,2023.1.0,59.93511425012232,
,,,,,,,,,,,,,,,,5,8.2,9.1,10,10.9,11.8,0.9,0.35,0.55,4.15,10,initial,36.05,296,328,361,393,425,9,9,9,9,9,,,,,,,5,0,5,0,0,23,23,46,,,,,,,,,,,,,,7,2.013991400017403,7,0.5,0.4,14.41717,return,1.3553205000062007,,,,,,,,,,,,,,,,,p302,21,female,up_down_width,2025-12-13_10h00.27.162,exp1,2023.1.0,59.93511425012232,
,,,,,,,,,,,,,,,,5,7.8,8.9,10,11.1,12.2,1.1,0.7000000000000001,0.4,4.800000000000001,10,initial,36.05,281,321,361,400,440,9,9,9,9,9,,,,,,,5,0,5,0,0,24,24,38,,,,,,,,,,,,,,7,1.2995841999945696,7,0.35,0.35,12.61502,return,1.869584300002316,,,,,,,,,,,,,,,,,p302,21,female,up_down_width,2025-12-13_10h00.27.162,exp1,2023.1.0,59.93511425012232,
