amount_p,posx1_p,posx2_p,posx3_p,posx4_p,posx5_p,center_to_center_p,edge_to_edge_p,w_p,stim_lengt_p,eccentricity_p,line1_p,line2_p,line3_p,line4_p,line5_p,amount,posx1,posx2,posx3,posx4,posx5,center_to_center,edge_to_edge,w,stim_length,eccentricity,trial_type,deg_to_pix_index,posx1_in_pix,posx2_in_pix,posx3_in_pix,posx4_in_pix,posx5_in_pix,line1,line2,line3,line4,line5,posx,setsize_cobdi,trials.thisRepN,trials.thisTrialN,trials.thisN,trials.thisIndex,blocks.thisRepN,blocks.thisTrialN,blocks.thisN,blocks.thisIndex,loop.thisRepN,loop.thisTrialN,loop.thisN,loop.thisIndex,first.thisRepN,first.thisTrialN,first.thisN,first.thisIndex,second.thisRepN,second.thisTrialN,second.thisN,second.thisIndex,thisRow.t,notes,key_resp_3.started,key_resp_3.keys,key_resp_3.rt,key_resp.keys,key_resp.rt,response,starting_width_deg,response_width_degree,response_width_pixel,next_5.keys,next_5.rt,key_resp_4.keys,key_resp_4.rt,text_3.started,text_4.started,key_resp_2.started,text_2.started,key_resp_2.keys,key_resp_2.rt,adjusting.started,next.keys,next.rt,text_control2.started,key_resp.started,key_resp.corr,text_bye.started,text_bye.stopped,participant,age,gender,resp_group,date,expName,psychopyVersion,frameRate,
,,,,,,,,,,,,,,,,,,,,,,,,,,,,,,,,,,,,,,,,,,,,,,,,,,,,,,,,,,,,,,,382.0937797999941,c,129.00078050000593,,,,,,,,,,,,,,,,,,,,,,,,,p302,22,female,up_down_width,2025-11-12_11h32.06.658,exp1,2023.1.0,60.012518608895434,
4,9.5,9.833333333333334,10.166666666666666,10.5,0,0.33333333333333337,0.23333333333333336,0.1,1.1,10,9,9,9,9,0,,,,,,,,,,,,,,,,,,,,,,,,,,0,0,0,3,,,,,,,,,,,,,,,,,,,,,,4,3.9003113000071608,4,0.25,0.15000000000000002,5.40644,return,9.807312500022817,,,,,,,,,,,,,,,,,p302,22,female,up_down_width,2025-11-12_11h32.06.658,exp1,2023.1.0,60.012518608895434,
4,8.65,9.55,10.45,11.35,0,0.9,0.5,0.4,3.1,10,9,9,9,9,0,,,,,,,,,,,,,,,,,,,,,,,,,,0,1,1,5,,,,,,,,,,,,,,,,,,,,,,4,0.6585557999787852,4,0.5,0.35000000000000003,12.61502,return,3.688213800021913,,,,,,,,,,,,,,,,,p302,22,female,up_down_width,2025-11-12_11h32.06.658,exp1,2023.1.0,60.012518608895434,
4,9.25,9.75,10.25,10.75,0,0.5,0.25,0.25,1.75,10,9,9,9,9,0,,,,,,,,,,,,,,,,,,,,,,,,,,0,2,2,4,,,,,,,,,,,,,,,,,,,,,,4,1.851742600032594,4,0.3,0.3,10.81288,return,6.382707499957178,,,,,,,,,,,,,,,,,p302,22,female,up_down_width,2025-11-12_11h32.06.658,exp1,2023.1.0,60.012518608895434,
5,9,9.5,10,10.5,11,0.5,0.09999999999999998,0.4,2.4,10,9,9,9,9,9,,,,,,,,,,,,,,,,,,,,,,,,,,0,3,3,8,,,,,,,,,,,,,,,,,,,,,,4,1.5335996999638155,4,0.5,0.45,16.21932,return,2.0156318999943323,,,,,,,,,,,,,,,,,p302,22,female,up_down_width,2025-11-12_11h32.06.658,exp1,2023.1.0,60.012518608895434,
5,9.25,9.625,10,10.375,10.75,0.375,0.125,0.25,1.75,10,9,9,9,9,9,,,,,,,,,,,,,,,,,,,,,,,,,,0,4,4,6,,,,,,,,,,,,,,,,,,,,,,5,1.1221618000417948,5,0.2,0.15000000000000002,5.40644,return,2.8523990999674425,,,,,,,,,,,,,,,,,p302,22,female,up_down_width,2025-11-12_11h32.06.658,exp1,2023.1.0,60.012518608895434,
3,9,10,11,0,0,1,0.9,0.1,2.1,10,9,9,9,0,0,,,,,,,,,,,,,,,,,,,,,,,,,,0,5,5,1,,,,,,,,,,,,,,,,,,,,,,3,1.2631880000117235,3,0.25,0.10000000000000002,3.60429,return,2.47593890002463,,,,,,,,,,,,,,,,,p302,22,female,up_down_width,2025-11-12_11h32.06.658,exp1,2023.1.0,60.012518608895434,
3,8.2,10,11.8,0,0,1.7999999999999998,1.4,0.4,4,10,9,9,9,0,0,,,,,,,,,,,,,,,,,,,,,,,,,,0,6,6,2,,,,,,,,,,,,,,,,,,,,,,3,1.3496423999895342,3,0.45,0.4,14.41717,return,2.702385999960825,,,,,,,,,,,,,,,,,p302,22,female,up_down_width,2025-11-12_11h32.06.658,exp1,2023.1.0,60.012518608895434,
5,8.6,9.3,10,10.7,11.4,0.7,0.29999999999999993,0.4,3.1999999999999997,10,9,9,9,9,9,,,,,,,,,,,,,,,,,,,,,,,,,,0,7,7,7,,,,,,,,,,,,,,,,,,,,,,4,1.0397552999784239,4,0.2,0.25,9.01073,return,3.3968604000401683,,,,,,,,,,,,,,,,,p302,22,female,up_down_width,2025-11-12_11h32.06.658,exp1,2023.1.0,60.012518608895434,
3,9.5,10,10.5,0,0,0.5,0.4,0.1,1.1,10,9,9,9,0,0,,,,,,,,,,,,,,,,,,,,,,,,,,0,8,8,0,,,,,,,,,,,,,,,,,,,,,,3,0.8454086999990977,3,0.35,0.15000000000000002,5.40644,return,2.171883600007277,,,,,,,,,,,,,,,,,p302,22,female,up_down_width,2025-11-12_11h32.06.658,exp1,2023.1.0,60.012518608895434,
,,,,,,,,,,,,,,,,,,,,,,,,,,,,,,,,,,,,,,,,,,,,,,,,,,,,,,,,,,,,,,,,,,,,,,,,,,c,108.45141390000936,,,,,,,,,,,,,,,p302,22,female,up_down_width,2025-11-12_11h32.06.658,exp1,2023.1.0,60.012518608895434,
,,,,,,,,,,,,,,,,5,7.8,8.9,10,11.1,12.2,1.1,0.8500000000000001,0.25,4.65,10,initial,36.05,281,321,361,400,440,9,9,9,9,9,,,,,,,0,0,0,0,0,0,0,36,,,,,,,,,,,,,,5,1.1126365000382066,5,0.55,0.30000000000000004,10.81288,return,3.754083600011654,,,,,,,,,,,,,,,,,p302,22,female,up_down_width,2025-11-12_11h32.06.658,exp1,2023.1.0,60.012518608895434,
,,,,,,,,,,,,,,,,3,8.2,10,11.8,0,0,1.8,1.55,0.25,3.85,10,match,36.05,296,361,425,0,0,9,9,9,0,0,,,,,,,0,0,0,0,0,1,1,49,,,,,,,,,,,,,,3,0.9772511000046507,3,0.2,0.2,7.20859,return,1.3697724000085145,,,,,,,,,,,,,,,,,p302,22,female,up_down_width,2025-11-12_11h32.06.658,exp1,2023.1.0,60.012518608895434,
,,,,,,,,,,,,,,,,4,8.9,9.633333333333333,10.366666666666667,11.1,0,0.7333333333333333,0.18333333333333326,0.55,2.75,10,match,36.05,321,347,374,400,0,9,9,9,9,0,,,,,,,0,0,0,0,0,2,2,1,,,,,,,,,,,,,,4,0.8223122999770567,4,0.35,0.44999999999999996,16.21932,return,1.5707893000217155,,,,,,,,,,,,,,,,,p302,22,female,up_down_width,2025-11-12_11h32.06.658,exp1,2023.1.0,60.012518608895434,
,,,,,,,,,,,,,,,,5,8.65,9.325,10,10.675,11.35,0.675,0.275,0.4,3.1,10,match,36.05,312,336,361,385,409,9,9,9,9,9,,,,,,,0,0,0,0,0,3,3,33,,,,,,,,,,,,,,5,1.2723622999619693,5,0.45,0.35000000000000003,12.61502,return,1.875265999988187,,,,,,,,,,,,,,,,,p302,22,female,up_down_width,2025-11-12_11h32.06.658,exp1,2023.1.0,60.012518608895434,
,,,,,,,,,,,,,,,,4,8.65,9.55,10.45,11.35,0,0.9,0.35,0.55,3.25,10,initial,36.05,312,344,377,409,0,9,9,9,9,0,,,,,,,0,0,0,0,0,4,4,28,,,,,,,,,,,,,,4,0.976331299985759,4,0.45,0.45,16.21932,return,1.3347061999957077,,,,,,,,,,,,,,,,,p302,22,female,up_down_width,2025-11-12_11h32.06.658,exp1,2023.1.0,60.012518608895434,
,,,,,,,,,,,,,,,,5,8.65,9.325,10,10.675,11.35,0.675,0.42500000000000004,0.25,2.95,10,match,36.05,312,336,361,385,409,9,9,9,9,9,,,,,,,0,0,0,0,0,5,5,31,,,,,,,,,,,,,,5,0.9179378999979235,5,0.25,0.25,9.01073,return,1.3918657000176609,,,,,,,,,,,,,,,,,p302,22,female,up_down_width,2025-11-12_11h32.06.658,exp1,2023.1.0,60.012518608895434,
,,,,,,,,,,,,,,,,5,8.2,9.1,10,10.9,11.8,0.9,0.35,0.55,4.15,10,initial,36.05,296,328,361,393,425,9,9,9,9,9,,,,,,,0,0,0,0,0,6,6,46,,,,,,,,,,,,,,5,1.2409335999982432,5,0.25,0.39999999999999997,14.41717,return,2.7429035999812186,,,,,,,,,,,,,,,,,p302,22,female,up_down_width,2025-11-12_11h32.06.658,exp1,2023.1.0,60.012518608895434,
,,,,,,,,,,,,,,,,3,7.8,10,12.2,0,0,2.2,1.65,0.55,4.95,10,match,36.05,281,361,440,0,0,9,9,9,0,0,,,,,,,0,0,0,0,0,7,7,35,,,,,,,,,,,,,,3,0.9366821000003256,3,0.35,0.44999999999999996,16.21932,return,2.195344500010833,,,,,,,,,,,,,,,,,p302,22,female,up_down_width,2025-11-12_11h32.06.658,exp1,2023.1.0,60.012518608895434,
,,,,,,,,,,,,,,,,3,8.9,10,11.1,0,0,1.1,0.55,0.55,2.75,10,initial,36.05,321,361,400,0,0,9,9,9,0,0,,,,,,,0,0,0,0,0,8,8,0,,,,,,,,,,,,,,3,1.0743140999693424,3,0.5,0.45,16.21932,return,1.5426158999907784,,,,,,,,,,,,,,,,,p302,22,female,up_down_width,2025-11-12_11h32.06.658,exp1,2023.1.0,60.012518608895434,
,,,,,,,,,,,,,,,,5,8.275,9.1375,10,10.8625,11.725,0.8625,0.6125,0.25,3.7,10,match,36.05,298,329,361,392,423,9,9,9,9,9,,,,,,,0,0,0,0,0,9,9,22,,,,,,,,,,,,,,4,0.9336051999707706,4,0.5,0.30000000000000004,10.81288,return,1.599443000042811,,,,,,,,,,,,,,,,,p302,22,female,up_down_width,2025-11-12_11h32.06.658,exp1,2023.1.0,60.012518608895434,
,,,,,,,,,,,,,,,,3,8.9,10,11.1,0,0,1.1,0.8500000000000001,0.25,2.45,10,initial,36.05,321,361,400,0,0,9,9,9,0,0,,,,,,,0,0,0,0,0,10,10,2,,,,,,,,,,,,,,3,0.9455476999864914,3,0.45,0.25000000000000006,9.01073,return,2.4427352999919094,,,,,,,,,,,,,,,,,p302,22,female,up_down_width,2025-11-12_11h32.06.658,exp1,2023.1.0,60.012518608895434,
,,,,,,,,,,,,,,,,3,9.1,10,10.9,0,0,0.9,0.35,0.55,2.35,10,initial,36.05,328,361,393,0,0,9,9,9,0,0,,,,,,,0,0,0,0,0,11,11,11,,,,,,,,,,,,,,3,0.8570692000212148,3,0.35,0.44999999999999996,16.21932,return,2.11750310001662,,,,,,,,,,,,,,,,,p302,22,female,up_down_width,2025-11-12_11h32.06.658,exp1,2023.1.0,60.012518608895434,
,,,,,,,,,,,,,,,,4,8.95,9.65,10.35,11.05,0,0.7,0.1499999999999999,0.55,2.65,10,initial,36.05,323,348,373,398,0,9,9,9,9,0,,,,,,,0,0,0,0,0,12,12,23,,,,,,,,,,,,,,3,1.4915545000112616,3,0.5,0.5,18.02146,return,2.1829230999574065,,,,,,,,,,,,,,,,,p302,22,female,up_down_width,2025-11-12_11h32.06.658,exp1,2023.1.0,60.012518608895434,
,,,,,,,,,,,,,,,,4,9.1,9.7,10.3,10.9,0,0.6000000000000001,0.20000000000000004,0.4,2.2,10,match,36.05,328,350,371,393,0,9,9,9,9,0,,,,,,,0,0,0,0,0,13,13,16,,,,,,,,,,,,,,4,1.064631899993401,4,0.25,0.3,10.81288,return,1.9496512000332586,,,,,,,,,,,,,,,,,p302,22,female,up_down_width,2025-11-12_11h32.06.658,exp1,2023.1.0,60.012518608895434,
,,,,,,,,,,,,,,,,4,8.95,9.65,10.35,11.05,0,0.7,0.29999999999999993,0.4,2.5,10,initial,36.05,323,348,373,398,0,9,9,9,9,0,,,,,,,0,0,0,0,0,14,14,26,,,,,,,,,,,,,,5,1.4747016000328586,5,0.45,0.4,14.41717,return,2.16610380000202,,,,,,,,,,,,,,,,,p302,22,female,up_down_width,2025-11-12_11h32.06.658,exp1,2023.1.0,60.012518608895434,
,,,,,,,,,,,,,,,,5,8.2,9.1,10,10.9,11.8,0.9,0.5,0.4,4,10,initial,36.05,296,328,361,393,425,9,9,9,9,9,,,,,,,0,0,0,0,0,15,15,50,,,,,,,,,,,,,,5,0.9615865999949165,5,0.5,0.4,14.41717,return,1.7687986000091769,,,,,,,,,,,,,,,,,p302,22,female,up_down_width,2025-11-12_11h32.06.658,exp1,2023.1.0,60.012518608895434,
,,,,,,,,,,,,,,,,5,8.35,9.175,10,10.825,11.65,0.8250000000000001,0.275,0.55,3.85,10,match,36.05,301,331,361,390,420,9,9,9,9,9,,,,,,,0,0,0,0,0,16,16,18,,,,,,,,,,,,,,5,0.7897274999995716,5,0.4,0.4,14.41717,return,1.860901499981992,,,,,,,,,,,,,,,,,p302,22,female,up_down_width,2025-11-12_11h32.06.658,exp1,2023.1.0,60.012518608895434,
,,,,,,,,,,,,,,,,4,8.65,9.55,10.45,11.35,0,0.9,0.65,0.25,2.95,10,initial,36.05,312,344,377,409,0,9,9,9,9,0,,,,,,,0,0,0,0,0,17,17,30,,,,,,,,,,,,,,4,1.2387436000281014,4,0.25,0.2,7.20859,return,1.1401622000266798,,,,,,,,,,,,,,,,,p302,22,female,up_down_width,2025-11-12_11h32.06.658,exp1,2023.1.0,60.012518608895434,
,,,,,,,,,,,,,,,,4,8.35,9.45,10.55,11.65,0,1.1,0.7000000000000001,0.4,3.7,10,initial,36.05,301,341,380,420,0,9,9,9,9,0,,,,,,,0,0,0,0,0,18,18,21,,,,,,,,,,,,,,3,1.4320427000056952,3,0.3,0.35,12.61502,return,2.0462346999556758,,,,,,,,,,,,,,,,,p302,22,female,up_down_width,2025-11-12_11h32.06.658,exp1,2023.1.0,60.012518608895434,
,,,,,,,,,,,,,,,,4,9.3,9.766666666666667,10.233333333333333,10.7,0,0.4666666666666667,0.21666666666666665,0.25,1.65,10,match,36.05,335,352,369,386,0,9,9,9,9,0,,,,,,,0,0,0,0,0,19,19,8,,,,,,,,,,,,,,4,1.7418989000143483,4,0.45,0.30000000000000004,10.81288,return,1.8155402999836951,,,,,,,,,,,,,,,,,p302,22,female,up_down_width,2025-11-12_11h32.06.658,exp1,2023.1.0,60.012518608895434,
,,,,,,,,,,,,,,,,3,9.3,10,10.7,0,0,0.7,0.29999999999999993,0.4,1.8,10,initial,36.05,335,361,386,0,0,9,9,9,0,0,,,,,,,0,0,0,0,0,20,20,9,,,,,,,,,,,,,,3,1.1594994000042789,3,0.4,0.35000000000000003,12.61502,return,1.2074098999728449,,,,,,,,,,,,,,,,,p302,22,female,up_down_width,2025-11-12_11h32.06.658,exp1,2023.1.0,60.012518608895434,
,,,,,,,,,,,,,,,,5,8.6,9.3,10,10.7,11.4,0.7,0.1499999999999999,0.55,3.3499999999999996,10,initial,36.05,310,335,361,386,411,9,9,9,9,9,,,,,,,0,0,0,0,0,21,21,40,,,,,,,,,,,,,,4,1.4408541999873705,4,0.45,0.5,18.02146,return,2.0866272000130266,,,,,,,,,,,,,,,,,p302,22,female,up_down_width,2025-11-12_11h32.06.658,exp1,2023.1.0,60.012518608895434,
,,,,,,,,,,,,,,,,3,8.2,10,11.8,0,0,1.8,1.25,0.55,4.15,10,match,36.05,296,361,425,0,0,9,9,9,0,0,,,,,,,0,0,0,0,0,22,22,47,,,,,,,,,,,,,,3,1.0979423999669962,3,0.5,0.55,19.82361,return,1.773397799988743,,,,,,,,,,,,,,,,,p302,22,female,up_down_width,2025-11-12_11h32.06.658,exp1,2023.1.0,60.012518608895434,
,,,,,,,,,,,,,,,,3,8.2,10,11.8,0,0,1.7999999999999998,1.4,0.4,4,10,match,36.05,296,361,425,0,0,9,9,9,0,0,,,,,,,0,0,0,0,0,23,23,51,,,,,,,,,,,,,,3,1.1772835000301711,3,0.35,0.3,10.81288,return,3.9772670000093058,,,,,,,,,,,,,,,,,p302,22,female,up_down_width,2025-11-12_11h32.06.658,exp1,2023.1.0,60.012518608895434,
,,,,,,,,,,,,,,,,3,8.9,10,11.1,0,0,1.1,0.7000000000000001,0.4,2.6000000000000005,10,initial,36.05,321,361,400,0,0,9,9,9,0,0,,,,,,,0,0,0,0,0,24,24,4,,,,,,,,,,,,,,3,1.174555000034161,3,0.5,0.35000000000000003,12.61502,return,1.911563000001479,,,,,,,,,,,,,,,,,p302,22,female,up_down_width,2025-11-12_11h32.06.658,exp1,2023.1.0,60.012518608895434,
,,,,,,,,,,,,,,,,3,9.1,10,10.9,0,0,0.9,0.5,0.4,2.2,10,initial,36.05,328,361,393,0,0,9,9,9,0,0,,,,,,,0,0,0,0,0,25,25,15,,,,,,,,,,,,,,3,1.540075099968817,3,0.4,0.35000000000000003,12.61502,return,2.2606648999499157,,,,,,,,,,,,,,,,,p302,22,female,up_down_width,2025-11-12_11h32.06.658,exp1,2023.1.0,60.012518608895434,
,,,,,,,,,,,,,,,,3,7.800000000000001,10,12.2,0,0,2.1999999999999997,1.7999999999999998,0.4,4.8,10,match,36.05,281,361,440,0,0,9,9,9,0,0,,,,,,,0,0,0,0,0,26,26,39,,,,,,,,,,,,,,3,1.0367144999909215,3,0.2,0.35,12.61502,return,2.2908272999920882,,,,,,,,,,,,,,,,,p302,22,female,up_down_width,2025-11-12_11h32.06.658,exp1,2023.1.0,60.012518608895434,
,,,,,,,,,,,,,,,,5,8.6,9.3,10,10.7,11.4,0.7,0.29999999999999993,0.4,3.1999999999999997,10,initial,36.05,310,335,361,386,411,9,9,9,9,9,,,,,,,0,0,0,0,0,27,27,44,,,,,,,,,,,,,,5,1.4495397000573575,5,0.55,0.4,14.41717,return,1.7435397999943234,,,,,,,,,,,,,,,,,p302,22,female,up_down_width,2025-11-12_11h32.06.658,exp1,2023.1.0,60.012518608895434,
,,,,,,,,,,,,,,,,3,9.1,10,10.9,0,0,0.9,0.65,0.25,2.05,10,initial,36.05,328,361,393,0,0,9,9,9,0,0,,,,,,,0,0,0,0,0,28,28,13,,,,,,,,,,,,,,3,0.9712285000132397,3,0.25,0.25,9.01073,return,1.2830222999909893,,,,,,,,,,,,,,,,,p302,22,female,up_down_width,2025-11-12_11h32.06.658,exp1,2023.1.0,60.012518608895434,
,,,,,,,,,,,,,,,,4,8.95,9.65,10.35,11.05,0,0.7,0.44999999999999996,0.25,2.3499999999999996,10,initial,36.05,323,348,373,398,0,9,9,9,9,0,,,,,,,0,0,0,0,0,29,29,24,,,,,,,,,,,,,,4,1.7619772999896668,4,0.25,0.25,9.01073,return,1.4992760000168346,,,,,,,,,,,,,,,,,p302,22,female,up_down_width,2025-11-12_11h32.06.658,exp1,2023.1.0,60.012518608895434,
,,,,,,,,,,,,,,,,5,8.35,9.175,10,10.825,11.65,0.825,0.575,0.25,3.55,10,match,36.05,301,331,361,390,420,9,9,9,9,9,,,,,,,0,0,0,0,0,30,30,20,,,,,,,,,,,,,,5,0.7011384999495931,5,0.2,0.25,9.01073,return,2.0953964999644086,,,,,,,,,,,,,,,,,p302,22,female,up_down_width,2025-11-12_11h32.06.658,exp1,2023.1.0,60.012518608895434,
,,,,,,,,,,,,,,,,3,8.6,10,11.4,0,0,1.4,1.15,0.25,3.05,10,match,36.05,310,361,411,0,0,9,9,9,0,0,,,,,,,0,0,0,0,0,31,31,43,,,,,,,,,,,,,,3,0.7968121999874711,3,0.55,0.30000000000000004,10.81288,return,3.803390800021589,,,,,,,,,,,,,,,,,p302,22,female,up_down_width,2025-11-12_11h32.06.658,exp1,2023.1.0,60.012518608895434,
,,,,,,,,,,,,,,,,5,8.6,9.3,10,10.7,11.4,0.7,0.44999999999999996,0.25,3.05,10,initial,36.05,310,335,361,386,411,9,9,9,9,9,,,,,,,0,0,0,0,0,32,32,42,,,,,,,,,,,,,,5,1.2808298000018112,5,0.3,0.2,7.20859,return,1.2456133000086993,,,,,,,,,,,,,,,,,p302,22,female,up_down_width,2025-11-12_11h32.06.658,exp1,2023.1.0,60.012518608895434,
,,,,,,,,,,,,,,,,4,8.65,9.55,10.45,11.35,0,0.9,0.5,0.4,3.1,10,initial,36.05,312,344,377,409,0,9,9,9,9,0,,,,,,,0,0,0,0,0,33,33,32,,,,,,,,,,,,,,4,0.9195067000109702,4,0.45,0.35000000000000003,12.61502,return,1.7305842000059783,,,,,,,,,,,,,,,,,p302,22,female,up_down_width,2025-11-12_11h32.06.658,exp1,2023.1.0,60.012518608895434,
,,,,,,,,,,,,,,,,5,8.95,9.475,10,10.525,11.05,0.525,0.275,0.25,2.35,10,match,36.05,323,342,361,379,398,9,9,9,9,9,,,,,,,0,0,0,0,0,34,34,25,,,,,,,,,,,,,,5,0.649515200057067,5,0.25,0.25,9.01073,return,2.0155193000100553,,,,,,,,,,,,,,,,,p302,22,female,up_down_width,2025-11-12_11h32.06.658,exp1,2023.1.0,60.012518608895434,
,,,,,,,,,,,,,,,,4,8.35,9.45,10.55,11.65,0,1.1,0.55,0.55,3.8500000000000005,10,initial,36.05,301,341,380,420,0,9,9,9,9,0,,,,,,,0,0,0,0,0,35,35,17,,,,,,,,,,,,,,3,0.9995070999721065,3,0.2,0.49999999999999994,18.02146,return,1.9828912999946624,,,,,,,,,,,,,,,,,p302,22,female,up_down_width,2025-11-12_11h32.06.658,exp1,2023.1.0,60.012518608895434,
,,,,,,,,,,,,,,,,5,7.8,8.9,10,11.1,12.2,1.1,0.55,0.55,4.95,10,initial,36.05,281,321,361,400,440,9,9,9,9,9,,,,,,,0,0,0,0,0,36,36,34,,,,,,,,,,,,,,4,0.797801700013224,4,0.25,0.49999999999999994,18.02146,return,1.7566519000101835,,,,,,,,,,,,,,,,,p302,22,female,up_down_width,2025-11-12_11h32.06.658,exp1,2023.1.0,60.012518608895434,
,,,,,,,,,,,,,,,,5,8.95,9.475,10,10.525,11.05,0.525,0.125,0.4,2.5,10,match,36.05,323,342,361,379,398,9,9,9,9,9,,,,,,,0,0,0,0,0,37,37,27,,,,,,,,,,,,,,5,1.256015999999363,5,0.45,0.4,14.41717,return,1.5875459000235423,,,,,,,,,,,,,,,,,p302,22,female,up_down_width,2025-11-12_11h32.06.658,exp1,2023.1.0,60.012518608895434,
,,,,,,,,,,,,,,,,5,8.65,9.325,10,10.675,11.35,0.675,0.125,0.55,3.25,10,match,36.05,312,336,361,385,409,9,9,9,9,9,,,,,,,0,0,0,0,0,38,38,29,,,,,,,,,,,,,,4,1.2208812000462785,4,0.25,0.44999999999999996,16.21932,return,1.7798153000185266,,,,,,,,,,,,,,,,,p302,22,female,up_down_width,2025-11-12_11h32.06.658,exp1,2023.1.0,60.012518608895434,
,,,,,,,,,,,,,,,,5,8.2,9.1,10,10.9,11.8,0.9,0.65,0.25,3.85,10,initial,36.05,296,328,361,393,425,9,9,9,9,9,,,,,,,0,0,0,0,0,39,39,48,,,,,,,,,,,,,,5,1.1715926000033505,5,0.25,0.25,9.01073,return,2.0034689999883994,,,,,,,,,,,,,,,,,p302,22,female,up_down_width,2025-11-12_11h32.06.658,exp1,2023.1.0,60.012518608895434,
,,,,,,,,,,,,,,,,4,8.825,9.608333333333333,10.391666666666667,11.175,0,0.7833333333333333,0.5333333333333333,0.25,2.6,10,match,36.05,318,346,375,403,0,9,9,9,9,0,,,,,,,0,0,0,0,0,40,40,5,,,,,,,,,,,,,,4,0.7307610000134446,4,0.55,0.30000000000000004,10.81288,return,2.1565201000194065,,,,,,,,,,,,,,,,,p302,22,female,up_down_width,2025-11-12_11h32.06.658,exp1,2023.1.0,60.012518608895434,
,,,,,,,,,,,,,,,,3,7.8,10,12.2,0,0,2.2,1.9500000000000002,0.25,4.65,10,match,36.05,281,361,440,0,0,9,9,9,0,0,,,,,,,0,0,0,0,0,41,41,37,,,,,,,,,,,,,,3,1.0158926000003703,3,0.4,0.20000000000000007,7.20859,return,2.0615940000279807,,,,,,,,,,,,,,,,,p302,22,female,up_down_width,2025-11-12_11h32.06.658,exp1,2023.1.0,60.012518608895434,
,,,,,,,,,,,,,,,,3,9.3,10,10.7,0,0,0.7,0.1499999999999999,0.55,1.95,10,initial,36.05,335,361,386,0,0,9,9,9,0,0,,,,,,,0,0,0,0,0,42,42,6,,,,,,,,,,,,,,3,1.2349861999973655,3,0.25,0.44999999999999996,16.21932,return,1.8562927999882959,,,,,,,,,,,,,,,,,p302,22,female,up_down_width,2025-11-12_11h32.06.658,exp1,2023.1.0,60.012518608895434,
,,,,,,,,,,,,,,,,4,8.35,9.45,10.55,11.65,0,1.1,0.8500000000000001,0.25,3.5500000000000003,10,initial,36.05,301,341,380,420,0,9,9,9,9,0,,,,,,,0,0,0,0,0,43,43,19,,,,,,,,,,,,,,3,0.5575252000126056,3,0.5,0.25000000000000006,9.01073,return,2.1996558000100777,,,,,,,,,,,,,,,,,p302,22,female,up_down_width,2025-11-12_11h32.06.658,exp1,2023.1.0,60.012518608895434,
,,,,,,,,,,,,,,,,3,8.525,10,11.475,0,0,1.475,1.225,0.25,3.2,10,match,36.05,307,361,414,0,0,9,9,9,0,0,,,,,,,0,0,0,0,0,44,44,45,,,,,,,,,,,,,,3,0.9762386999791488,3,0.55,0.30000000000000004,10.81288,return,2.839534700033255,,,,,,,,,,,,,,,,,p302,22,female,up_down_width,2025-11-12_11h32.06.658,exp1,2023.1.0,60.012518608895434,
,,,,,,,,,,,,,,,,5,7.8,8.9,10,11.1,12.2,1.1,0.7000000000000001,0.4,4.800000000000001,10,initial,36.05,281,321,361,400,440,9,9,9,9,9,,,,,,,0,0,0,0,0,45,45,38,,,,,,,,,,,,,,4,0.6958831999800168,4,0.55,0.45,16.21932,return,1.8515383999911137,,,,,,,,,,,,,,,,,p302,22,female,up_down_width,2025-11-12_11h32.06.658,exp1,2023.1.0,60.012518608895434,
,,,,,,,,,,,,,,,,4,8.9,9.633333333333333,10.366666666666667,11.1,0,0.7333333333333334,0.4833333333333334,0.25,2.45,10,match,36.05,321,347,374,400,0,9,9,9,9,0,,,,,,,0,0,0,0,0,46,46,3,,,,,,,,,,,,,,3,1.1695380000164732,3,0.45,0.30000000000000004,10.81288,return,3.6175004999968223,,,,,,,,,,,,,,,,,p302,22,female,up_down_width,2025-11-12_11h32.06.658,exp1,2023.1.0,60.012518608895434,
,,,,,,,,,,,,,,,,4,9.1,9.7,10.3,10.9,0,0.6,0.04999999999999997,0.55,2.35,10,match,36.05,328,350,371,393,0,9,9,9,9,0,,,,,,,0,0,0,0,0,47,47,12,,,,,,,,,,,,,,4,1.0381997000076808,4,0.25,0.49999999999999994,18.02146,return,2.7239290000288747,,,,,,,,,,,,,,,,,p302,22,female,up_down_width,2025-11-12_11h32.06.658,exp1,2023.1.0,60.012518608895434,
,,,,,,,,,,,,,,,,4,9.1,9.7,10.3,10.9,0,0.5999999999999999,0.3499999999999999,0.25,2.05,10,match,36.05,328,350,371,393,0,9,9,9,9,0,,,,,,,0,0,0,0,0,48,48,14,,,,,,,,,,,,,,4,1.0178966999519616,4,0.45,0.35000000000000003,12.61502,return,1.39083730004495,,,,,,,,,,,,,,,,,p302,22,female,up_down_width,2025-11-12_11h32.06.658,exp1,2023.1.0,60.012518608895434,
,,,,,,,,,,,,,,,,3,9.3,10,10.7,0,0,0.7,0.44999999999999996,0.25,1.65,10,initial,36.05,335,361,386,0,0,9,9,9,0,0,,,,,,,0,0,0,0,0,49,49,7,,,,,,,,,,,,,,3,1.0766705999849364,3,0.2,0.25,9.01073,return,2.0582281000097282,,,,,,,,,,,,,,,,,p302,22,female,up_down_width,2025-11-12_11h32.06.658,exp1,2023.1.0,60.012518608895434,
,,,,,,,,,,,,,,,,4,9.3,9.766666666666667,10.233333333333333,10.7,0,0.4666666666666667,0.06666666666666665,0.4,1.8,10,match,36.05,335,352,369,386,0,9,9,9,9,0,,,,,,,0,0,0,0,0,50,50,10,,,,,,,,,,,,,,3,2.618408000038471,3,0.35,0.39999999999999997,14.41717,return,2.576059399987571,,,,,,,,,,,,,,,,,p302,22,female,up_down_width,2025-11-12_11h32.06.658,exp1,2023.1.0,60.012518608895434,
,,,,,,,,,,,,,,,,3,8.6,10,11.4,0,0,1.4,0.85,0.55,3.35,10,match,36.05,310,361,411,0,0,9,9,9,0,0,,,,,,,0,0,0,0,0,51,51,41,,,,,,,,,,,,,,3,0.8324882999877445,3,0.25,0.5499999999999999,19.82361,return,2.430242400034331,,,,,,,,,,,,,,,,,p302,22,female,up_down_width,2025-11-12_11h32.06.658,exp1,2023.1.0,60.012518608895434,
,,,,,,,,,,,,,,,,,,,,,,,,,,,,,,,,,,,,,,,,,,,,,0,0,0,0,,,,,,,,,,,,,,,,,,,,,,,,,,,,933.4979755000095,933.4979755000095,933.4979755000095,,,,,,,,,,,,p302,22,female,up_down_width,2025-11-12_11h32.06.658,exp1,2023.1.0,60.012518608895434,
,,,,,,,,,,,,,,,,3,8.9,10,11.1,0,0,1.1,0.8500000000000001,0.25,2.45,10,initial,36.05,321,361,400,0,0,9,9,9,0,0,,,,,,,1,0,1,0,0,0,0,2,,,,,,,,,,,,,,3,0.5467888000421226,3,0.5,0.25000000000000006,9.01073,return,2.0126926000230014,,,,,,,,,,,,,,,,,p302,22,female,up_down_width,2025-11-12_11h32.06.658,exp1,2023.1.0,60.012518608895434,
,,,,,,,,,,,,,,,,3,7.8,10,12.2,0,0,2.2,1.9500000000000002,0.25,4.65,10,match,36.05,281,361,440,0,0,9,9,9,0,0,,,,,,,1,0,1,0,0,1,1,37,,,,,,,,,,,,,,3,1.213693300029263,3,0.55,0.25000000000000006,9.01073,return,1.884234600001946,,,,,,,,,,,,,,,,,p302,22,female,up_down_width,2025-11-12_11h32.06.658,exp1,2023.1.0,60.012518608895434,
,,,,,,,,,,,,,,,,4,8.95,9.65,10.35,11.05,0,0.7,0.1499999999999999,0.55,2.65,10,initial,36.05,323,348,373,398,0,9,9,9,9,0,,,,,,,1,0,1,0,0,2,2,23,,,,,,,,,,,,,,3,0.8329795000026934,3,0.4,0.6000000000000001,21.62576,return,1.4876130999764428,,,,,,,,,,,,,,,,,p302,22,female,up_down_width,2025-11-12_11h32.06.658,exp1,2023.1.0,60.012518608895434,
,,,,,,,,,,,,,,,,3,9.1,10,10.9,0,0,0.9,0.5,0.4,2.2,10,initial,36.05,328,361,393,0,0,9,9,9,0,0,,,,,,,1,0,1,0,0,3,3,15,,,,,,,,,,,,,,3,0.8522523999563418,3,0.5,0.5,18.02146,return,1.2012184000341222,,,,,,,,,,,,,,,,,p302,22,female,up_down_width,2025-11-12_11h32.06.658,exp1,2023.1.0,60.012518608895434,
,,,,,,,,,,,,,,,,4,8.9,9.633333333333333,10.366666666666667,11.1,0,0.7333333333333334,0.4833333333333334,0.25,2.45,10,match,36.05,321,347,374,400,0,9,9,9,9,0,,,,,,,1,0,1,0,0,4,4,3,,,,,,,,,,,,,,4,1.0661575999693014,4,0.3,0.35,12.61502,return,1.583327999978792,,,,,,,,,,,,,,,,,p302,22,female,up_down_width,2025-11-12_11h32.06.658,exp1,2023.1.0,60.012518608895434,
,,,,,,,,,,,,,,,,5,8.65,9.325,10,10.675,11.35,0.675,0.275,0.4,3.1,10,match,36.05,312,336,361,385,409,9,9,9,9,9,,,,,,,1,0,1,0,0,5,5,33,,,,,,,,,,,,,,5,0.8140866999747232,5,0.45,0.4,14.41717,return,1.18092399998568,,,,,,,,,,,,,,,,,p302,22,female,up_down_width,2025-11-12_11h32.06.658,exp1,2023.1.0,60.012518608895434,
,,,,,,,,,,,,,,,,4,9.3,9.766666666666667,10.233333333333333,10.7,0,0.4666666666666667,0.06666666666666665,0.4,1.8,10,match,36.05,335,352,369,386,0,9,9,9,9,0,,,,,,,1,0,1,0,0,6,6,10,,,,,,,,,,,,,,4,0.8041147000039928,4,0.35,0.39999999999999997,14.41717,return,1.395611000014469,,,,,,,,,,,,,,,,,p302,22,female,up_down_width,2025-11-12_11h32.06.658,exp1,2023.1.0,60.012518608895434,
,,,,,,,,,,,,,,,,3,8.525,10,11.475,0,0,1.475,1.225,0.25,3.2,10,match,36.05,307,361,414,0,0,9,9,9,0,0,,,,,,,1,0,1,0,0,7,7,45,,,,,,,,,,,,,,3,0.5414583000238054,3,0.5,0.25000000000000006,9.01073,return,1.7359861000441015,,,,,,,,,,,,,,,,,p302,22,female,up_down_width,2025-11-12_11h32.06.658,exp1,2023.1.0,60.012518608895434,
,,,,,,,,,,,,,,,,4,8.35,9.45,10.55,11.65,0,1.1,0.7000000000000001,0.4,3.7,10,initial,36.05,301,341,380,420,0,9,9,9,9,0,,,,,,,1,0,1,0,0,8,8,21,,,,,,,,,,,,,,3,0.6606251000193879,3,0.35,0.39999999999999997,14.41717,return,1.1298610999947414,,,,,,,,,,,,,,,,,p302,22,female,up_down_width,2025-11-12_11h32.06.658,exp1,2023.1.0,60.012518608895434,
,,,,,,,,,,,,,,,,4,8.65,9.55,10.45,11.35,0,0.9,0.5,0.4,3.1,10,initial,36.05,312,344,377,409,0,9,9,9,9,0,,,,,,,1,0,1,0,0,9,9,32,,,,,,,,,,,,,,4,0.5020908999722451,4,0.35,0.35,12.61502,return,0.8806261999998242,,,,,,,,,,,,,,,,,p302,22,female,up_down_width,2025-11-12_11h32.06.658,exp1,2023.1.0,60.012518608895434,
,,,,,,,,,,,,,,,,3,9.1,10,10.9,0,0,0.9,0.65,0.25,2.05,10,initial,36.05,328,361,393,0,0,9,9,9,0,0,,,,,,,1,0,1,0,0,10,10,13,,,,,,,,,,,,,,3,0.7312104000011459,3,0.4,0.30000000000000004,10.81288,return,2.332532699976582,,,,,,,,,,,,,,,,,p302,22,female,up_down_width,2025-11-12_11h32.06.658,exp1,2023.1.0,60.012518608895434,
,,,,,,,,,,,,,,,,3,8.2,10,11.8,0,0,1.8,1.55,0.25,3.85,10,match,36.05,296,361,425,0,0,9,9,9,0,0,,,,,,,1,0,1,0,0,11,11,49,,,,,,,,,,,,,,3,0.48079270002199337,3,0.3,0.25,9.01073,return,1.148465100035537,,,,,,,,,,,,,,,,,p302,22,female,up_down_width,2025-11-12_11h32.06.658,exp1,2023.1.0,60.012518608895434,
,,,,,,,,,,,,,,,,5,8.35,9.175,10,10.825,11.65,0.8250000000000001,0.275,0.55,3.85,10,match,36.05,301,331,361,390,420,9,9,9,9,9,,,,,,,1,0,1,0,0,12,12,18,,,,,,,,,,,,,,4,0.535163399996236,4,0.35,0.39999999999999997,14.41717,return,1.3296089000068605,,,,,,,,,,,,,,,,,p302,22,female,up_down_width,2025-11-12_11h32.06.658,exp1,2023.1.0,60.012518608895434,
,,,,,,,,,,,,,,,,4,8.35,9.45,10.55,11.65,0,1.1,0.8500000000000001,0.25,3.5500000000000003,10,initial,36.05,301,341,380,420,0,9,9,9,9,0,,,,,,,1,0,1,0,0,13,13,19,,,,,,,,,,,,,,4,0.7973153000348248,4,0.35,0.25,9.01073,return,1.8999911000137217,,,,,,,,,,,,,,,,,p302,22,female,up_down_width,2025-11-12_11h32.06.658,exp1,2023.1.0,60.012518608895434,
,,,,,,,,,,,,,,,,4,9.1,9.7,10.3,10.9,0,0.6000000000000001,0.20000000000000004,0.4,2.2,10,match,36.05,328,350,371,393,0,9,9,9,9,0,,,,,,,1,0,1,0,0,14,14,16,,,,,,,,,,,,,,4,0.7076864000409842,4,0.55,0.45,16.21932,return,1.5582886000047438,,,,,,,,,,,,,,,,,p302,22,female,up_down_width,2025-11-12_11h32.06.658,exp1,2023.1.0,60.012518608895434,
,,,,,,,,,,,,,,,,5,8.2,9.1,10,10.9,11.8,0.9,0.5,0.4,4,10,initial,36.05,296,328,361,393,425,9,9,9,9,9,,,,,,,1,0,1,0,0,15,15,50,,,,,,,,,,,,,,3,1.2901390000479296,3,0.4,0.35000000000000003,12.61502,return,2.2469451000215486,,,,,,,,,,,,,,,,,p302,22,female,up_down_width,2025-11-12_11h32.06.658,exp1,2023.1.0,60.012518608895434,
,,,,,,,,,,,,,,,,3,7.8,10,12.2,0,0,2.2,1.65,0.55,4.95,10,match,36.05,281,361,440,0,0,9,9,9,0,0,,,,,,,1,0,1,0,0,16,16,35,,,,,,,,,,,,,,3,0.5688643000321463,3,0.3,0.44999999999999996,16.21932,return,1.7622117000282742,,,,,,,,,,,,,,,,,p302,22,female,up_down_width,2025-11-12_11h32.06.658,exp1,2023.1.0,60.012518608895434,
,,,,,,,,,,,,,,,,4,9.3,9.766666666666667,10.233333333333333,10.7,0,0.4666666666666667,0.21666666666666665,0.25,1.65,10,match,36.05,335,352,369,386,0,9,9,9,9,0,,,,,,,1,0,1,0,0,17,17,8,,,,,,,,,,,,,,4,0.7080530999810435,4,0.55,0.35000000000000003,12.61502,return,1.799359500000719,,,,,,,,,,,,,,,,,p302,22,female,up_down_width,2025-11-12_11h32.06.658,exp1,2023.1.0,60.012518608895434,
,,,,,,,,,,,,,,,,3,8.2,10,11.8,0,0,1.8,1.25,0.55,4.15,10,match,36.05,296,361,425,0,0,9,9,9,0,0,,,,,,,1,0,1,0,0,18,18,47,,,,,,,,,,,,,,3,0.6039492000127211,3,0.45,0.55,19.82361,return,1.315203999984078,,,,,,,,,,,,,,,,,p302,22,female,up_down_width,2025-11-12_11h32.06.658,exp1,2023.1.0,60.012518608895434,
,,,,,,,,,,,,,,,,3,9.3,10,10.7,0,0,0.7,0.29999999999999993,0.4,1.8,10,initial,36.05,335,361,386,0,0,9,9,9,0,0,,,,,,,1,0,1,0,0,19,19,9,,,,,,,,,,,,,,3,0.7641515000141226,3,0.35,0.3,10.81288,return,1.067531600012444,,,,,,,,,,,,,,,,,p302,22,female,up_down_width,2025-11-12_11h32.06.658,exp1,2023.1.0,60.012518608895434,
,,,,,,,,,,,,,,,,4,8.825,9.608333333333333,10.391666666666667,11.175,0,0.7833333333333333,0.5333333333333333,0.25,2.6,10,match,36.05,318,346,375,403,0,9,9,9,9,0,,,,,,,1,0,1,0,0,20,20,5,,,,,,,,,,,,,,4,0.5394721000338905,4,0.2,0.2,7.20859,return,0.899483599991072,,,,,,,,,,,,,,,,,p302,22,female,up_down_width,2025-11-12_11h32.06.658,exp1,2023.1.0,60.012518608895434,
,,,,,,,,,,,,,,,,4,8.95,9.65,10.35,11.05,0,0.7,0.29999999999999993,0.4,2.5,10,initial,36.05,323,348,373,398,0,9,9,9,9,0,,,,,,,1,0,1,0,0,21,21,26,,,,,,,,,,,,,,4,0.502803799987305,4,0.25,0.3,10.81288,return,1.1862920999992639,,,,,,,,,,,,,,,,,p302,22,female,up_down_width,2025-11-12_11h32.06.658,exp1,2023.1.0,60.012518608895434,
,,,,,,,,,,,,,,,,5,8.275,9.1375,10,10.8625,11.725,0.8625,0.6125,0.25,3.7,10,match,36.05,298,329,361,392,423,9,9,9,9,9,,,,,,,1,0,1,0,0,22,22,22,,,,,,,,,,,,,,5,0.7615921999677084,5,0.25,0.25,9.01073,return,0.9227671999833547,,,,,,,,,,,,,,,,,p302,22,female,up_down_width,2025-11-12_11h32.06.658,exp1,2023.1.0,60.012518608895434,
,,,,,,,,,,,,,,,,5,7.8,8.9,10,11.1,12.2,1.1,0.55,0.55,4.95,10,initial,36.05,281,321,361,400,440,9,9,9,9,9,,,,,,,1,0,1,0,0,23,23,34,,,,,,,,,,,,,,5,0.7825764999724925,5,0.5,0.35000000000000003,12.61502,return,1.694917999964673,,,,,,,,,,,,,,,,,p302,22,female,up_down_width,2025-11-12_11h32.06.658,exp1,2023.1.0,60.012518608895434,
,,,,,,,,,,,,,,,,5,8.65,9.325,10,10.675,11.35,0.675,0.125,0.55,3.25,10,match,36.05,312,336,361,385,409,9,9,9,9,9,,,,,,,1,0,1,0,0,24,24,29,,,,,,,,,,,,,,4,0.7442189999856055,4,0.5,0.45,16.21932,return,1.0326846999814734,,,,,,,,,,,,,,,,,p302,22,female,up_down_width,2025-11-12_11h32.06.658,exp1,2023.1.0,60.012518608895434,
,,,,,,,,,,,,,,,,3,8.9,10,11.1,0,0,1.1,0.55,0.55,2.75,10,initial,36.05,321,361,400,0,0,9,9,9,0,0,,,,,,,1,0,1,0,0,25,25,0,,,,,,,,,,,,,,3,0.4823852999834344,3,0.3,0.44999999999999996,16.21932,return,1.5674823999870569,,,,,,,,,,,,,,,,,p302,22,female,up_down_width,2025-11-12_11h32.06.658,exp1,2023.1.0,60.012518608895434,
,,,,,,,,,,,,,,,,3,9.3,10,10.7,0,0,0.7,0.44999999999999996,0.25,1.65,10,initial,36.05,335,361,386,0,0,9,9,9,0,0,,,,,,,1,0,1,0,0,26,26,7,,,,,,,,,,,,,,3,0.5480984000023454,3,0.35,0.35,12.61502,return,1.0530275999917649,,,,,,,,,,,,,,,,,p302,22,female,up_down_width,2025-11-12_11h32.06.658,exp1,2023.1.0,60.012518608895434,
,,,,,,,,,,,,,,,,5,8.65,9.325,10,10.675,11.35,0.675,0.42500000000000004,0.25,2.95,10,match,36.05,312,336,361,385,409,9,9,9,9,9,,,,,,,1,0,1,0,0,27,27,31,,,,,,,,,,,,,,5,1.0114482999779284,5,0.35,0.35,12.61502,return,0.8268397999927402,,,,,,,,,,,,,,,,,p302,22,female,up_down_width,2025-11-12_11h32.06.658,exp1,2023.1.0,60.012518608895434,
,,,,,,,,,,,,,,,,4,8.95,9.65,10.35,11.05,0,0.7,0.44999999999999996,0.25,2.3499999999999996,10,initial,36.05,323,348,373,398,0,9,9,9,9,0,,,,,,,1,0,1,0,0,28,28,24,,,,,,,,,,,,,,4,0.4655387999955565,4,0.55,0.35000000000000003,12.61502,return,1.8062736000283621,,,,,,,,,,,,,,,,,p302,22,female,up_down_width,2025-11-12_11h32.06.658,exp1,2023.1.0,60.012518608895434,
,,,,,,,,,,,,,,,,3,9.3,10,10.7,0,0,0.7,0.1499999999999999,0.55,1.95,10,initial,36.05,335,361,386,0,0,9,9,9,0,0,,,,,,,1,0,1,0,0,29,29,6,,,,,,,,,,,,,,3,0.8796752000343986,3,0.5,0.5,18.02146,return,1.3395715999649838,,,,,,,,,,,,,,,,,p302,22,female,up_down_width,2025-11-12_11h32.06.658,exp1,2023.1.0,60.012518608895434,
,,,,,,,,,,,,,,,,4,8.65,9.55,10.45,11.35,0,0.9,0.65,0.25,2.95,10,initial,36.05,312,344,377,409,0,9,9,9,9,0,,,,,,,1,0,1,0,0,30,30,30,,,,,,,,,,,,,,4,0.6969533999799751,4,0.25,0.25,9.01073,return,0.9249911000370048,,,,,,,,,,,,,,,,,p302,22,female,up_down_width,2025-11-12_11h32.06.658,exp1,2023.1.0,60.012518608895434,
,,,,,,,,,,,,,,,,5,8.6,9.3,10,10.7,11.4,0.7,0.44999999999999996,0.25,3.05,10,initial,36.05,310,335,361,386,411,9,9,9,9,9,,,,,,,1,0,1,0,0,31,31,42,,,,,,,,,,,,,,5,0.6854950999841094,5,0.45,0.25000000000000006,9.01073,return,2.9302836999995634,,,,,,,,,,,,,,,,,p302,22,female,up_down_width,2025-11-12_11h32.06.658,exp1,2023.1.0,60.012518608895434,
,,,,,,,,,,,,,,,,5,7.8,8.9,10,11.1,12.2,1.1,0.8500000000000001,0.25,4.65,10,initial,36.05,281,321,361,400,440,9,9,9,9,9,,,,,,,1,0,1,0,0,32,32,36,,,,,,,,,,,,,,5,0.892786500044167,5,0.45,0.25000000000000006,9.01073,return,1.3688388000009581,,,,,,,,,,,,,,,,,p302,22,female,up_down_width,2025-11-12_11h32.06.658,exp1,2023.1.0,60.012518608895434,
,,,,,,,,,,,,,,,,3,8.9,10,11.1,0,0,1.1,0.7000000000000001,0.4,2.6000000000000005,10,initial,36.05,321,361,400,0,0,9,9,9,0,0,,,,,,,1,0,1,0,0,33,33,4,,,,,,,,,,,,,,3,0.5808671000413597,3,0.3,0.25,9.01073,return,0.8447333000367507,,,,,,,,,,,,,,,,,p302,22,female,up_down_width,2025-11-12_11h32.06.658,exp1,2023.1.0,60.012518608895434,
,,,,,,,,,,,,,,,,3,8.6,10,11.4,0,0,1.4,0.85,0.55,3.35,10,match,36.05,310,361,411,0,0,9,9,9,0,0,,,,,,,1,0,1,0,0,34,34,41,,,,,,,,,,,,,,3,0.764667899988126,3,0.55,0.5,18.02146,return,1.3895213000359945,,,,,,,,,,,,,,,,,p302,22,female,up_down_width,2025-11-12_11h32.06.658,exp1,2023.1.0,60.012518608895434,
,,,,,,,,,,,,,,,,5,8.95,9.475,10,10.525,11.05,0.525,0.125,0.4,2.5,10,match,36.05,323,342,361,379,398,9,9,9,9,9,,,,,,,1,0,1,0,0,35,35,27,,,,,,,,,,,,,,5,0.8085373000358231,5,0.35,0.3,10.81288,return,0.9673356999992393,,,,,,,,,,,,,,,,,p302,22,female,up_down_width,2025-11-12_11h32.06.658,exp1,2023.1.0,60.012518608895434,
,,,,,,,,,,,,,,,,4,8.9,9.633333333333333,10.366666666666667,11.1,0,0.7333333333333333,0.18333333333333326,0.55,2.75,10,match,36.05,321,347,374,400,0,9,9,9,9,0,,,,,,,1,0,1,0,0,36,36,1,,,,,,,,,,,,,,3,0.5845778999500908,3,0.55,0.55,19.82361,return,0.8476115000084974,,,,,,,,,,,,,,,,,p302,22,female,up_down_width,2025-11-12_11h32.06.658,exp1,2023.1.0,60.012518608895434,
,,,,,,,,,,,,,,,,3,9.1,10,10.9,0,0,0.9,0.35,0.55,2.35,10,initial,36.05,328,361,393,0,0,9,9,9,0,0,,,,,,,1,0,1,0,0,37,37,11,,,,,,,,,,,,,,3,0.7345034999889322,3,0.25,0.5499999999999999,19.82361,return,1.951219599985052,,,,,,,,,,,,,,,,,p302,22,female,up_down_width,2025-11-12_11h32.06.658,exp1,2023.1.0,60.012518608895434,
,,,,,,,,,,,,,,,,5,8.2,9.1,10,10.9,11.8,0.9,0.35,0.55,4.15,10,initial,36.05,296,328,361,393,425,9,9,9,9,9,,,,,,,1,0,1,0,0,38,38,46,,,,,,,,,,,,,,5,1.0581641999888234,5,0.4,0.55,19.82361,return,1.3359501999802887,,,,,,,,,,,,,,,,,p302,22,female,up_down_width,2025-11-12_11h32.06.658,exp1,2023.1.0,60.012518608895434,
,,,,,,,,,,,,,,,,5,8.2,9.1,10,10.9,11.8,0.9,0.65,0.25,3.85,10,initial,36.05,296,328,361,393,425,9,9,9,9,9,,,,,,,1,0,1,0,0,39,39,48,,,,,,,,,,,,,,5,1.3660238000447862,5,0.5,0.25000000000000006,9.01073,return,1.8851213000016287,,,,,,,,,,,,,,,,,p302,22,female,up_down_width,2025-11-12_11h32.06.658,exp1,2023.1.0,60.012518608895434,
,,,,,,,,,,,,,,,,5,7.8,8.9,10,11.1,12.2,1.1,0.7000000000000001,0.4,4.800000000000001,10,initial,36.05,281,321,361,400,440,9,9,9,9,9,,,,,,,1,0,1,0,0,40,40,38,,,,,,,,,,,,,,5,1.0873542000190355,5,0.2,0.35,12.61502,return,1.330198899959214,,,,,,,,,,,,,,,,,p302,22,female,up_down_width,2025-11-12_11h32.06.658,exp1,2023.1.0,60.012518608895434,
,,,,,,,,,,,,,,,,3,8.6,10,11.4,0,0,1.4,1.15,0.25,3.05,10,match,36.05,310,361,411,0,0,9,9,9,0,0,,,,,,,1,0,1,0,0,41,41,43,,,,,,,,,,,,,,3,0.4541036000009626,3,0.25,0.25,9.01073,return,0.9793755999999121,,,,,,,,,,,,,,,,,p302,22,female,up_down_width,2025-11-12_11h32.06.658,exp1,2023.1.0,60.012518608895434,
,,,,,,,,,,,,,,,,3,7.800000000000001,10,12.2,0,0,2.1999999999999997,1.7999999999999998,0.4,4.8,10,match,36.05,281,361,440,0,0,9,9,9,0,0,,,,,,,1,0,1,0,0,42,42,39,,,,,,,,,,,,,,3,0.5627916000084952,3,0.35,0.3,10.81288,return,1.8040426000370644,,,,,,,,,,,,,,,,,p302,22,female,up_down_width,2025-11-12_11h32.06.658,exp1,2023.1.0,60.012518608895434,
,,,,,,,,,,,,,,,,4,8.35,9.45,10.55,11.65,0,1.1,0.55,0.55,3.8500000000000005,10,initial,36.05,301,341,380,420,0,9,9,9,9,0,,,,,,,1,0,1,0,0,43,43,17,,,,,,,,,,,,,,3,1.0509371000225656,3,0.5,0.5,18.02146,return,2.831486400042195,,,,,,,,,,,,,,,,,p302,22,female,up_down_width,2025-11-12_11h32.06.658,exp1,2023.1.0,60.012518608895434,
,,,,,,,,,,,,,,,,5,8.95,9.475,10,10.525,11.05,0.525,0.275,0.25,2.35,10,match,36.05,323,342,361,379,398,9,9,9,9,9,,,,,,,1,0,1,0,0,44,44,25,,,,,,,,,,,,,,5,0.7727926000370644,5,0.45,0.20000000000000007,7.20859,return,1.7322062000166625,,,,,,,,,,,,,,,,,p302,22,female,up_down_width,2025-11-12_11h32.06.658,exp1,2023.1.0,60.012518608895434,
,,,,,,,,,,,,,,,,5,8.35,9.175,10,10.825,11.65,0.825,0.575,0.25,3.55,10,match,36.05,301,331,361,390,420,9,9,9,9,9,,,,,,,1,0,1,0,0,45,45,20,,,,,,,,,,,,,,5,0.9993136000121012,5,0.2,0.2,7.20859,return,1.2780179000110365,,,,,,,,,,,,,,,,,p302,22,female,up_down_width,2025-11-12_11h32.06.658,exp1,2023.1.0,60.012518608895434,
,,,,,,,,,,,,,,,,5,8.6,9.3,10,10.7,11.4,0.7,0.1499999999999999,0.55,3.3499999999999996,10,initial,36.05,310,335,361,386,411,9,9,9,9,9,,,,,,,1,0,1,0,0,46,46,40,,,,,,,,,,,,,,4,1.192581599985715,4,0.25,0.39999999999999997,14.41717,return,1.3510479999822564,,,,,,,,,,,,,,,,,p302,22,female,up_down_width,2025-11-12_11h32.06.658,exp1,2023.1.0,60.012518608895434,
,,,,,,,,,,,,,,,,5,8.6,9.3,10,10.7,11.4,0.7,0.29999999999999993,0.4,3.1999999999999997,10,initial,36.05,310,335,361,386,411,9,9,9,9,9,,,,,,,1,0,1,0,0,47,47,44,,,,,,,,,,,,,,5,0.5813207000028342,5,0.25,0.3,10.81288,return,1.1329021999845281,,,,,,,,,,,,,,,,,p302,22,female,up_down_width,2025-11-12_11h32.06.658,exp1,2023.1.0,60.012518608895434,
,,,,,,,,,,,,,,,,4,8.65,9.55,10.45,11.35,0,0.9,0.35,0.55,3.25,10,initial,36.05,312,344,377,409,0,9,9,9,9,0,,,,,,,1,0,1,0,0,48,48,28,,,,,,,,,,,,,,3,0.6203020000248216,3,0.45,0.5,18.02146,return,0.9952880999771878,,,,,,,,,,,,,,,,,p302,22,female,up_down_width,2025-11-12_11h32.06.658,exp1,2023.1.0,60.012518608895434,
,,,,,,,,,,,,,,,,3,8.2,10,11.8,0,0,1.7999999999999998,1.4,0.4,4,10,match,36.05,296,361,425,0,0,9,9,9,0,0,,,,,,,1,0,1,0,0,49,49,51,,,,,,,,,,,,,,3,0.4440860999748111,3,0.2,0.35,12.61502,return,1.9456901000230573,,,,,,,,,,,,,,,,,p302,22,female,up_down_width,2025-11-12_11h32.06.658,exp1,2023.1.0,60.012518608895434,
,,,,,,,,,,,,,,,,4,9.1,9.7,10.3,10.9,0,0.5999999999999999,0.3499999999999999,0.25,2.05,10,match,36.05,328,350,371,393,0,9,9,9,9,0,,,,,,,1,0,1,0,0,50,50,14,,,,,,,,,,,,,,4,0.4513151000137441,4,0.4,0.25000000000000006,9.01073,return,1.32684789999621,,,,,,,,,,,,,,,,,p302,22,female,up_down_width,2025-11-12_11h32.06.658,exp1,2023.1.0,60.012518608895434,
,,,,,,,,,,,,,,,,4,9.1,9.7,10.3,10.9,0,0.6,0.04999999999999997,0.55,2.35,10,match,36.05,328,350,371,393,0,9,9,9,9,0,,,,,,,1,0,1,0,0,51,51,12,,,,,,,,,,,,,,4,0.8511553999851458,4,0.5,0.5,18.02146,return,1.0408245000289753,,,,,,,,,,,,,,,,,p302,22,female,up_down_width,2025-11-12_11h32.06.658,exp1,2023.1.0,60.012518608895434,
,,,,,,,,,,,,,,,,,,,,,,,,,,,,,,,,,,,,,,,,,,,,,1,0,1,0,,,,,,,,,,,,,,,,,,,,,,,,,,,,1163.2479397999705,1163.2479397999705,1163.2479397999705,,,,,,,,,,,,p302,22,female,up_down_width,2025-11-12_11h32.06.658,exp1,2023.1.0,60.012518608895434,
,,,,,,,,,,,,,,,,5,8.65,9.325,10,10.675,11.35,0.675,0.42500000000000004,0.25,2.95,10,match,36.05,312,336,361,385,409,9,9,9,9,9,,,,,,,2,0,2,0,0,0,0,31,,,,,,,,,,,,,,5,0.9723092999774963,5,0.2,0.2,7.20859,return,1.8447486000368372,,,,,,,,,,,,,,,,,p302,22,female,up_down_width,2025-11-12_11h32.06.658,exp1,2023.1.0,60.012518608895434,
,,,,,,,,,,,,,,,,4,8.9,9.633333333333333,10.366666666666667,11.1,0,0.7333333333333333,0.18333333333333326,0.55,2.75,10,match,36.05,321,347,374,400,0,9,9,9,9,0,,,,,,,2,0,2,0,0,1,1,1,,,,,,,,,,,,,,4,0.4975222999928519,4,0.5,0.5,18.02146,return,1.149661000003107,,,,,,,,,,,,,,,,,p302,22,female,up_down_width,2025-11-12_11h32.06.658,exp1,2023.1.0,60.012518608895434,
,,,,,,,,,,,,,,,,3,7.8,10,12.2,0,0,2.2,1.9500000000000002,0.25,4.65,10,match,36.05,281,361,440,0,0,9,9,9,0,0,,,,,,,2,0,2,0,0,2,2,37,,,,,,,,,,,,,,3,0.6414324000361376,3,0.4,0.20000000000000007,7.20859,return,1.2238718000007793,,,,,,,,,,,,,,,,,p302,22,female,up_down_width,2025-11-12_11h32.06.658,exp1,2023.1.0,60.012518608895434,
,,,,,,,,,,,,,,,,5,8.2,9.1,10,10.9,11.8,0.9,0.65,0.25,3.85,10,initial,36.05,296,328,361,393,425,9,9,9,9,9,,,,,,,2,0,2,0,0,3,3,48,,,,,,,,,,,,,,5,0.7428439999930561,5,0.5,0.25000000000000006,9.01073,return,1.3695823000161909,,,,,,,,,,,,,,,,,p302,22,female,up_down_width,2025-11-12_11h32.06.658,exp1,2023.1.0,60.012518608895434,
,,,,,,,,,,,,,,,,3,8.9,10,11.1,0,0,1.1,0.55,0.55,2.75,10,initial,36.05,321,361,400,0,0,9,9,9,0,0,,,,,,,2,0,2,0,0,4,4,0,,,,,,,,,,,,,,3,0.6441714999964461,3,0.2,0.44999999999999996,16.21932,return,1.4499572000349872,,,,,,,,,,,,,,,,,p302,22,female,up_down_width,2025-11-12_11h32.06.658,exp1,2023.1.0,60.012518608895434,
,,,,,,,,,,,,,,,,3,7.800000000000001,10,12.2,0,0,2.1999999999999997,1.7999999999999998,0.4,4.8,10,match,36.05,281,361,440,0,0,9,9,9,0,0,,,,,,,2,0,2,0,0,5,5,39,,,,,,,,,,,,,,3,0.5797398000140674,3,0.2,0.3,10.81288,return,1.3083653999492526,,,,,,,,,,,,,,,,,p302,22,female,up_down_width,2025-11-12_11h32.06.658,exp1,2023.1.0,60.012518608895434,
,,,,,,,,,,,,,,,,4,8.35,9.45,10.55,11.65,0,1.1,0.55,0.55,3.8500000000000005,10,initial,36.05,301,341,380,420,0,9,9,9,9,0,,,,,,,2,0,2,0,0,6,6,17,,,,,,,,,,,,,,3,0.5382983000017703,3,0.55,0.5,18.02146,return,1.7325975999701768,,,,,,,,,,,,,,,,,p302,22,female,up_down_width,2025-11-12_11h32.06.658,exp1,2023.1.0,60.012518608895434,
,,,,,,,,,,,,,,,,5,8.2,9.1,10,10.9,11.8,0.9,0.35,0.55,4.15,10,initial,36.05,296,328,361,393,425,9,9,9,9,9,,,,,,,2,0,2,0,0,7,7,46,,,,,,,,,,,,,,5,0.6889020000235178,5,0.2,0.49999999999999994,18.02146,return,1.797305099957157,,,,,,,,,,,,,,,,,p302,22,female,up_down_width,2025-11-12_11h32.06.658,exp1,2023.1.0,60.012518608895434,
,,,,,,,,,,,,,,,,5,8.95,9.475,10,10.525,11.05,0.525,0.275,0.25,2.35,10,match,36.05,323,342,361,379,398,9,9,9,9,9,,,,,,,2,0,2,0,0,8,8,25,,,,,,,,,,,,,,5,0.790062999993097,5,0.2,0.2,7.20859,return,1.2226672999677248,,,,,,,,,,,,,,,,,p302,22,female,up_down_width,2025-11-12_11h32.06.658,exp1,2023.1.0,60.012518608895434,
,,,,,,,,,,,,,,,,4,8.825,9.608333333333333,10.391666666666667,11.175,0,0.7833333333333333,0.5333333333333333,0.25,2.6,10,match,36.05,318,346,375,403,0,9,9,9,9,0,,,,,,,2,0,2,0,0,9,9,5,,,,,,,,,,,,,,4,0.5195889000315219,4,0.3,0.2,7.20859,return,1.0258517999900505,,,,,,,,,,,,,,,,,p302,22,female,up_down_width,2025-11-12_11h32.06.658,exp1,2023.1.0,60.012518608895434,
,,,,,,,,,,,,,,,,5,8.65,9.325,10,10.675,11.35,0.675,0.275,0.4,3.1,10,match,36.05,312,336,361,385,409,9,9,9,9,9,,,,,,,2,0,2,0,0,10,10,33,,,,,,,,,,,,,,5,0.7529663000022992,5,0.3,0.3,10.81288,return,0.755329699954018,,,,,,,,,,,,,,,,,p302,22,female,up_down_width,2025-11-12_11h32.06.658,exp1,2023.1.0,60.012518608895434,
,,,,,,,,,,,,,,,,3,8.2,10,11.8,0,0,1.8,1.55,0.25,3.85,10,match,36.05,296,361,425,0,0,9,9,9,0,0,,,,,,,2,0,2,0,0,11,11,49,,,,,,,,,,,,,,3,0.5022131000296213,3,0.55,0.15000000000000008,5.40644,return,2.289742799999658,,,,,,,,,,,,,,,,,p302,22,female,up_down_width,2025-11-12_11h32.06.658,exp1,2023.1.0,60.012518608895434,
,,,,,,,,,,,,,,,,3,8.6,10,11.4,0,0,1.4,1.15,0.25,3.05,10,match,36.05,310,361,411,0,0,9,9,9,0,0,,,,,,,2,0,2,0,0,12,12,43,,,,,,,,,,,,,,3,0.5191046000109054,3,0.2,0.2,7.20859,return,0.9935840000398457,,,,,,,,,,,,,,,,,p302,22,female,up_down_width,2025-11-12_11h32.06.658,exp1,2023.1.0,60.012518608895434,
,,,,,,,,,,,,,,,,3,8.6,10,11.4,0,0,1.4,0.85,0.55,3.35,10,match,36.05,310,361,411,0,0,9,9,9,0,0,,,,,,,2,0,2,0,0,13,13,41,,,,,,,,,,,,,,3,0.42229940003016964,3,0.3,0.5499999999999999,19.82361,return,1.3008638999890536,,,,,,,,,,,,,,,,,p302,22,female,up_down_width,2025-11-12_11h32.06.658,exp1,2023.1.0,60.012518608895434,
,,,,,,,,,,,,,,,,3,7.8,10,12.2,0,0,2.2,1.65,0.55,4.95,10,match,36.05,281,361,440,0,0,9,9,9,0,0,,,,,,,2,0,2,0,0,14,14,35,,,,,,,,,,,,,,3,0.4734619000228122,3,0.4,0.45,16.21932,return,0.9175089999916963,,,,,,,,,,,,,,,,,p302,22,female,up_down_width,2025-11-12_11h32.06.658,exp1,2023.1.0,60.012518608895434,
,,,,,,,,,,,,,,,,4,9.1,9.7,10.3,10.9,0,0.6000000000000001,0.20000000000000004,0.4,2.2,10,match,36.05,328,350,371,393,0,9,9,9,9,0,,,,,,,2,0,2,0,0,15,15,16,,,,,,,,,,,,,,4,1.3007602999568917,4,0.5,0.35000000000000003,12.61502,return,1.1829503999906592,,,,,,,,,,,,,,,,,p302,22,female,up_down_width,2025-11-12_11h32.06.658,exp1,2023.1.0,60.012518608895434,
,,,,,,,,,,,,,,,,3,8.9,10,11.1,0,0,1.1,0.7000000000000001,0.4,2.6000000000000005,10,initial,36.05,321,361,400,0,0,9,9,9,0,0,,,,,,,2,0,2,0,0,16,16,4,,,,,,,,,,,,,,3,0.4889411000185646,3,0.3,0.35,12.61502,return,1.0127462000236847,,,,,,,,,,,,,,,,,p302,22,female,up_down_width,2025-11-12_11h32.06.658,exp1,2023.1.0,60.012518608895434,
,,,,,,,,,,,,,,,,5,7.8,8.9,10,11.1,12.2,1.1,0.8500000000000001,0.25,4.65,10,initial,36.05,281,321,361,400,440,9,9,9,9,9,,,,,,,2,0,2,0,0,17,17,36,,,,,,,,,,,,,,4,0.7735860999673605,4,0.25,0.2,7.20859,return,1.828251899976749,,,,,,,,,,,,,,,,,p302,22,female,up_down_width,2025-11-12_11h32.06.658,exp1,2023.1.0,60.012518608895434,
,,,,,,,,,,,,,,,,4,8.65,9.55,10.45,11.35,0,0.9,0.5,0.4,3.1,10,initial,36.05,312,344,377,409,0,9,9,9,9,0,,,,,,,2,0,2,0,0,18,18,32,,,,,,,,,,,,,,4,0.639059700013604,4,0.2,0.35,12.61502,return,1.3799809000338428,,,,,,,,,,,,,,,,,p302,22,female,up_down_width,2025-11-12_11h32.06.658,exp1,2023.1.0,60.012518608895434,
,,,,,,,,,,,,,,,,5,8.6,9.3,10,10.7,11.4,0.7,0.44999999999999996,0.25,3.05,10,initial,36.05,310,335,361,386,411,9,9,9,9,9,,,,,,,2,0,2,0,0,19,19,42,,,,,,,,,,,,,,5,0.6066423000302166,5,0.35,0.2,7.20859,return,1.0122700000065379,,,,,,,,,,,,,,,,,p302,22,female,up_down_width,2025-11-12_11h32.06.658,exp1,2023.1.0,60.012518608895434,
,,,,,,,,,,,,,,,,4,9.1,9.7,10.3,10.9,0,0.5999999999999999,0.3499999999999999,0.25,2.05,10,match,36.05,328,350,371,393,0,9,9,9,9,0,,,,,,,2,0,2,0,0,20,20,14,,,,,,,,,,,,,,4,0.5634931999957189,4,0.45,0.25000000000000006,9.01073,return,1.3882878000149503,,,,,,,,,,,,,,,,,p302,22,female,up_down_width,2025-11-12_11h32.06.658,exp1,2023.1.0,60.012518608895434,
,,,,,,,,,,,,,,,,3,9.3,10,10.7,0,0,0.7,0.1499999999999999,0.55,1.95,10,initial,36.05,335,361,386,0,0,9,9,9,0,0,,,,,,,2,0,2,0,0,21,21,6,,,,,,,,,,,,,,3,0.8782624000450596,3,0.4,0.45,16.21932,return,1.0506521000061184,,,,,,,,,,,,,,,,,p302,22,female,up_down_width,2025-11-12_11h32.06.658,exp1,2023.1.0,60.012518608895434,
,,,,,,,,,,,,,,,,4,8.95,9.65,10.35,11.05,0,0.7,0.1499999999999999,0.55,2.65,10,initial,36.05,323,348,373,398,0,9,9,9,9,0,,,,,,,2,0,2,0,0,22,22,23,,,,,,,,,,,,,,3,0.5287784999818541,3,0.2,0.5499999999999999,19.82361,return,1.818476999993436,,,,,,,,,,,,,,,,,p302,22,female,up_down_width,2025-11-12_11h32.06.658,exp1,2023.1.0,60.012518608895434,
,,,,,,,,,,,,,,,,5,8.95,9.475,10,10.525,11.05,0.525,0.125,0.4,2.5,10,match,36.05,323,342,361,379,398,9,9,9,9,9,,,,,,,2,0,2,0,0,23,23,27,,,,,,,,,,,,,,4,0.6177999000065029,4,0.35,0.44999999999999996,16.21932,return,0.9271189999999478,,,,,,,,,,,,,,,,,p302,22,female,up_down_width,2025-11-12_11h32.06.658,exp1,2023.1.0,60.012518608895434,
,,,,,,,,,,,,,,,,3,8.9,10,11.1,0,0,1.1,0.8500000000000001,0.25,2.45,10,initial,36.05,321,361,400,0,0,9,9,9,0,0,,,,,,,2,0,2,0,0,24,24,2,,,,,,,,,,,,,,3,0.5233218000503257,3,0.5,0.20000000000000007,7.20859,return,1.4608741999836639,,,,,,,,,,,,,,,,,p302,22,female,up_down_width,2025-11-12_11h32.06.658,exp1,2023.1.0,60.012518608895434,
,,,,,,,,,,,,,,,,4,8.9,9.633333333333333,10.366666666666667,11.1,0,0.7333333333333334,0.4833333333333334,0.25,2.45,10,match,36.05,321,347,374,400,0,9,9,9,9,0,,,,,,,2,0,2,0,0,25,25,3,,,,,,,,,,,,,,3,0.55611989996396,3,0.5,0.15000000000000008,5.40644,return,2.8843224000302143,,,,,,,,,,,,,,,,,p302,22,female,up_down_width,2025-11-12_11h32.06.658,exp1,2023.1.0,60.012518608895434,
,,,,,,,,,,,,,,,,5,8.6,9.3,10,10.7,11.4,0.7,0.1499999999999999,0.55,3.3499999999999996,10,initial,36.05,310,335,361,386,411,9,9,9,9,9,,,,,,,2,0,2,0,0,26,26,40,,,,,,,,,,,,,,4,0.7293066999991424,4,0.45,0.55,19.82361,return,1.098450599994976,,,,,,,,,,,,,,,,,p302,22,female,up_down_width,2025-11-12_11h32.06.658,exp1,2023.1.0,60.012518608895434,
,,,,,,,,,,,,,,,,5,7.8,8.9,10,11.1,12.2,1.1,0.55,0.55,4.95,10,initial,36.05,281,321,361,400,440,9,9,9,9,9,,,,,,,2,0,2,0,0,27,27,34,,,,,,,,,,,,,,5,0.6628033999586478,5,0.45,0.5,18.02146,return,1.1644556999672204,,,,,,,,,,,,,,,,,p302,22,female,up_down_width,2025-11-12_11h32.06.658,exp1,2023.1.0,60.012518608895434,
,,,,,,,,,,,,,,,,3,8.525,10,11.475,0,0,1.475,1.225,0.25,3.2,10,match,36.05,307,361,414,0,0,9,9,9,0,0,,,,,,,2,0,2,0,0,28,28,45,,,,,,,,,,,,,,3,0.5234063999960199,3,0.25,0.25,9.01073,return,0.9976709999609739,,,,,,,,,,,,,,,,,p302,22,female,up_down_width,2025-11-12_11h32.06.658,exp1,2023.1.0,60.012518608895434,
,,,,,,,,,,,,,,,,4,9.1,9.7,10.3,10.9,0,0.6,0.04999999999999997,0.55,2.35,10,match,36.05,328,350,371,393,0,9,9,9,9,0,,,,,,,2,0,2,0,0,29,29,12,,,,,,,,,,,,,,4,0.7255064999917522,4,0.35,0.5499999999999999,19.82361,return,1.2083994999993593,,,,,,,,,,,,,,,,,p302,22,female,up_down_width,2025-11-12_11h32.06.658,exp1,2023.1.0,60.012518608895434,
,,,,,,,,,,,,,,,,5,7.8,8.9,10,11.1,12.2,1.1,0.7000000000000001,0.4,4.800000000000001,10,initial,36.05,281,321,361,400,440,9,9,9,9,9,,,,,,,2,0,2,0,0,30,30,38,,,,,,,,,,,,,,5,0.8561593999620527,5,0.35,0.39999999999999997,14.41717,return,1.044902399997227,,,,,,,,,,,,,,,,,p302,22,female,up_down_width,2025-11-12_11h32.06.658,exp1,2023.1.0,60.012518608895434,
,,,,,,,,,,,,,,,,5,8.275,9.1375,10,10.8625,11.725,0.8625,0.6125,0.25,3.7,10,match,36.05,298,329,361,392,423,9,9,9,9,9,,,,,,,2,0,2,0,0,31,31,22,,,,,,,,,,,,,,5,0.5684986999840476,5,0.5,0.30000000000000004,10.81288,return,1.4249421000131406,,,,,,,,,,,,,,,,,p302,22,female,up_down_width,2025-11-12_11h32.06.658,exp1,2023.1.0,60.012518608895434,
,,,,,,,,,,,,,,,,3,8.2,10,11.8,0,0,1.8,1.25,0.55,4.15,10,match,36.05,296,361,425,0,0,9,9,9,0,0,,,,,,,2,0,2,0,0,32,32,47,,,,,,,,,,,,,,3,0.5709246000042185,3,0.4,0.45,16.21932,return,1.4269588000024669,,,,,,,,,,,,,,,,,p302,22,female,up_down_width,2025-11-12_11h32.06.658,exp1,2023.1.0,60.012518608895434,
,,,,,,,,,,,,,,,,5,8.6,9.3,10,10.7,11.4,0.7,0.29999999999999993,0.4,3.1999999999999997,10,initial,36.05,310,335,361,386,411,9,9,9,9,9,,,,,,,2,0,2,0,0,33,33,44,,,,,,,,,,,,,,5,0.5889131000149064,5,0.5,0.4,14.41717,return,1.0602260999730788,,,,,,,,,,,,,,,,,p302,22,female,up_down_width,2025-11-12_11h32.06.658,exp1,2023.1.0,60.012518608895434,
,,,,,,,,,,,,,,,,3,9.1,10,10.9,0,0,0.9,0.5,0.4,2.2,10,initial,36.05,328,361,393,0,0,9,9,9,0,0,,,,,,,2,0,2,0,0,34,34,15,,,,,,,,,,,,,,3,0.4931188000482507,3,0.35,0.39999999999999997,14.41717,return,0.9194313999614678,,,,,,,,,,,,,,,,,p302,22,female,up_down_width,2025-11-12_11h32.06.658,exp1,2023.1.0,60.012518608895434,
,,,,,,,,,,,,,,,,4,9.3,9.766666666666667,10.233333333333333,10.7,0,0.4666666666666667,0.21666666666666665,0.25,1.65,10,match,36.05,335,352,369,386,0,9,9,9,9,0,,,,,,,2,0,2,0,0,35,35,8,,,,,,,,,,,,,,4,0.6627079999889247,4,0.35,0.3,10.81288,return,0.9868235999601893,,,,,,,,,,,,,,,,,p302,22,female,up_down_width,2025-11-12_11h32.06.658,exp1,2023.1.0,60.012518608895434,
,,,,,,,,,,,,,,,,5,8.2,9.1,10,10.9,11.8,0.9,0.5,0.4,4,10,initial,36.05,296,328,361,393,425,9,9,9,9,9,,,,,,,2,0,2,0,0,36,36,50,,,,,,,,,,,,,,5,0.523111600021366,5,0.4,0.30000000000000004,10.81288,return,0.9000145000172779,,,,,,,,,,,,,,,,,p302,22,female,up_down_width,2025-11-12_11h32.06.658,exp1,2023.1.0,60.012518608895434,
,,,,,,,,,,,,,,,,3,8.2,10,11.8,0,0,1.7999999999999998,1.4,0.4,4,10,match,36.05,296,361,425,0,0,9,9,9,0,0,,,,,,,2,0,2,0,0,37,37,51,,,,,,,,,,,,,,3,0.4300433999742381,3,0.4,0.30000000000000004,10.81288,return,1.0839836999657564,,,,,,,,,,,,,,,,,p302,22,female,up_down_width,2025-11-12_11h32.06.658,exp1,2023.1.0,60.012518608895434,
,,,,,,,,,,,,,,,,4,8.35,9.45,10.55,11.65,0,1.1,0.7000000000000001,0.4,3.7,10,initial,36.05,301,341,380,420,0,9,9,9,9,0,,,,,,,2,0,2,0,0,38,38,21,,,,,,,,,,,,,,4,0.4423501000273973,4,0.35,0.3,10.81288,return,0.7589624000247568,,,,,,,,,,,,,,,,,p302,22,female,up_down_width,2025-11-12_11h32.06.658,exp1,2023.1.0,60.012518608895434,
,,,,,,,,,,,,,,,,4,9.3,9.766666666666667,10.233333333333333,10.7,0,0.4666666666666667,0.06666666666666665,0.4,1.8,10,match,36.05,335,352,369,386,0,9,9,9,9,0,,,,,,,2,0,2,0,0,39,39,10,,,,,,,,,,,,,,4,0.6489247000426985,4,0.45,0.35000000000000003,12.61502,return,1.4386967000318691,,,,,,,,,,,,,,,,,p302,22,female,up_down_width,2025-11-12_11h32.06.658,exp1,2023.1.0,60.012518608895434,
,,,,,,,,,,,,,,,,5,8.35,9.175,10,10.825,11.65,0.825,0.575,0.25,3.55,10,match,36.05,301,331,361,390,420,9,9,9,9,9,,,,,,,2,0,2,0,0,40,40,20,,,,,,,,,,,,,,4,0.7580388999776915,4,0.25,0.25,9.01073,return,0.775120300007984,,,,,,,,,,,,,,,,,p302,22,female,up_down_width,2025-11-12_11h32.06.658,exp1,2023.1.0,60.012518608895434,
,,,,,,,,,,,,,,,,5,8.65,9.325,10,10.675,11.35,0.675,0.125,0.55,3.25,10,match,36.05,312,336,361,385,409,9,9,9,9,9,,,,,,,2,0,2,0,0,41,41,29,,,,,,,,,,,,,,4,0.8115540000144392,4,0.3,0.44999999999999996,16.21932,return,1.1622066000127234,,,,,,,,,,,,,,,,,p302,22,female,up_down_width,2025-11-12_11h32.06.658,exp1,2023.1.0,60.012518608895434,
,,,,,,,,,,,,,,,,5,8.35,9.175,10,10.825,11.65,0.8250000000000001,0.275,0.55,3.85,10,match,36.05,301,331,361,390,420,9,9,9,9,9,,,,,,,2,0,2,0,0,42,42,18,,,,,,,,,,,,,,4,0.6519939999561757,4,0.35,0.44999999999999996,16.21932,return,1.120755400042981,,,,,,,,,,,,,,,,,p302,22,female,up_down_width,2025-11-12_11h32.06.658,exp1,2023.1.0,60.012518608895434,
,,,,,,,,,,,,,,,,4,8.65,9.55,10.45,11.35,0,0.9,0.35,0.55,3.25,10,initial,36.05,312,344,377,409,0,9,9,9,9,0,,,,,,,2,0,2,0,0,43,43,28,,,,,,,,,,,,,,4,0.6201451999950223,4,0.3,0.44999999999999996,16.21932,return,1.2827501000138,,,,,,,,,,,,,,,,,p302,22,female,up_down_width,2025-11-12_11h32.06.658,exp1,2023.1.0,60.012518608895434,
,,,,,,,,,,,,,,,,4,8.65,9.55,10.45,11.35,0,0.9,0.65,0.25,2.95,10,initial,36.05,312,344,377,409,0,9,9,9,9,0,,,,,,,2,0,2,0,0,44,44,30,,,,,,,,,,,,,,4,0.6159236999810673,4,0.3,0.2,7.20859,return,1.054229100001976,,,,,,,,,,,,,,,,,p302,22,female,up_down_width,2025-11-12_11h32.06.658,exp1,2023.1.0,60.012518608895434,
,,,,,,,,,,,,,,,,4,8.95,9.65,10.35,11.05,0,0.7,0.29999999999999993,0.4,2.5,10,initial,36.05,323,348,373,398,0,9,9,9,9,0,,,,,,,2,0,2,0,0,45,45,26,,,,,,,,,,,,,,4,0.8754429999971762,4,0.25,0.3,10.81288,return,0.9041521000326611,,,,,,,,,,,,,,,,,p302,22,female,up_down_width,2025-11-12_11h32.06.658,exp1,2023.1.0,60.012518608895434,
,,,,,,,,,,,,,,,,4,8.35,9.45,10.55,11.65,0,1.1,0.8500000000000001,0.25,3.5500000000000003,10,initial,36.05,301,341,380,420,0,9,9,9,9,0,,,,,,,2,0,2,0,0,46,46,19,,,,,,,,,,,,,,3,0.5971263999817893,3,0.45,0.25000000000000006,9.01073,return,1.4198936999891885,,,,,,,,,,,,,,,,,p302,22,female,up_down_width,2025-11-12_11h32.06.658,exp1,2023.1.0,60.012518608895434,
,,,,,,,,,,,,,,,,3,9.1,10,10.9,0,0,0.9,0.65,0.25,2.05,10,initial,36.05,328,361,393,0,0,9,9,9,0,0,,,,,,,2,0,2,0,0,47,47,13,,,,,,,,,,,,,,3,0.5763899000012316,3,0.35,0.15000000000000002,5.40644,return,1.2248351000016555,,,,,,,,,,,,,,,,,p302,22,female,up_down_width,2025-11-12_11h32.06.658,exp1,2023.1.0,60.012518608895434,
,,,,,,,,,,,,,,,,3,9.3,10,10.7,0,0,0.7,0.44999999999999996,0.25,1.65,10,initial,36.05,335,361,386,0,0,9,9,9,0,0,,,,,,,2,0,2,0,0,48,48,7,,,,,,,,,,,,,,3,0.44624870002735406,3,0.2,0.15000000000000002,5.40644,return,0.747613099985756,,,,,,,,,,,,,,,,,p302,22,female,up_down_width,2025-11-12_11h32.06.658,exp1,2023.1.0,60.012518608895434,
,,,,,,,,,,,,,,,,3,9.1,10,10.9,0,0,0.9,0.35,0.55,2.35,10,initial,36.05,328,361,393,0,0,9,9,9,0,0,,,,,,,2,0,2,0,0,49,49,11,,,,,,,,,,,,,,3,0.8917261000024155,3,0.5,0.45,16.21932,return,1.317629900004249,,,,,,,,,,,,,,,,,p302,22,female,up_down_width,2025-11-12_11h32.06.658,exp1,2023.1.0,60.012518608895434,
,,,,,,,,,,,,,,,,3,9.3,10,10.7,0,0,0.7,0.29999999999999993,0.4,1.8,10,initial,36.05,335,361,386,0,0,9,9,9,0,0,,,,,,,2,0,2,0,0,50,50,9,,,,,,,,,,,,,,3,0.4902754999930039,3,0.4,0.35000000000000003,12.61502,return,0.7744915000512265,,,,,,,,,,,,,,,,,p302,22,female,up_down_width,2025-11-12_11h32.06.658,exp1,2023.1.0,60.012518608895434,
,,,,,,,,,,,,,,,,4,8.95,9.65,10.35,11.05,0,0.7,0.44999999999999996,0.25,2.3499999999999996,10,initial,36.05,323,348,373,398,0,9,9,9,9,0,,,,,,,2,0,2,0,0,51,51,24,,,,,,,,,,,,,,4,0.4306101000402123,4,0.35,0.25,9.01073,return,1.1327931999694556,,,,,,,,,,,,,,,,,p302,22,female,up_down_width,2025-11-12_11h32.06.658,exp1,2023.1.0,60.012518608895434,
,,,,,,,,,,,,,,,,,,,,,,,,,,,,,,,,,,,,,,,,,,,,,2,0,2,0,,,,,,,,,,,,,,,,,,,,,,,,,,,,1371.0310385000193,1371.0310385000193,1371.0310385000193,,,,,,,,,,,,p302,22,female,up_down_width,2025-11-12_11h32.06.658,exp1,2023.1.0,60.012518608895434,
,,,,,,,,,,,,,,,,3,8.2,10,11.8,0,0,1.7999999999999998,1.4,0.4,4,10,match,36.05,296,361,425,0,0,9,9,9,0,0,,,,,,,3,0,3,0,0,0,0,51,,,,,,,,,,,,,,3,0.5091221000184305,3,0.35,0.25,9.01073,return,1.1908643000060692,,,,,,,,,,,,,,,,,p302,22,female,up_down_width,2025-11-12_11h32.06.658,exp1,2023.1.0,60.012518608895434,
,,,,,,,,,,,,,,,,4,8.35,9.45,10.55,11.65,0,1.1,0.55,0.55,3.8500000000000005,10,initial,36.05,301,341,380,420,0,9,9,9,9,0,,,,,,,3,0,3,0,0,1,1,17,,,,,,,,,,,,,,3,0.49478670000098646,3,0.5,0.4,14.41717,return,1.9129101000144146,,,,,,,,,,,,,,,,,p302,22,female,up_down_width,2025-11-12_11h32.06.658,exp1,2023.1.0,60.012518608895434,
,,,,,,,,,,,,,,,,5,8.35,9.175,10,10.825,11.65,0.8250000000000001,0.275,0.55,3.85,10,match,36.05,301,331,361,390,420,9,9,9,9,9,,,,,,,3,0,3,0,0,2,2,18,,,,,,,,,,,,,,4,0.43561879999469966,4,0.5,0.5,18.02146,return,0.8660505000152625,,,,,,,,,,,,,,,,,p302,22,female,up_down_width,2025-11-12_11h32.06.658,exp1,2023.1.0,60.012518608895434,
,,,,,,,,,,,,,,,,3,9.3,10,10.7,0,0,0.7,0.29999999999999993,0.4,1.8,10,initial,36.05,335,361,386,0,0,9,9,9,0,0,,,,,,,3,0,3,0,0,3,3,9,,,,,,,,,,,,,,3,0.5201497999951243,3,0.25,0.3,10.81288,return,1.2514434999902733,,,,,,,,,,,,,,,,,p302,22,female,up_down_width,2025-11-12_11h32.06.658,exp1,2023.1.0,60.012518608895434,
,,,,,,,,,,,,,,,,3,9.3,10,10.7,0,0,0.7,0.1499999999999999,0.55,1.95,10,initial,36.05,335,361,386,0,0,9,9,9,0,0,,,,,,,3,0,3,0,0,4,4,6,,,,,,,,,,,,,,3,0.48941480001667514,3,0.2,0.39999999999999997,14.41717,return,1.2055084999883547,,,,,,,,,,,,,,,,,p302,22,female,up_down_width,2025-11-12_11h32.06.658,exp1,2023.1.0,60.012518608895434,
,,,,,,,,,,,,,,,,5,8.6,9.3,10,10.7,11.4,0.7,0.29999999999999993,0.4,3.1999999999999997,10,initial,36.05,310,335,361,386,411,9,9,9,9,9,,,,,,,3,0,3,0,0,5,5,44,,,,,,,,,,,,,,5,0.6290697000222281,5,0.25,0.3,10.81288,return,0.9554389000404626,,,,,,,,,,,,,,,,,p302,22,female,up_down_width,2025-11-12_11h32.06.658,exp1,2023.1.0,60.012518608895434,
,,,,,,,,,,,,,,,,3,7.8,10,12.2,0,0,2.2,1.9500000000000002,0.25,4.65,10,match,36.05,281,361,440,0,0,9,9,9,0,0,,,,,,,3,0,3,0,0,6,6,37,,,,,,,,,,,,,,3,0.41812709998339415,3,0.45,0.25000000000000006,9.01073,return,1.5188103999826126,,,,,,,,,,,,,,,,,p302,22,female,up_down_width,2025-11-12_11h32.06.658,exp1,2023.1.0,60.012518608895434,
,,,,,,,,,,,,,,,,4,8.95,9.65,10.35,11.05,0,0.7,0.29999999999999993,0.4,2.5,10,initial,36.05,323,348,373,398,0,9,9,9,9,0,,,,,,,3,0,3,0,0,7,7,26,,,,,,,,,,,,,,4,0.6988945999764837,4,0.45,0.4,14.41717,return,1.8556356999906711,,,,,,,,,,,,,,,,,p302,22,female,up_down_width,2025-11-12_11h32.06.658,exp1,2023.1.0,60.012518608895434,
,,,,,,,,,,,,,,,,4,9.3,9.766666666666667,10.233333333333333,10.7,0,0.4666666666666667,0.21666666666666665,0.25,1.65,10,match,36.05,335,352,369,386,0,9,9,9,9,0,,,,,,,3,0,3,0,0,8,8,8,,,,,,,,,,,,,,4,0.4939557000179775,4,0.45,0.25000000000000006,9.01073,return,1.304141700034961,,,,,,,,,,,,,,,,,p302,22,female,up_down_width,2025-11-12_11h32.06.658,exp1,2023.1.0,60.012518608895434,
,,,,,,,,,,,,,,,,4,9.3,9.766666666666667,10.233333333333333,10.7,0,0.4666666666666667,0.06666666666666665,0.4,1.8,10,match,36.05,335,352,369,386,0,9,9,9,9,0,,,,,,,3,0,3,0,0,9,9,10,,,,,,,,,,,,,,4,0.9683262999751605,4,0.35,0.3,10.81288,return,0.8163473000167869,,,,,,,,,,,,,,,,,p302,22,female,up_down_width,2025-11-12_11h32.06.658,exp1,2023.1.0,60.012518608895434,
,,,,,,,,,,,,,,,,3,8.9,10,11.1,0,0,1.1,0.8500000000000001,0.25,2.45,10,initial,36.05,321,361,400,0,0,9,9,9,0,0,,,,,,,3,0,3,0,0,10,10,2,,,,,,,,,,,,,,3,0.5985572999925353,3,0.4,0.20000000000000007,7.20859,return,1.566149200021755,,,,,,,,,,,,,,,,,p302,22,female,up_down_width,2025-11-12_11h32.06.658,exp1,2023.1.0,60.012518608895434,
,,,,,,,,,,,,,,,,5,7.8,8.9,10,11.1,12.2,1.1,0.55,0.55,4.95,10,initial,36.05,281,321,361,400,440,9,9,9,9,9,,,,,,,3,0,3,0,0,11,11,34,,,,,,,,,,,,,,4,0.5022572000161745,4,0.25,0.39999999999999997,14.41717,return,1.2962065000319853,,,,,,,,,,,,,,,,,p302,22,female,up_down_width,2025-11-12_11h32.06.658,exp1,2023.1.0,60.012518608895434,
,,,,,,,,,,,,,,,,4,8.65,9.55,10.45,11.35,0,0.9,0.35,0.55,3.25,10,initial,36.05,312,344,377,409,0,9,9,9,9,0,,,,,,,3,0,3,0,0,12,12,28,,,,,,,,,,,,,,4,0.3875694000162184,4,0.55,0.45,16.21932,return,0.9635246999678202,,,,,,,,,,,,,,,,,p302,22,female,up_down_width,2025-11-12_11h32.06.658,exp1,2023.1.0,60.012518608895434,
,,,,,,,,,,,,,,,,4,8.65,9.55,10.45,11.35,0,0.9,0.5,0.4,3.1,10,initial,36.05,312,344,377,409,0,9,9,9,9,0,,,,,,,3,0,3,0,0,13,13,32,,,,,,,,,,,,,,4,0.46451759996125475,4,0.2,0.3,10.81288,return,1.1008117999881506,,,,,,,,,,,,,,,,,p302,22,female,up_down_width,2025-11-12_11h32.06.658,exp1,2023.1.0,60.012518608895434,
,,,,,,,,,,,,,,,,4,8.35,9.45,10.55,11.65,0,1.1,0.7000000000000001,0.4,3.7,10,initial,36.05,301,341,380,420,0,9,9,9,9,0,,,,,,,3,0,3,0,0,14,14,21,,,,,,,,,,,,,,3,0.48267969995504245,3,0.5,0.4,14.41717,return,1.1349396000150591,,,,,,,,,,,,,,,,,p302,22,female,up_down_width,2025-11-12_11h32.06.658,exp1,2023.1.0,60.012518608895434,
,,,,,,,,,,,,,,,,3,8.9,10,11.1,0,0,1.1,0.7000000000000001,0.4,2.6000000000000005,10,initial,36.05,321,361,400,0,0,9,9,9,0,0,,,,,,,3,0,3,0,0,15,15,4,,,,,,,,,,,,,,3,0.46629030001349747,3,0.35,0.39999999999999997,14.41717,return,0.8781583000090905,,,,,,,,,,,,,,,,,p302,22,female,up_down_width,2025-11-12_11h32.06.658,exp1,2023.1.0,60.012518608895434,
,,,,,,,,,,,,,,,,4,8.9,9.633333333333333,10.366666666666667,11.1,0,0.7333333333333334,0.4833333333333334,0.25,2.45,10,match,36.05,321,347,374,400,0,9,9,9,9,0,,,,,,,3,0,3,0,0,16,16,3,,,,,,,,,,,,,,4,0.4346596000250429,4,0.5,0.30000000000000004,10.81288,return,1.4388888999819756,,,,,,,,,,,,,,,,,p302,22,female,up_down_width,2025-11-12_11h32.06.658,exp1,2023.1.0,60.012518608895434,
,,,,,,,,,,,,,,,,4,8.825,9.608333333333333,10.391666666666667,11.175,0,0.7833333333333333,0.5333333333333333,0.25,2.6,10,match,36.05,318,346,375,403,0,9,9,9,9,0,,,,,,,3,0,3,0,0,17,17,5,,,,,,,,,,,,,,4,0.567823999968823,4,0.2,0.2,7.20859,return,0.7673170000198297,,,,,,,,,,,,,,,,,p302,22,female,up_down_width,2025-11-12_11h32.06.658,exp1,2023.1.0,60.012518608895434,
,,,,,,,,,,,,,,,,3,8.6,10,11.4,0,0,1.4,1.15,0.25,3.05,10,match,36.05,310,361,411,0,0,9,9,9,0,0,,,,,,,3,0,3,0,0,18,18,43,,,,,,,,,,,,,,4,0.6820119000039995,4,0.2,0.2,7.20859,return,1.133715600008145,,,,,,,,,,,,,,,,,p302,22,female,up_down_width,2025-11-12_11h32.06.658,exp1,2023.1.0,60.012518608895434,
,,,,,,,,,,,,,,,,5,8.2,9.1,10,10.9,11.8,0.9,0.65,0.25,3.85,10,initial,36.05,296,328,361,393,425,9,9,9,9,9,,,,,,,3,0,3,0,0,19,19,48,,,,,,,,,,,,,,4,0.4300187000189908,4,0.3,0.15000000000000002,5.40644,return,1.0844330999534577,,,,,,,,,,,,,,,,,p302,22,female,up_down_width,2025-11-12_11h32.06.658,exp1,2023.1.0,60.012518608895434,
,,,,,,,,,,,,,,,,4,8.95,9.65,10.35,11.05,0,0.7,0.44999999999999996,0.25,2.3499999999999996,10,initial,36.05,323,348,373,398,0,9,9,9,9,0,,,,,,,3,0,3,0,0,20,20,24,,,,,,,,,,,,,,4,0.5990944000077434,4,0.25,0.2,7.20859,return,1.197512499988079,,,,,,,,,,,,,,,,,p302,22,female,up_down_width,2025-11-12_11h32.06.658,exp1,2023.1.0,60.012518608895434,
,,,,,,,,,,,,,,,,3,8.2,10,11.8,0,0,1.8,1.25,0.55,4.15,10,match,36.05,296,361,425,0,0,9,9,9,0,0,,,,,,,3,0,3,0,0,21,21,47,,,,,,,,,,,,,,3,0.4397680999827571,3,0.4,0.5,18.02146,return,0.8683700999827124,,,,,,,,,,,,,,,,,p302,22,female,up_down_width,2025-11-12_11h32.06.658,exp1,2023.1.0,60.012518608895434,
,,,,,,,,,,,,,,,,4,9.1,9.7,10.3,10.9,0,0.6000000000000001,0.20000000000000004,0.4,2.2,10,match,36.05,328,350,371,393,0,9,9,9,9,0,,,,,,,3,0,3,0,0,22,22,16,,,,,,,,,,,,,,4,0.46451290004188195,4,0.2,0.25,9.01073,return,1.0363732000114396,,,,,,,,,,,,,,,,,p302,22,female,up_down_width,2025-11-12_11h32.06.658,exp1,2023.1.0,60.012518608895434,
,,,,,,,,,,,,,,,,3,8.2,10,11.8,0,0,1.8,1.55,0.25,3.85,10,match,36.05,296,361,425,0,0,9,9,9,0,0,,,,,,,3,0,3,0,0,23,23,49,,,,,,,,,,,,,,3,0.4262579000205733,3,0.4,0.15000000000000008,5.40644,return,1.4962159999995492,,,,,,,,,,,,,,,,,p302,22,female,up_down_width,2025-11-12_11h32.06.658,exp1,2023.1.0,60.012518608895434,
,,,,,,,,,,,,,,,,5,8.65,9.325,10,10.675,11.35,0.675,0.275,0.4,3.1,10,match,36.05,312,336,361,385,409,9,9,9,9,9,,,,,,,3,0,3,0,0,24,24,33,,,,,,,,,,,,,,5,0.6933226999826729,5,0.2,0.3,10.81288,return,0.9680092000053264,,,,,,,,,,,,,,,,,p302,22,female,up_down_width,2025-11-12_11h32.06.658,exp1,2023.1.0,60.012518608895434,
,,,,,,,,,,,,,,,,3,8.525,10,11.475,0,0,1.475,1.225,0.25,3.2,10,match,36.05,307,361,414,0,0,9,9,9,0,0,,,,,,,3,0,3,0,0,25,25,45,,,,,,,,,,,,,,3,0.46361430000979453,3,0.5,0.20000000000000007,7.20859,return,2.667523499985691,,,,,,,,,,,,,,,,,p302,22,female,up_down_width,2025-11-12_11h32.06.658,exp1,2023.1.0,60.012518608895434,
,,,,,,,,,,,,,,,,3,7.8,10,12.2,0,0,2.2,1.65,0.55,4.95,10,match,36.05,281,361,440,0,0,9,9,9,0,0,,,,,,,3,0,3,0,0,26,26,35,,,,,,,,,,,,,,3,0.4678978000301868,3,0.45,0.35000000000000003,12.61502,return,0.992648100014776,,,,,,,,,,,,,,,,,p302,22,female,up_down_width,2025-11-12_11h32.06.658,exp1,2023.1.0,60.012518608895434,
,,,,,,,,,,,,,,,,4,8.35,9.45,10.55,11.65,0,1.1,0.8500000000000001,0.25,3.5500000000000003,10,initial,36.05,301,341,380,420,0,9,9,9,9,0,,,,,,,3,0,3,0,0,27,27,19,,,,,,,,,,,,,,4,0.6459629999590106,4,0.25,0.2,7.20859,return,0.8582928000250831,,,,,,,,,,,,,,,,,p302,22,female,up_down_width,2025-11-12_11h32.06.658,exp1,2023.1.0,60.012518608895434,
,,,,,,,,,,,,,,,,5,7.8,8.9,10,11.1,12.2,1.1,0.7000000000000001,0.4,4.800000000000001,10,initial,36.05,281,321,361,400,440,9,9,9,9,9,,,,,,,3,0,3,0,0,28,28,38,,,,,,,,,,,,,,5,0.6359930000035092,5,0.25,0.35,12.61502,return,0.9127908999798819,,,,,,,,,,,,,,,,,p302,22,female,up_down_width,2025-11-12_11h32.06.658,exp1,2023.1.0,60.012518608895434,
,,,,,,,,,,,,,,,,5,8.6,9.3,10,10.7,11.4,0.7,0.1499999999999999,0.55,3.3499999999999996,10,initial,36.05,310,335,361,386,411,9,9,9,9,9,,,,,,,3,0,3,0,0,29,29,40,,,,,,,,,,,,,,5,0.5332044999813661,5,0.55,0.55,19.82361,return,0.7843591999844648,,,,,,,,,,,,,,,,,p302,22,female,up_down_width,2025-11-12_11h32.06.658,exp1,2023.1.0,60.012518608895434,
,,,,,,,,,,,,,,,,3,9.3,10,10.7,0,0,0.7,0.44999999999999996,0.25,1.65,10,initial,36.05,335,361,386,0,0,9,9,9,0,0,,,,,,,3,0,3,0,0,30,30,7,,,,,,,,,,,,,,3,0.5576251000165939,3,0.4,0.20000000000000007,7.20859,return,1.4134763000183739,,,,,,,,,,,,,,,,,p302,22,female,up_down_width,2025-11-12_11h32.06.658,exp1,2023.1.0,60.012518608895434,
,,,,,,,,,,,,,,,,5,8.6,9.3,10,10.7,11.4,0.7,0.44999999999999996,0.25,3.05,10,initial,36.05,310,335,361,386,411,9,9,9,9,9,,,,,,,3,0,3,0,0,31,31,42,,,,,,,,,,,,,,4,0.5591186000383459,4,0.45,0.20000000000000007,7.20859,return,1.62393089995021,,,,,,,,,,,,,,,,,p302,22,female,up_down_width,2025-11-12_11h32.06.658,exp1,2023.1.0,60.012518608895434,
,,,,,,,,,,,,,,,,5,8.95,9.475,10,10.525,11.05,0.525,0.125,0.4,2.5,10,match,36.05,323,342,361,379,398,9,9,9,9,9,,,,,,,3,0,3,0,0,32,32,27,,,,,,,,,,,,,,4,0.5894988999934867,4,0.45,0.45,16.21932,return,0.6604183999588713,,,,,,,,,,,,,,,,,p302,22,female,up_down_width,2025-11-12_11h32.06.658,exp1,2023.1.0,60.012518608895434,
,,,,,,,,,,,,,,,,4,8.9,9.633333333333333,10.366666666666667,11.1,0,0.7333333333333333,0.18333333333333326,0.55,2.75,10,match,36.05,321,347,374,400,0,9,9,9,9,0,,,,,,,3,0,3,0,0,33,33,1,,,,,,,,,,,,,,3,0.9234436000115238,3,0.2,0.39999999999999997,14.41717,return,1.2043095999979414,,,,,,,,,,,,,,,,,p302,22,female,up_down_width,2025-11-12_11h32.06.658,exp1,2023.1.0,60.012518608895434,
,,,,,,,,,,,,,,,,3,9.1,10,10.9,0,0,0.9,0.35,0.55,2.35,10,initial,36.05,328,361,393,0,0,9,9,9,0,0,,,,,,,3,0,3,0,0,34,34,11,,,,,,,,,,,,,,3,0.4782751000020653,3,0.4,0.45,16.21932,return,1.368911100027617,,,,,,,,,,,,,,,,,p302,22,female,up_down_width,2025-11-12_11h32.06.658,exp1,2023.1.0,60.012518608895434,
,,,,,,,,,,,,,,,,3,8.9,10,11.1,0,0,1.1,0.55,0.55,2.75,10,initial,36.05,321,361,400,0,0,9,9,9,0,0,,,,,,,3,0,3,0,0,35,35,0,,,,,,,,,,,,,,3,0.4848026999970898,3,0.55,0.5,18.02146,return,1.040809900034219,,,,,,,,,,,,,,,,,p302,22,female,up_down_width,2025-11-12_11h32.06.658,exp1,2023.1.0,60.012518608895434,
,,,,,,,,,,,,,,,,5,7.8,8.9,10,11.1,12.2,1.1,0.8500000000000001,0.25,4.65,10,initial,36.05,281,321,361,400,440,9,9,9,9,9,,,,,,,3,0,3,0,0,36,36,36,,,,,,,,,,,,,,5,0.7050445000058971,5,0.5,0.20000000000000007,7.20859,return,1.7636514999903738,,,,,,,,,,,,,,,,,p302,22,female,up_down_width,2025-11-12_11h32.06.658,exp1,2023.1.0,60.012518608895434,
,,,,,,,,,,,,,,,,5,8.2,9.1,10,10.9,11.8,0.9,0.5,0.4,4,10,initial,36.05,296,328,361,393,425,9,9,9,9,9,,,,,,,3,0,3,0,0,37,37,50,,,,,,,,,,,,,,5,0.5913972000125796,5,0.2,0.39999999999999997,14.41717,return,1.2542891999473795,,,,,,,,,,,,,,,,,p302,22,female,up_down_width,2025-11-12_11h32.06.658,exp1,2023.1.0,60.012518608895434,
,,,,,,,,,,,,,,,,5,8.2,9.1,10,10.9,11.8,0.9,0.35,0.55,4.15,10,initial,36.05,296,328,361,393,425,9,9,9,9,9,,,,,,,3,0,3,0,0,38,38,46,,,,,,,,,,,,,,5,0.5403118000249378,5,0.2,0.49999999999999994,18.02146,return,1.492902200028766,,,,,,,,,,,,,,,,,p302,22,female,up_down_width,2025-11-12_11h32.06.658,exp1,2023.1.0,60.012518608895434,
,,,,,,,,,,,,,,,,4,8.95,9.65,10.35,11.05,0,0.7,0.1499999999999999,0.55,2.65,10,initial,36.05,323,348,373,398,0,9,9,9,9,0,,,,,,,3,0,3,0,0,39,39,23,,,,,,,,,,,,,,3,0.6184478999930434,3,0.2,0.44999999999999996,16.21932,return,1.280028900015168,,,,,,,,,,,,,,,,,p302,22,female,up_down_width,2025-11-12_11h32.06.658,exp1,2023.1.0,60.012518608895434,
,,,,,,,,,,,,,,,,5,8.65,9.325,10,10.675,11.35,0.675,0.42500000000000004,0.25,2.95,10,match,36.05,312,336,361,385,409,9,9,9,9,9,,,,,,,3,0,3,0,0,40,40,31,,,,,,,,,,,,,,4,0.6449037999846041,4,0.25,0.2,7.20859,return,0.8422621000208892,,,,,,,,,,,,,,,,,p302,22,female,up_down_width,2025-11-12_11h32.06.658,exp1,2023.1.0,60.012518608895434,
,,,,,,,,,,,,,,,,4,9.1,9.7,10.3,10.9,0,0.6,0.04999999999999997,0.55,2.35,10,match,36.05,328,350,371,393,0,9,9,9,9,0,,,,,,,3,0,3,0,0,41,41,12,,,,,,,,,,,,,,4,0.8301284000044689,4,0.25,0.49999999999999994,18.02146,return,1.7413530999911018,,,,,,,,,,,,,,,,,p302,22,female,up_down_width,2025-11-12_11h32.06.658,exp1,2023.1.0,60.012518608895434,
,,,,,,,,,,,,,,,,5,8.275,9.1375,10,10.8625,11.725,0.8625,0.6125,0.25,3.7,10,match,36.05,298,329,361,392,423,9,9,9,9,9,,,,,,,3,0,3,0,0,42,42,22,,,,,,,,,,,,,,5,0.6992896000156179,5,0.3,0.15000000000000002,5.40644,return,0.8301659999997355,,,,,,,,,,,,,,,,,p302,22,female,up_down_width,2025-11-12_11h32.06.658,exp1,2023.1.0,60.012518608895434,
,,,,,,,,,,,,,,,,3,8.6,10,11.4,0,0,1.4,0.85,0.55,3.35,10,match,36.05,310,361,411,0,0,9,9,9,0,0,,,,,,,3,0,3,0,0,43,43,41,,,,,,,,,,,,,,3,0.5856067999848165,3,0.3,0.49999999999999994,18.02146,return,1.265257500053849,,,,,,,,,,,,,,,,,p302,22,female,up_down_width,2025-11-12_11h32.06.658,exp1,2023.1.0,60.012518608895434,
,,,,,,,,,,,,,,,,5,8.95,9.475,10,10.525,11.05,0.525,0.275,0.25,2.35,10,match,36.05,323,342,361,379,398,9,9,9,9,9,,,,,,,3,0,3,0,0,44,44,25,,,,,,,,,,,,,,4,0.529406999994535,4,0.25,0.2,7.20859,return,0.7630160999833606,,,,,,,,,,,,,,,,,p302,22,female,up_down_width,2025-11-12_11h32.06.658,exp1,2023.1.0,60.012518608895434,
,,,,,,,,,,,,,,,,4,9.1,9.7,10.3,10.9,0,0.5999999999999999,0.3499999999999999,0.25,2.05,10,match,36.05,328,350,371,393,0,9,9,9,9,0,,,,,,,3,0,3,0,0,45,45,14,,,,,,,,,,,,,,4,0.6628683999879286,4,0.55,0.20000000000000007,7.20859,return,1.723608200030867,,,,,,,,,,,,,,,,,p302,22,female,up_down_width,2025-11-12_11h32.06.658,exp1,2023.1.0,60.012518608895434,
,,,,,,,,,,,,,,,,5,8.65,9.325,10,10.675,11.35,0.675,0.125,0.55,3.25,10,match,36.05,312,336,361,385,409,9,9,9,9,9,,,,,,,3,0,3,0,0,46,46,29,,,,,,,,,,,,,,4,0.678842400026042,4,0.45,0.5,18.02146,return,1.418298100004904,,,,,,,,,,,,,,,,,p302,22,female,up_down_width,2025-11-12_11h32.06.658,exp1,2023.1.0,60.012518608895434,
,,,,,,,,,,,,,,,,5,8.35,9.175,10,10.825,11.65,0.825,0.575,0.25,3.55,10,match,36.05,301,331,361,390,420,9,9,9,9,9,,,,,,,3,0,3,0,0,47,47,20,,,,,,,,,,,,,,4,0.8116531999548897,4,0.35,0.25,9.01073,return,1.3375945999869145,,,,,,,,,,,,,,,,,p302,22,female,up_down_width,2025-11-12_11h32.06.658,exp1,2023.1.0,60.012518608895434,
,,,,,,,,,,,,,,,,3,7.800000000000001,10,12.2,0,0,2.1999999999999997,1.7999999999999998,0.4,4.8,10,match,36.05,281,361,440,0,0,9,9,9,0,0,,,,,,,3,0,3,0,0,48,48,39,,,,,,,,,,,,,,3,0.497871000028681,3,0.3,0.35,12.61502,return,1.2287617000401951,,,,,,,,,,,,,,,,,p302,22,female,up_down_width,2025-11-12_11h32.06.658,exp1,2023.1.0,60.012518608895434,
,,,,,,,,,,,,,,,,4,8.65,9.55,10.45,11.35,0,0.9,0.65,0.25,2.95,10,initial,36.05,312,344,377,409,0,9,9,9,9,0,,,,,,,3,0,3,0,0,49,49,30,,,,,,,,,,,,,,4,0.5810300000011921,4,0.2,0.2,7.20859,return,0.6842081000213511,,,,,,,,,,,,,,,,,p302,22,female,up_down_width,2025-11-12_11h32.06.658,exp1,2023.1.0,60.012518608895434,
,,,,,,,,,,,,,,,,3,9.1,10,10.9,0,0,0.9,0.5,0.4,2.2,10,initial,36.05,328,361,393,0,0,9,9,9,0,0,,,,,,,3,0,3,0,0,50,50,15,,,,,,,,,,,,,,3,0.5544504999998026,3,0.2,0.3,10.81288,return,0.9961540999938734,,,,,,,,,,,,,,,,,p302,22,female,up_down_width,2025-11-12_11h32.06.658,exp1,2023.1.0,60.012518608895434,
,,,,,,,,,,,,,,,,3,9.1,10,10.9,0,0,0.9,0.65,0.25,2.05,10,initial,36.05,328,361,393,0,0,9,9,9,0,0,,,,,,,3,0,3,0,0,51,51,13,,,,,,,,,,,,,,3,0.6801862999564037,3,0.35,0.2,7.20859,return,1.4532907000393607,,,,,,,,,,,,,,,,,p302,22,female,up_down_width,2025-11-12_11h32.06.658,exp1,2023.1.0,60.012518608895434,
,,,,,,,,,,,,,,,,,,,,,,,,,,,,,,,,,,,,,,,,,,,,,3,0,3,0,,,,,,,,,,,,,,,,,,,,,,,,,,,,1563.3475997999776,1563.3475997999776,1563.3475997999776,,,,,,,,,,,,p302,22,female,up_down_width,2025-11-12_11h32.06.658,exp1,2023.1.0,60.012518608895434,
,,,,,,,,,,,,,,,,4,9.1,9.7,10.3,10.9,0,0.5999999999999999,0.3499999999999999,0.25,2.05,10,match,36.05,328,350,371,393,0,9,9,9,9,0,,,,,,,4,0,4,0,0,0,0,14,,,,,,,,,,,,,,4,0.5793196999584325,4,0.45,0.25000000000000006,9.01073,return,1.21143690001918,,,,,,,,,,,,,,,,,p302,22,female,up_down_width,2025-11-12_11h32.06.658,exp1,2023.1.0,60.012518608895434,
,,,,,,,,,,,,,,,,5,8.35,9.175,10,10.825,11.65,0.8250000000000001,0.275,0.55,3.85,10,match,36.05,301,331,361,390,420,9,9,9,9,9,,,,,,,4,0,4,0,0,1,1,18,,,,,,,,,,,,,,4,0.6382352000218816,4,0.5,0.55,19.82361,return,0.8346999000059441,,,,,,,,,,,,,,,,,p302,22,female,up_down_width,2025-11-12_11h32.06.658,exp1,2023.1.0,60.012518608895434,
,,,,,,,,,,,,,,,,4,8.35,9.45,10.55,11.65,0,1.1,0.7000000000000001,0.4,3.7,10,initial,36.05,301,341,380,420,0,9,9,9,9,0,,,,,,,4,0,4,0,0,2,2,21,,,,,,,,,,,,,,3,0.6387825999991037,3,0.5,0.45,16.21932,return,1.0749316000146791,,,,,,,,,,,,,,,,,p302,22,female,up_down_width,2025-11-12_11h32.06.658,exp1,2023.1.0,60.012518608895434,
,,,,,,,,,,,,,,,,5,8.2,9.1,10,10.9,11.8,0.9,0.35,0.55,4.15,10,initial,36.05,296,328,361,393,425,9,9,9,9,9,,,,,,,4,0,4,0,0,3,3,46,,,,,,,,,,,,,,4,0.5116787999868393,4,0.35,0.44999999999999996,16.21932,return,0.87487770000007,,,,,,,,,,,,,,,,,p302,22,female,up_down_width,2025-11-12_11h32.06.658,exp1,2023.1.0,60.012518608895434,
,,,,,,,,,,,,,,,,5,8.65,9.325,10,10.675,11.35,0.675,0.125,0.55,3.25,10,match,36.05,312,336,361,385,409,9,9,9,9,9,,,,,,,4,0,4,0,0,4,4,29,,,,,,,,,,,,,,4,0.474842100054957,4,0.2,0.6,21.62576,return,1.5584506000159308,,,,,,,,,,,,,,,,,p302,22,female,up_down_width,2025-11-12_11h32.06.658,exp1,2023.1.0,60.012518608895434,
,,,,,,,,,,,,,,,,5,8.6,9.3,10,10.7,11.4,0.7,0.29999999999999993,0.4,3.1999999999999997,10,initial,36.05,310,335,361,386,411,9,9,9,9,9,,,,,,,4,0,4,0,0,5,5,44,,,,,,,,,,,,,,5,0.6703270000289194,5,0.25,0.44999999999999996,16.21932,return,1.0103497999953106,,,,,,,,,,,,,,,,,p302,22,female,up_down_width,2025-11-12_11h32.06.658,exp1,2023.1.0,60.012518608895434,
,,,,,,,,,,,,,,,,5,8.275,9.1375,10,10.8625,11.725,0.8625,0.6125,0.25,3.7,10,match,36.05,298,329,361,392,423,9,9,9,9,9,,,,,,,4,0,4,0,0,6,6,22,,,,,,,,,,,,,,5,0.6121001999708824,5,0.25,0.2,7.20859,return,0.811235899978783,,,,,,,,,,,,,,,,,p302,22,female,up_down_width,2025-11-12_11h32.06.658,exp1,2023.1.0,60.012518608895434,
,,,,,,,,,,,,,,,,5,8.2,9.1,10,10.9,11.8,0.9,0.5,0.4,4,10,initial,36.05,296,328,361,393,425,9,9,9,9,9,,,,,,,4,0,4,0,0,7,7,50,,,,,,,,,,,,,,5,0.737577699997928,5,0.55,0.4,14.41717,return,0.9455774000380188,,,,,,,,,,,,,,,,,p302,22,female,up_down_width,2025-11-12_11h32.06.658,exp1,2023.1.0,60.012518608895434,
,,,,,,,,,,,,,,,,4,9.3,9.766666666666667,10.233333333333333,10.7,0,0.4666666666666667,0.06666666666666665,0.4,1.8,10,match,36.05,335,352,369,386,0,9,9,9,9,0,,,,,,,4,0,4,0,0,8,8,10,,,,,,,,,,,,,,4,0.7176471999846399,4,0.25,0.2,7.20859,return,0.7197884999914095,,,,,,,,,,,,,,,,,p302,22,female,up_down_width,2025-11-12_11h32.06.658,exp1,2023.1.0,60.012518608895434,
,,,,,,,,,,,,,,,,5,8.65,9.325,10,10.675,11.35,0.675,0.275,0.4,3.1,10,match,36.05,312,336,361,385,409,9,9,9,9,9,,,,,,,4,0,4,0,0,9,9,33,,,,,,,,,,,,,,4,0.7359034999972209,4,0.25,0.25,9.01073,return,0.6887870999635197,,,,,,,,,,,,,,,,,p302,22,female,up_down_width,2025-11-12_11h32.06.658,exp1,2023.1.0,60.012518608895434,
,,,,,,,,,,,,,,,,4,8.95,9.65,10.35,11.05,0,0.7,0.44999999999999996,0.25,2.3499999999999996,10,initial,36.05,323,348,373,398,0,9,9,9,9,0,,,,,,,4,0,4,0,0,10,10,24,,,,,,,,,,,,,,4,0.525667300040368,4,0.35,0.25,9.01073,return,1.257047999999486,,,,,,,,,,,,,,,,,p302,22,female,up_down_width,2025-11-12_11h32.06.658,exp1,2023.1.0,60.012518608895434,
,,,,,,,,,,,,,,,,4,8.65,9.55,10.45,11.35,0,0.9,0.5,0.4,3.1,10,initial,36.05,312,344,377,409,0,9,9,9,9,0,,,,,,,4,0,4,0,0,11,11,32,,,,,,,,,,,,,,4,0.47818109998479486,4,0.3,0.25,9.01073,return,0.698837400006596,,,,,,,,,,,,,,,,,p302,22,female,up_down_width,2025-11-12_11h32.06.658,exp1,2023.1.0,60.012518608895434,
,,,,,,,,,,,,,,,,3,9.1,10,10.9,0,0,0.9,0.65,0.25,2.05,10,initial,36.05,328,361,393,0,0,9,9,9,0,0,,,,,,,4,0,4,0,0,12,12,13,,,,,,,,,,,,,,3,0.9442348000011407,3,0.5,0.25000000000000006,9.01073,return,2.4259060999611393,,,,,,,,,,,,,,,,,p302,22,female,up_down_width,2025-11-12_11h32.06.658,exp1,2023.1.0,60.012518608895434,
,,,,,,,,,,,,,,,,3,7.800000000000001,10,12.2,0,0,2.1999999999999997,1.7999999999999998,0.4,4.8,10,match,36.05,281,361,440,0,0,9,9,9,0,0,,,,,,,4,0,4,0,0,13,13,39,,,,,,,,,,,,,,3,0.5429188000271097,3,0.55,0.30000000000000004,10.81288,return,1.577716599975247,,,,,,,,,,,,,,,,,p302,22,female,up_down_width,2025-11-12_11h32.06.658,exp1,2023.1.0,60.012518608895434,
,,,,,,,,,,,,,,,,3,9.3,10,10.7,0,0,0.7,0.29999999999999993,0.4,1.8,10,initial,36.05,335,361,386,0,0,9,9,9,0,0,,,,,,,4,0,4,0,0,14,14,9,,,,,,,,,,,,,,3,0.6096555999829434,3,0.25,0.35,12.61502,return,1.1438092000316828,,,,,,,,,,,,,,,,,p302,22,female,up_down_width,2025-11-12_11h32.06.658,exp1,2023.1.0,60.012518608895434,
,,,,,,,,,,,,,,,,3,8.2,10,11.8,0,0,1.7999999999999998,1.4,0.4,4,10,match,36.05,296,361,425,0,0,9,9,9,0,0,,,,,,,4,0,4,0,0,15,15,51,,,,,,,,,,,,,,3,0.6030228000017814,3,0.2,0.39999999999999997,14.41717,return,0.9935065000317991,,,,,,,,,,,,,,,,,p302,22,female,up_down_width,2025-11-12_11h32.06.658,exp1,2023.1.0,60.012518608895434,
,,,,,,,,,,,,,,,,3,7.8,10,12.2,0,0,2.2,1.9500000000000002,0.25,4.65,10,match,36.05,281,361,440,0,0,9,9,9,0,0,,,,,,,4,0,4,0,0,16,16,37,,,,,,,,,,,,,,3,0.5554128999938257,3,0.45,0.15000000000000008,5.40644,return,1.7154424999607727,,,,,,,,,,,,,,,,,p302,22,female,up_down_width,2025-11-12_11h32.06.658,exp1,2023.1.0,60.012518608895434,
,,,,,,,,,,,,,,,,4,8.35,9.45,10.55,11.65,0,1.1,0.55,0.55,3.8500000000000005,10,initial,36.05,301,341,380,420,0,9,9,9,9,0,,,,,,,4,0,4,0,0,17,17,17,,,,,,,,,,,,,,3,1.125487899989821,3,0.4,0.45,16.21932,return,1.0007630999898538,,,,,,,,,,,,,,,,,p302,22,female,up_down_width,2025-11-12_11h32.06.658,exp1,2023.1.0,60.012518608895434,
,,,,,,,,,,,,,,,,4,8.9,9.633333333333333,10.366666666666667,11.1,0,0.7333333333333334,0.4833333333333334,0.25,2.45,10,match,36.05,321,347,374,400,0,9,9,9,9,0,,,,,,,4,0,4,0,0,18,18,3,,,,,,,,,,,,,,3,0.6961492000264116,3,0.5,0.20000000000000007,7.20859,return,1.7390383000019938,,,,,,,,,,,,,,,,,p302,22,female,up_down_width,2025-11-12_11h32.06.658,exp1,2023.1.0,60.012518608895434,
,,,,,,,,,,,,,,,,3,9.3,10,10.7,0,0,0.7,0.44999999999999996,0.25,1.65,10,initial,36.05,335,361,386,0,0,9,9,9,0,0,,,,,,,4,0,4,0,0,19,19,7,,,,,,,,,,,,,,3,0.47831410000799224,3,0.35,0.15000000000000002,5.40644,return,1.3065062999958172,,,,,,,,,,,,,,,,,p302,22,female,up_down_width,2025-11-12_11h32.06.658,exp1,2023.1.0,60.012518608895434,
,,,,,,,,,,,,,,,,4,8.95,9.65,10.35,11.05,0,0.7,0.1499999999999999,0.55,2.65,10,initial,36.05,323,348,373,398,0,9,9,9,9,0,,,,,,,4,0,4,0,0,20,20,23,,,,,,,,,,,,,,3,0.7929654000326991,3,0.55,0.6000000000000001,21.62576,return,0.7928286000387743,,,,,,,,,,,,,,,,,p302,22,female,up_down_width,2025-11-12_11h32.06.658,exp1,2023.1.0,60.012518608895434,
,,,,,,,,,,,,,,,,5,8.95,9.475,10,10.525,11.05,0.525,0.125,0.4,2.5,10,match,36.05,323,342,361,379,398,9,9,9,9,9,,,,,,,4,0,4,0,0,21,21,27,,,,,,,,,,,,,,4,0.5179969000164419,4,0.35,0.39999999999999997,14.41717,return,1.1675973000237718,,,,,,,,,,,,,,,,,p302,22,female,up_down_width,2025-11-12_11h32.06.658,exp1,2023.1.0,60.012518608895434,
,,,,,,,,,,,,,,,,5,8.95,9.475,10,10.525,11.05,0.525,0.275,0.25,2.35,10,match,36.05,323,342,361,379,398,9,9,9,9,9,,,,,,,4,0,4,0,0,22,22,25,,,,,,,,,,,,,,4,0.49922429997241125,4,0.3,0.25,9.01073,return,0.7660787000204436,,,,,,,,,,,,,,,,,p302,22,female,up_down_width,2025-11-12_11h32.06.658,exp1,2023.1.0,60.012518608895434,
,,,,,,,,,,,,,,,,4,8.9,9.633333333333333,10.366666666666667,11.1,0,0.7333333333333333,0.18333333333333326,0.55,2.75,10,match,36.05,321,347,374,400,0,9,9,9,9,0,,,,,,,4,0,4,0,0,23,23,1,,,,,,,,,,,,,,4,0.4964274999802001,4,0.45,0.5,18.02146,return,0.6989229000173509,,,,,,,,,,,,,,,,,p302,22,female,up_down_width,2025-11-12_11h32.06.658,exp1,2023.1.0,60.012518608895434,
,,,,,,,,,,,,,,,,5,7.8,8.9,10,11.1,12.2,1.1,0.8500000000000001,0.25,4.65,10,initial,36.05,281,321,361,400,440,9,9,9,9,9,,,,,,,4,0,4,0,0,24,24,36,,,,,,,,,,,,,,5,0.6276507000438869,5,0.25,0.25,9.01073,return,0.8095835000276566,,,,,,,,,,,,,,,,,p302,22,female,up_down_width,2025-11-12_11h32.06.658,exp1,2023.1.0,60.012518608895434,
,,,,,,,,,,,,,,,,3,9.1,10,10.9,0,0,0.9,0.35,0.55,2.35,10,initial,36.05,328,361,393,0,0,9,9,9,0,0,,,,,,,4,0,4,0,0,25,25,11,,,,,,,,,,,,,,3,0.5141596999601461,3,0.5,0.5,18.02146,return,0.7008097000070848,,,,,,,,,,,,,,,,,p302,22,female,up_down_width,2025-11-12_11h32.06.658,exp1,2023.1.0,60.012518608895434,
,,,,,,,,,,,,,,,,5,8.6,9.3,10,10.7,11.4,0.7,0.1499999999999999,0.55,3.3499999999999996,10,initial,36.05,310,335,361,386,411,9,9,9,9,9,,,,,,,4,0,4,0,0,26,26,40,,,,,,,,,,,,,,4,0.44969129998935387,4,0.3,0.49999999999999994,18.02146,return,1.0866308000404388,,,,,,,,,,,,,,,,,p302,22,female,up_down_width,2025-11-12_11h32.06.658,exp1,2023.1.0,60.012518608895434,
,,,,,,,,,,,,,,,,5,7.8,8.9,10,11.1,12.2,1.1,0.55,0.55,4.95,10,initial,36.05,281,321,361,400,440,9,9,9,9,9,,,,,,,4,0,4,0,0,27,27,34,,,,,,,,,,,,,,5,0.6356562000582926,5,0.2,0.44999999999999996,16.21932,return,1.2341529000550508,,,,,,,,,,,,,,,,,p302,22,female,up_down_width,2025-11-12_11h32.06.658,exp1,2023.1.0,60.012518608895434,
,,,,,,,,,,,,,,,,5,7.8,8.9,10,11.1,12.2,1.1,0.7000000000000001,0.4,4.800000000000001,10,initial,36.05,281,321,361,400,440,9,9,9,9,9,,,,,,,4,0,4,0,0,28,28,38,,,,,,,,,,,,,,5,0.6371721999603324,5,0.3,0.44999999999999996,16.21932,return,0.930285099952016,,,,,,,,,,,,,,,,,p302,22,female,up_down_width,2025-11-12_11h32.06.658,exp1,2023.1.0,60.012518608895434,
,,,,,,,,,,,,,,,,5,8.35,9.175,10,10.825,11.65,0.825,0.575,0.25,3.55,10,match,36.05,301,331,361,390,420,9,9,9,9,9,,,,,,,4,0,4,0,0,29,29,20,,,,,,,,,,,,,,4,0.7346924999728799,4,0.45,0.30000000000000004,10.81288,return,1.8875433999928646,,,,,,,,,,,,,,,,,p302,22,female,up_down_width,2025-11-12_11h32.06.658,exp1,2023.1.0,60.012518608895434,
,,,,,,,,,,,,,,,,3,8.9,10,11.1,0,0,1.1,0.7000000000000001,0.4,2.6000000000000005,10,initial,36.05,321,361,400,0,0,9,9,9,0,0,,,,,,,4,0,4,0,0,30,30,4,,,,,,,,,,,,,,3,0.976797700044699,3,0.25,0.35,12.61502,return,1.017451699997764,,,,,,,,,,,,,,,,,p302,22,female,up_down_width,2025-11-12_11h32.06.658,exp1,2023.1.0,60.012518608895434,
,,,,,,,,,,,,,,,,5,8.6,9.3,10,10.7,11.4,0.7,0.44999999999999996,0.25,3.05,10,initial,36.05,310,335,361,386,411,9,9,9,9,9,,,,,,,4,0,4,0,0,31,31,42,,,,,,,,,,,,,,4,0.5536227999837138,4,0.45,0.25000000000000006,9.01073,return,1.6826220999937505,,,,,,,,,,,,,,,,,p302,22,female,up_down_width,2025-11-12_11h32.06.658,exp1,2023.1.0,60.012518608895434,
,,,,,,,,,,,,,,,,4,9.1,9.7,10.3,10.9,0,0.6000000000000001,0.20000000000000004,0.4,2.2,10,match,36.05,328,350,371,393,0,9,9,9,9,0,,,,,,,4,0,4,0,0,32,32,16,,,,,,,,,,,,,,3,0.6896040000137873,3,0.3,0.35,12.61502,return,1.0122023000149056,,,,,,,,,,,,,,,,,p302,22,female,up_down_width,2025-11-12_11h32.06.658,exp1,2023.1.0,60.012518608895434,
,,,,,,,,,,,,,,,,3,8.525,10,11.475,0,0,1.475,1.225,0.25,3.2,10,match,36.05,307,361,414,0,0,9,9,9,0,0,,,,,,,4,0,4,0,0,33,33,45,,,,,,,,,,,,,,3,0.6610193999949843,3,0.5,0.20000000000000007,7.20859,return,1.706233200035058,,,,,,,,,,,,,,,,,p302,22,female,up_down_width,2025-11-12_11h32.06.658,exp1,2023.1.0,60.012518608895434,
,,,,,,,,,,,,,,,,4,8.65,9.55,10.45,11.35,0,0.9,0.65,0.25,2.95,10,initial,36.05,312,344,377,409,0,9,9,9,9,0,,,,,,,4,0,4,0,0,34,34,30,,,,,,,,,,,,,,4,0.6550291000166908,4,0.2,0.2,7.20859,return,0.6429363000206649,,,,,,,,,,,,,,,,,p302,22,female,up_down_width,2025-11-12_11h32.06.658,exp1,2023.1.0,60.012518608895434,
,,,,,,,,,,,,,,,,3,9.1,10,10.9,0,0,0.9,0.5,0.4,2.2,10,initial,36.05,328,361,393,0,0,9,9,9,0,0,,,,,,,4,0,4,0,0,35,35,15,,,,,,,,,,,,,,3,0.6455528000369668,3,0.35,0.3,10.81288,return,0.8120859999908134,,,,,,,,,,,,,,,,,p302,22,female,up_down_width,2025-11-12_11h32.06.658,exp1,2023.1.0,60.012518608895434,
,,,,,,,,,,,,,,,,4,8.65,9.55,10.45,11.35,0,0.9,0.35,0.55,3.25,10,initial,36.05,312,344,377,409,0,9,9,9,9,0,,,,,,,4,0,4,0,0,36,36,28,,,,,,,,,,,,,,4,0.4922917999792844,4,0.4,0.4,14.41717,return,0.7277094000019133,,,,,,,,,,,,,,,,,p302,22,female,up_down_width,2025-11-12_11h32.06.658,exp1,2023.1.0,60.012518608895434,
,,,,,,,,,,,,,,,,5,8.65,9.325,10,10.675,11.35,0.675,0.42500000000000004,0.25,2.95,10,match,36.05,312,336,361,385,409,9,9,9,9,9,,,,,,,4,0,4,0,0,37,37,31,,,,,,,,,,,,,,5,0.621558399987407,5,0.45,0.20000000000000007,7.20859,return,1.4447457999922335,,,,,,,,,,,,,,,,,p302,22,female,up_down_width,2025-11-12_11h32.06.658,exp1,2023.1.0,60.012518608895434,
,,,,,,,,,,,,,,,,3,8.2,10,11.8,0,0,1.8,1.55,0.25,3.85,10,match,36.05,296,361,425,0,0,9,9,9,0,0,,,,,,,4,0,4,0,0,38,38,49,,,,,,,,,,,,,,3,0.4776430999627337,3,0.55,0.20000000000000007,7.20859,return,2.0582808000035584,,,,,,,,,,,,,,,,,p302,22,female,up_down_width,2025-11-12_11h32.06.658,exp1,2023.1.0,60.012518608895434,
,,,,,,,,,,,,,,,,3,8.9,10,11.1,0,0,1.1,0.8500000000000001,0.25,2.45,10,initial,36.05,321,361,400,0,0,9,9,9,0,0,,,,,,,4,0,4,0,0,39,39,2,,,,,,,,,,,,,,3,0.4741704000043683,3,0.45,0.15000000000000008,5.40644,return,1.6066214999882504,,,,,,,,,,,,,,,,,p302,22,female,up_down_width,2025-11-12_11h32.06.658,exp1,2023.1.0,60.012518608895434,
,,,,,,,,,,,,,,,,4,8.825,9.608333333333333,10.391666666666667,11.175,0,0.7833333333333333,0.5333333333333333,0.25,2.6,10,match,36.05,318,346,375,403,0,9,9,9,9,0,,,,,,,4,0,4,0,0,40,40,5,,,,,,,,,,,,,,4,0.4947327000554651,4,0.4,0.15000000000000008,5.40644,return,1.2897036000504158,,,,,,,,,,,,,,,,,p302,22,female,up_down_width,2025-11-12_11h32.06.658,exp1,2023.1.0,60.012518608895434,
,,,,,,,,,,,,,,,,4,9.1,9.7,10.3,10.9,0,0.6,0.04999999999999997,0.55,2.35,10,match,36.05,328,350,371,393,0,9,9,9,9,0,,,,,,,4,0,4,0,0,41,41,12,,,,,,,,,,,,,,4,0.7294406000291929,4,0.25,0.49999999999999994,18.02146,return,1.4511796000297181,,,,,,,,,,,,,,,,,p302,22,female,up_down_width,2025-11-12_11h32.06.658,exp1,2023.1.0,60.012518608895434,
,,,,,,,,,,,,,,,,3,8.6,10,11.4,0,0,1.4,1.15,0.25,3.05,10,match,36.05,310,361,411,0,0,9,9,9,0,0,,,,,,,4,0,4,0,0,42,42,43,,,,,,,,,,,,,,3,0.5843719999538735,3,0.3,0.2,7.20859,return,0.9769234000123106,,,,,,,,,,,,,,,,,p302,22,female,up_down_width,2025-11-12_11h32.06.658,exp1,2023.1.0,60.012518608895434,
,,,,,,,,,,,,,,,,3,8.6,10,11.4,0,0,1.4,0.85,0.55,3.35,10,match,36.05,310,361,411,0,0,9,9,9,0,0,,,,,,,4,0,4,0,0,43,43,41,,,,,,,,,,,,,,3,0.7421986000263132,3,0.2,0.49999999999999994,18.02146,return,1.4642979000345804,,,,,,,,,,,,,,,,,p302,22,female,up_down_width,2025-11-12_11h32.06.658,exp1,2023.1.0,60.012518608895434,
,,,,,,,,,,,,,,,,4,9.3,9.766666666666667,10.233333333333333,10.7,0,0.4666666666666667,0.21666666666666665,0.25,1.65,10,match,36.05,335,352,369,386,0,9,9,9,9,0,,,,,,,4,0,4,0,0,44,44,8,,,,,,,,,,,,,,4,0.5343724000267684,4,0.55,0.20000000000000007,7.20859,return,1.9676719999988563,,,,,,,,,,,,,,,,,p302,22,female,up_down_width,2025-11-12_11h32.06.658,exp1,2023.1.0,60.012518608895434,
,,,,,,,,,,,,,,,,3,8.9,10,11.1,0,0,1.1,0.55,0.55,2.75,10,initial,36.05,321,361,400,0,0,9,9,9,0,0,,,,,,,4,0,4,0,0,45,45,0,,,,,,,,,,,,,,3,0.42945330002112314,3,0.25,0.49999999999999994,18.02146,return,1.2268498999765143,,,,,,,,,,,,,,,,,p302,22,female,up_down_width,2025-11-12_11h32.06.658,exp1,2023.1.0,60.012518608895434,
,,,,,,,,,,,,,,,,3,7.8,10,12.2,0,0,2.2,1.65,0.55,4.95,10,match,36.05,281,361,440,0,0,9,9,9,0,0,,,,,,,4,0,4,0,0,46,46,35,,,,,,,,,,,,,,3,0.5617669000057504,3,0.55,0.55,19.82361,return,1.1148531999788247,,,,,,,,,,,,,,,,,p302,22,female,up_down_width,2025-11-12_11h32.06.658,exp1,2023.1.0,60.012518608895434,
,,,,,,,,,,,,,,,,3,8.2,10,11.8,0,0,1.8,1.25,0.55,4.15,10,match,36.05,296,361,425,0,0,9,9,9,0,0,,,,,,,4,0,4,0,0,47,47,47,,,,,,,,,,,,,,3,0.4169312000158243,3,0.5,0.5,18.02146,return,0.6563144999672659,,,,,,,,,,,,,,,,,p302,22,female,up_down_width,2025-11-12_11h32.06.658,exp1,2023.1.0,60.012518608895434,
,,,,,,,,,,,,,,,,5,8.2,9.1,10,10.9,11.8,0.9,0.65,0.25,3.85,10,initial,36.05,296,328,361,393,425,9,9,9,9,9,,,,,,,4,0,4,0,0,48,48,48,,,,,,,,,,,,,,5,1.1660918000270613,5,0.55,0.30000000000000004,10.81288,return,1.5673391000018455,,,,,,,,,,,,,,,,,p302,22,female,up_down_width,2025-11-12_11h32.06.658,exp1,2023.1.0,60.012518608895434,
,,,,,,,,,,,,,,,,3,9.3,10,10.7,0,0,0.7,0.1499999999999999,0.55,1.95,10,initial,36.05,335,361,386,0,0,9,9,9,0,0,,,,,,,4,0,4,0,0,49,49,6,,,,,,,,,,,,,,3,1.0429706000140868,3,0.4,0.4,14.41717,return,0.761744900024496,,,,,,,,,,,,,,,,,p302,22,female,up_down_width,2025-11-12_11h32.06.658,exp1,2023.1.0,60.012518608895434,
,,,,,,,,,,,,,,,,4,8.35,9.45,10.55,11.65,0,1.1,0.8500000000000001,0.25,3.5500000000000003,10,initial,36.05,301,341,380,420,0,9,9,9,9,0,,,,,,,4,0,4,0,0,50,50,19,,,,,,,,,,,,,,3,0.4988052999833599,3,0.5,0.30000000000000004,10.81288,return,1.423065899987705,,,,,,,,,,,,,,,,,p302,22,female,up_down_width,2025-11-12_11h32.06.658,exp1,2023.1.0,60.012518608895434,
,,,,,,,,,,,,,,,,4,8.95,9.65,10.35,11.05,0,0.7,0.29999999999999993,0.4,2.5,10,initial,36.05,323,348,373,398,0,9,9,9,9,0,,,,,,,4,0,4,0,0,51,51,26,,,,,,,,,,,,,,4,0.6462674999493174,4,0.45,0.4,14.41717,return,0.7811151000205427,,,,,,,,,,,,,,,,,p302,22,female,up_down_width,2025-11-12_11h32.06.658,exp1,2023.1.0,60.012518608895434,
,,,,,,,,,,,,,,,,,,,,,,,,,,,,,,,,,,,,,,,,,,,,,4,0,4,0,,,,,,,,,,,,,,,,,,,,,,,,,,,,1759.8808464999893,1759.8808464999893,1759.8808464999893,,,,,,,,,,,,p302,22,female,up_down_width,2025-11-12_11h32.06.658,exp1,2023.1.0,60.012518608895434,
,,,,,,,,,,,,,,,,5,8.65,9.325,10,10.675,11.35,0.675,0.275,0.4,3.1,10,match,36.05,312,336,361,385,409,9,9,9,9,9,,,,,,,5,0,5,0,0,0,0,33,,,,,,,,,,,,,,4,0.5325405999901704,4,0.4,0.35000000000000003,12.61502,return,1.3904079000349157,,,,,,,,,,,,,,,,,p302,22,female,up_down_width,2025-11-12_11h32.06.658,exp1,2023.1.0,60.012518608895434,
,,,,,,,,,,,,,,,,3,8.525,10,11.475,0,0,1.475,1.225,0.25,3.2,10,match,36.05,307,361,414,0,0,9,9,9,0,0,,,,,,,5,0,5,0,0,1,1,45,,,,,,,,,,,,,,3,0.5142495000036433,3,0.45,0.20000000000000007,7.20859,return,1.565322699956596,,,,,,,,,,,,,,,,,p302,22,female,up_down_width,2025-11-12_11h32.06.658,exp1,2023.1.0,60.012518608895434,
,,,,,,,,,,,,,,,,3,8.6,10,11.4,0,0,1.4,0.85,0.55,3.35,10,match,36.05,310,361,411,0,0,9,9,9,0,0,,,,,,,5,0,5,0,0,2,2,41,,,,,,,,,,,,,,4,0.38697279995540157,4,0.3,0.3,10.81288,return,1.0409482000395656,,,,,,,,,,,,,,,,,p302,22,female,up_down_width,2025-11-12_11h32.06.658,exp1,2023.1.0,60.012518608895434,
,,,,,,,,,,,,,,,,3,8.6,10,11.4,0,0,1.4,1.15,0.25,3.05,10,match,36.05,310,361,411,0,0,9,9,9,0,0,,,,,,,5,0,5,0,0,3,3,43,,,,,,,,,,,,,,3,0.34551950002787635,3,0.3,0.25,9.01073,return,0.8428027000045404,,,,,,,,,,,,,,,,,p302,22,female,up_down_width,2025-11-12_11h32.06.658,exp1,2023.1.0,60.012518608895434,
,,,,,,,,,,,,,,,,4,8.65,9.55,10.45,11.35,0,0.9,0.35,0.55,3.25,10,initial,36.05,312,344,377,409,0,9,9,9,9,0,,,,,,,5,0,5,0,0,4,4,28,,,,,,,,,,,,,,4,0.5876049000071362,4,0.2,0.44999999999999996,16.21932,return,1.4274118000175804,,,,,,,,,,,,,,,,,p302,22,female,up_down_width,2025-11-12_11h32.06.658,exp1,2023.1.0,60.012518608895434,
,,,,,,,,,,,,,,,,3,9.3,10,10.7,0,0,0.7,0.44999999999999996,0.25,1.65,10,initial,36.05,335,361,386,0,0,9,9,9,0,0,,,,,,,5,0,5,0,0,5,5,7,,,,,,,,,,,,,,3,0.5229512000223622,3,0.25,0.2,7.20859,return,0.7416793999727815,,,,,,,,,,,,,,,,,p302,22,female,up_down_width,2025-11-12_11h32.06.658,exp1,2023.1.0,60.012518608895434,
,,,,,,,,,,,,,,,,5,8.6,9.3,10,10.7,11.4,0.7,0.29999999999999993,0.4,3.1999999999999997,10,initial,36.05,310,335,361,386,411,9,9,9,9,9,,,,,,,5,0,5,0,0,6,6,44,,,,,,,,,,,,,,5,0.6548703999724239,5,0.35,0.3,10.81288,return,0.7075362000032328,,,,,,,,,,,,,,,,,p302,22,female,up_down_width,2025-11-12_11h32.06.658,exp1,2023.1.0,60.012518608895434,
,,,,,,,,,,,,,,,,3,7.800000000000001,10,12.2,0,0,2.1999999999999997,1.7999999999999998,0.4,4.8,10,match,36.05,281,361,440,0,0,9,9,9,0,0,,,,,,,5,0,5,0,0,7,7,39,,,,,,,,,,,,,,3,0.3883132000337355,3,0.25,0.3,10.81288,return,1.1863139999913983,,,,,,,,,,,,,,,,,p302,22,female,up_down_width,2025-11-12_11h32.06.658,exp1,2023.1.0,60.012518608895434,
,,,,,,,,,,,,,,,,3,8.9,10,11.1,0,0,1.1,0.7000000000000001,0.4,2.6000000000000005,10,initial,36.05,321,361,400,0,0,9,9,9,0,0,,,,,,,5,0,5,0,0,8,8,4,,,,,,,,,,,,,,3,0.39501790003851056,3,0.25,0.35,12.61502,return,0.9691816000267863,,,,,,,,,,,,,,,,,p302,22,female,up_down_width,2025-11-12_11h32.06.658,exp1,2023.1.0,60.012518608895434,
,,,,,,,,,,,,,,,,4,9.1,9.7,10.3,10.9,0,0.6,0.04999999999999997,0.55,2.35,10,match,36.05,328,350,371,393,0,9,9,9,9,0,,,,,,,5,0,5,0,0,9,9,12,,,,,,,,,,,,,,4,0.6358265999588184,4,0.55,0.55,19.82361,return,1.1846804999513552,,,,,,,,,,,,,,,,,p302,22,female,up_down_width,2025-11-12_11h32.06.658,exp1,2023.1.0,60.012518608895434,
,,,,,,,,,,,,,,,,5,8.95,9.475,10,10.525,11.05,0.525,0.275,0.25,2.35,10,match,36.05,323,342,361,379,398,9,9,9,9,9,,,,,,,5,0,5,0,0,10,10,25,,,,,,,,,,,,,,4,0.889788500033319,4,0.45,0.25000000000000006,9.01073,return,1.3159063999773934,,,,,,,,,,,,,,,,,p302,22,female,up_down_width,2025-11-12_11h32.06.658,exp1,2023.1.0,60.012518608895434,
,,,,,,,,,,,,,,,,5,7.8,8.9,10,11.1,12.2,1.1,0.7000000000000001,0.4,4.800000000000001,10,initial,36.05,281,321,361,400,440,9,9,9,9,9,,,,,,,5,0,5,0,0,11,11,38,,,,,,,,,,,,,,5,0.6892498999950476,5,0.3,0.35,12.61502,return,0.8842055999557488,,,,,,,,,,,,,,,,,p302,22,female,up_down_width,2025-11-12_11h32.06.658,exp1,2023.1.0,60.012518608895434,
,,,,,,,,,,,,,,,,5,8.35,9.175,10,10.825,11.65,0.825,0.575,0.25,3.55,10,match,36.05,301,331,361,390,420,9,9,9,9,9,,,,,,,5,0,5,0,0,12,12,20,,,,,,,,,,,,,,5,0.9428360000019893,5,0.55,0.20000000000000007,7.20859,return,2.2796841000090353,,,,,,,,,,,,,,,,,p302,22,female,up_down_width,2025-11-12_11h32.06.658,exp1,2023.1.0,60.012518608895434,
,,,,,,,,,,,,,,,,3,9.1,10,10.9,0,0,0.9,0.35,0.55,2.35,10,initial,36.05,328,361,393,0,0,9,9,9,0,0,,,,,,,5,0,5,0,0,13,13,11,,,,,,,,,,,,,,3,0.5536991999833845,3,0.25,0.49999999999999994,18.02146,return,1.3621317999786697,,,,,,,,,,,,,,,,,p302,22,female,up_down_width,2025-11-12_11h32.06.658,exp1,2023.1.0,60.012518608895434,
,,,,,,,,,,,,,,,,3,9.3,10,10.7,0,0,0.7,0.1499999999999999,0.55,1.95,10,initial,36.05,335,361,386,0,0,9,9,9,0,0,,,,,,,5,0,5,0,0,14,14,6,,,,,,,,,,,,,,3,0.5263059999560937,3,0.55,0.5,18.02146,return,0.9052755000302568,,,,,,,,,,,,,,,,,p302,22,female,up_down_width,2025-11-12_11h32.06.658,exp1,2023.1.0,60.012518608895434,
,,,,,,,,,,,,,,,,5,7.8,8.9,10,11.1,12.2,1.1,0.55,0.55,4.95,10,initial,36.05,281,321,361,400,440,9,9,9,9,9,,,,,,,5,0,5,0,0,15,15,34,,,,,,,,,,,,,,5,0.525606399984099,5,0.4,0.45,16.21932,return,0.8068956999923103,,,,,,,,,,,,,,,,,p302,22,female,up_down_width,2025-11-12_11h32.06.658,exp1,2023.1.0,60.012518608895434,
,,,,,,,,,,,,,,,,4,9.3,9.766666666666667,10.233333333333333,10.7,0,0.4666666666666667,0.06666666666666665,0.4,1.8,10,match,36.05,335,352,369,386,0,9,9,9,9,0,,,,,,,5,0,5,0,0,16,16,10,,,,,,,,,,,,,,3,0.6803725999779999,3,0.3,0.25,9.01073,return,0.747593300009612,,,,,,,,,,,,,,,,,p302,22,female,up_down_width,2025-11-12_11h32.06.658,exp1,2023.1.0,60.012518608895434,
,,,,,,,,,,,,,,,,3,8.2,10,11.8,0,0,1.7999999999999998,1.4,0.4,4,10,match,36.05,296,361,425,0,0,9,9,9,0,0,,,,,,,5,0,5,0,0,17,17,51,,,,,,,,,,,,,,3,0.48804819997167215,3,0.3,0.25,9.01073,return,0.7863396999891847,,,,,,,,,,,,,,,,,p302,22,female,up_down_width,2025-11-12_11h32.06.658,exp1,2023.1.0,60.012518608895434,
,,,,,,,,,,,,,,,,4,9.3,9.766666666666667,10.233333333333333,10.7,0,0.4666666666666667,0.21666666666666665,0.25,1.65,10,match,36.05,335,352,369,386,0,9,9,9,9,0,,,,,,,5,0,5,0,0,18,18,8,,,,,,,,,,,,,,3,0.9129435000359081,3,0.4,0.20000000000000007,7.20859,return,1.2919241999625228,,,,,,,,,,,,,,,,,p302,22,female,up_down_width,2025-11-12_11h32.06.658,exp1,2023.1.0,60.012518608895434,
,,,,,,,,,,,,,,,,5,7.8,8.9,10,11.1,12.2,1.1,0.8500000000000001,0.25,4.65,10,initial,36.05,281,321,361,400,440,9,9,9,9,9,,,,,,,5,0,5,0,0,19,19,36,,,,,,,,,,,,,,5,0.702400799957104,5,0.3,0.15000000000000002,5.40644,return,1.5681914000306278,,,,,,,,,,,,,,,,,p302,22,female,up_down_width,2025-11-12_11h32.06.658,exp1,2023.1.0,60.012518608895434,
,,,,,,,,,,,,,,,,5,8.35,9.175,10,10.825,11.65,0.8250000000000001,0.275,0.55,3.85,10,match,36.05,301,331,361,390,420,9,9,9,9,9,,,,,,,5,0,5,0,0,20,20,18,,,,,,,,,,,,,,4,0.7091674000257626,4,0.45,0.4,14.41717,return,0.824138599971775,,,,,,,,,,,,,,,,,p302,22,female,up_down_width,2025-11-12_11h32.06.658,exp1,2023.1.0,60.012518608895434,
,,,,,,,,,,,,,,,,5,8.2,9.1,10,10.9,11.8,0.9,0.65,0.25,3.85,10,initial,36.05,296,328,361,393,425,9,9,9,9,9,,,,,,,5,0,5,0,0,21,21,48,,,,,,,,,,,,,,4,0.7012849999591708,4,0.2,0.2,7.20859,return,0.7360238000401296,,,,,,,,,,,,,,,,,p302,22,female,up_down_width,2025-11-12_11h32.06.658,exp1,2023.1.0,60.012518608895434,
,,,,,,,,,,,,,,,,4,8.9,9.633333333333333,10.366666666666667,11.1,0,0.7333333333333334,0.4833333333333334,0.25,2.45,10,match,36.05,321,347,374,400,0,9,9,9,9,0,,,,,,,5,0,5,0,0,22,22,3,,,,,,,,,,,,,,3,0.5481134000001475,3,0.55,0.20000000000000007,7.20859,return,2.636301700025797,,,,,,,,,,,,,,,,,p302,22,female,up_down_width,2025-11-12_11h32.06.658,exp1,2023.1.0,60.012518608895434,
,,,,,,,,,,,,,,,,3,8.9,10,11.1,0,0,1.1,0.8500000000000001,0.25,2.45,10,initial,36.05,321,361,400,0,0,9,9,9,0,0,,,,,,,5,0,5,0,0,23,23,2,,,,,,,,,,,,,,3,0.46347099996637553,3,0.35,0.2,7.20859,return,1.2130670999758877,,,,,,,,,,,,,,,,,p302,22,female,up_down_width,2025-11-12_11h32.06.658,exp1,2023.1.0,60.012518608895434,
,,,,,,,,,,,,,,,,4,9.1,9.7,10.3,10.9,0,0.6000000000000001,0.20000000000000004,0.4,2.2,10,match,36.05,328,350,371,393,0,9,9,9,9,0,,,,,,,5,0,5,0,0,24,24,16,,,,,,,,,,,,,,4,0.7038875999860466,4,0.35,0.3,10.81288,return,1.2986786999972537,,,,,,,,,,,,,,,,,p302,22,female,up_down_width,2025-11-12_11h32.06.658,exp1,2023.1.0,60.012518608895434,
,,,,,,,,,,,,,,,,3,8.2,10,11.8,0,0,1.8,1.25,0.55,4.15,10,match,36.05,296,361,425,0,0,9,9,9,0,0,,,,,,,5,0,5,0,0,25,25,47,,,,,,,,,,,,,,3,0.37371530005475506,3,0.35,0.39999999999999997,14.41717,return,0.901310499990359,,,,,,,,,,,,,,,,,p302,22,female,up_down_width,2025-11-12_11h32.06.658,exp1,2023.1.0,60.012518608895434,
