amount_p,posx1_p,posx2_p,posx3_p,posx4_p,posx5_p,center_to_center_p,edge_to_edge_p,w_p,stim_lengt_p,eccentricity_p,line1_p,line2_p,line3_p,line4_p,line5_p,amount,posx1,posx2,posx3,posx4,posx5,center_to_center,edge_to_edge,w,stim_length,eccentricity,trial_type,deg_to_pix_index,posx1_in_pix,posx2_in_pix,posx3_in_pix,posx4_in_pix,posx5_in_pix,line1,line2,line3,line4,line5,posx,setsize_cobdi,trials.thisRepN,trials.thisTrialN,trials.thisN,trials.thisIndex,blocks.thisRepN,blocks.thisTrialN,blocks.thisN,blocks.thisIndex,loop.thisRepN,loop.thisTrialN,loop.thisN,loop.thisIndex,first.thisRepN,first.thisTrialN,first.thisN,first.thisIndex,second.thisRepN,second.thisTrialN,second.thisN,second.thisIndex,thisRow.t,notes,key_resp_3.started,key_resp_3.keys,key_resp_3.rt,key_resp.keys,key_resp.rt,response,starting_width_deg,response_width_degree,response_width_pixel,next_5.keys,next_5.rt,key_resp_4.keys,key_resp_4.rt,text_3.started,text_4.started,key_resp_2.started,text_2.started,key_resp_2.keys,key_resp_2.rt,adjusting.started,next.keys,next.rt,text_control2.started,key_resp.started,key_resp.corr,text_bye.started,text_bye.stopped,participant,age,gender,resp_group,date,expName,psychopyVersion,frameRate,
,,,,,,,,,,,,,,,,,,,,,,,,,,,,,,,,,,,,,,,,,,,,,,,,,,,,,,,,,,,,,,,450.6591513999738,c,148.09457090008073,,,,,,,,,,,,,,,,,,,,,,,,,p303,21,female,left_right_width,2025-11-16_16h01.03.504,exp1,2023.1.0,59.94488665630131,
4,9.5,9.833333333333334,10.166666666666666,10.5,0,0.33333333333333337,0.23333333333333336,0.1,1.1,10,9,9,9,9,0,,,,,,,,,,,,,,,,,,,,,,,,,,0,0,0,3,,,,,,,,,,,,,,,,,,,,,,3,3.0159493000246584,3,0.5,0.15000000000000008,5.40644,return,6.526755300001241,,,,,,,,,,,,,,,,,p303,21,female,left_right_width,2025-11-16_16h01.03.504,exp1,2023.1.0,59.94488665630131,
5,8.6,9.3,10,10.7,11.4,0.7,0.29999999999999993,0.4,3.1999999999999997,10,9,9,9,9,9,,,,,,,,,,,,,,,,,,,,,,,,,,0,1,1,7,,,,,,,,,,,,,,,,,,,,,,4,3.4268262000987306,4,0.3,0.25,9.01073,return,13.767858000006527,,,,,,,,,,,,,,,,,p303,21,female,left_right_width,2025-11-16_16h01.03.504,exp1,2023.1.0,59.94488665630131,
5,9.25,9.625,10,10.375,10.75,0.375,0.125,0.25,1.75,10,9,9,9,9,9,,,,,,,,,,,,,,,,,,,,,,,,,,0,2,2,6,,,,,,,,,,,,,,,,,,,,,,4,9.236330099985935,4,0.55,0.25000000000000006,9.01073,return,5.810395000036806,,,,,,,,,,,,,,,,,p303,21,female,left_right_width,2025-11-16_16h01.03.504,exp1,2023.1.0,59.94488665630131,
3,9.5,10,10.5,0,0,0.5,0.4,0.1,1.1,10,9,9,9,0,0,,,,,,,,,,,,,,,,,,,,,,,,,,0,3,3,0,,,,,,,,,,,,,,,,,,,,,,2,1.6596222999505699,2,0.4,0.10000000000000007,3.60429,return,5.92818360007368,,,,,,,,,,,,,,,,,p303,21,female,left_right_width,2025-11-16_16h01.03.504,exp1,2023.1.0,59.94488665630131,
3,8.2,10,11.8,0,0,1.7999999999999998,1.4,0.4,4,10,9,9,9,0,0,,,,,,,,,,,,,,,,,,,,,,,,,,0,4,4,2,,,,,,,,,,,,,,,,,,,,,,2,6.647458499995992,2,0.55,0.35000000000000003,12.61502,return,8.79682390007656,,,,,,,,,,,,,,,,,p303,21,female,left_right_width,2025-11-16_16h01.03.504,exp1,2023.1.0,59.94488665630131,
5,9,9.5,10,10.5,11,0.5,0.09999999999999998,0.4,2.4,10,9,9,9,9,9,,,,,,,,,,,,,,,,,,,,,,,,,,0,5,5,8,,,,,,,,,,,,,,,,,,,,,,3,12.415680899983272,3,0.45,0.30000000000000004,10.81288,return,8.974865399999544,,,,,,,,,,,,,,,,,p303,21,female,left_right_width,2025-11-16_16h01.03.504,exp1,2023.1.0,59.94488665630131,
4,8.65,9.55,10.45,11.35,0,0.9,0.5,0.4,3.1,10,9,9,9,9,0,,,,,,,,,,,,,,,,,,,,,,,,,,0,6,6,5,,,,,,,,,,,,,,,,,,,,,,3,1.5891287999693304,3,0.55,0.35000000000000003,12.61502,return,8.229004499968141,,,,,,,,,,,,,,,,,p303,21,female,left_right_width,2025-11-16_16h01.03.504,exp1,2023.1.0,59.94488665630131,
4,9.25,9.75,10.25,10.75,0,0.5,0.25,0.25,1.75,10,9,9,9,9,0,,,,,,,,,,,,,,,,,,,,,,,,,,0,7,7,4,,,,,,,,,,,,,,,,,,,,,,3,2.2449814999708906,3,0.5,0.30000000000000004,10.81288,return,4.441312400042079,,,,,,,,,,,,,,,,,p303,21,female,left_right_width,2025-11-16_16h01.03.504,exp1,2023.1.0,59.94488665630131,
3,9,10,11,0,0,1,0.9,0.1,2.1,10,9,9,9,0,0,,,,,,,,,,,,,,,,,,,,,,,,,,0,8,8,1,,,,,,,,,,,,,,,,,,,,,,2,1.9934933999320492,2,0.4,0.05000000000000007,1.80215,return,5.832420399994589,,,,,,,,,,,,,,,,,p303,21,female,left_right_width,2025-11-16_16h01.03.504,exp1,2023.1.0,59.94488665630131,
,,,,,,,,,,,,,,,,,,,,,,,,,,,,,,,,,,,,,,,,,,,,,,,,,,,,,,,,,,,,,,,,,,,,,,,,,,c,242.7983271999983,,,,,,,,,,,,,,,p303,21,female,left_right_width,2025-11-16_16h01.03.504,exp1,2023.1.0,59.94488665630131,
,,,,,,,,,,,,,,,,5,7.8,8.9,10,11.1,12.2,1.1,0.7000000000000001,0.4,4.800000000000001,10,initial,36.05,281,321,361,400,440,9,9,9,9,9,,,,,,,0,0,0,0,0,0,0,38,,,,,,,,,,,,,,4,3.011947999941185,4,0.4,0.20000000000000007,7.20859,return,5.194472700008191,,,,,,,,,,,,,,,,,p303,21,female,left_right_width,2025-11-16_16h01.03.504,exp1,2023.1.0,59.94488665630131,
,,,,,,,,,,,,,,,,3,8.525,10,11.475,0,0,1.475,1.225,0.25,3.2,10,match,36.05,307,361,414,0,0,9,9,9,0,0,,,,,,,0,0,0,0,0,1,1,45,,,,,,,,,,,,,,3,1.4374605000484735,3,0.3,0.3,10.81288,return,2.707454700022936,,,,,,,,,,,,,,,,,p303,21,female,left_right_width,2025-11-16_16h01.03.504,exp1,2023.1.0,59.94488665630131,
,,,,,,,,,,,,,,,,3,9.1,10,10.9,0,0,0.9,0.65,0.25,2.05,10,initial,36.05,328,361,393,0,0,9,9,9,0,0,,,,,,,0,0,0,0,0,2,2,13,,,,,,,,,,,,,,2,1.1992411999963224,2,0.35,0.2,7.20859,return,2.9582933000056073,,,,,,,,,,,,,,,,,p303,21,female,left_right_width,2025-11-16_16h01.03.504,exp1,2023.1.0,59.94488665630131,
,,,,,,,,,,,,,,,,3,9.3,10,10.7,0,0,0.7,0.29999999999999993,0.4,1.8,10,initial,36.05,335,361,386,0,0,9,9,9,0,0,,,,,,,0,0,0,0,0,3,3,9,,,,,,,,,,,,,,2,1.2217730999691412,2,0.35,0.25,9.01073,return,4.803518800064921,,,,,,,,,,,,,,,,,p303,21,female,left_right_width,2025-11-16_16h01.03.504,exp1,2023.1.0,59.94488665630131,
,,,,,,,,,,,,,,,,3,8.9,10,11.1,0,0,1.1,0.55,0.55,2.75,10,initial,36.05,321,361,400,0,0,9,9,9,0,0,,,,,,,0,0,0,0,0,4,4,0,,,,,,,,,,,,,,2,1.211613200022839,2,0.4,0.5,18.02146,return,2.266325499978848,,,,,,,,,,,,,,,,,p303,21,female,left_right_width,2025-11-16_16h01.03.504,exp1,2023.1.0,59.94488665630131,
,,,,,,,,,,,,,,,,5,8.6,9.3,10,10.7,11.4,0.7,0.29999999999999993,0.4,3.1999999999999997,10,initial,36.05,310,335,361,386,411,9,9,9,9,9,,,,,,,0,0,0,0,0,5,5,44,,,,,,,,,,,,,,3,0.9836308000376448,3,0.2,0.35,12.61502,return,2.1279364000074565,,,,,,,,,,,,,,,,,p303,21,female,left_right_width,2025-11-16_16h01.03.504,exp1,2023.1.0,59.94488665630131,
,,,,,,,,,,,,,,,,5,8.275,9.1375,10,10.8625,11.725,0.8625,0.6125,0.25,3.7,10,match,36.05,298,329,361,392,423,9,9,9,9,9,,,,,,,0,0,0,0,0,6,6,22,,,,,,,,,,,,,,3,1.0042908999603242,3,0.45,0.30000000000000004,10.81288,return,1.7304944000206888,,,,,,,,,,,,,,,,,p303,21,female,left_right_width,2025-11-16_16h01.03.504,exp1,2023.1.0,59.94488665630131,
,,,,,,,,,,,,,,,,3,9.1,10,10.9,0,0,0.9,0.35,0.55,2.35,10,initial,36.05,328,361,393,0,0,9,9,9,0,0,,,,,,,0,0,0,0,0,7,7,11,,,,,,,,,,,,,,2,0.9216430000960827,2,0.25,0.39999999999999997,14.41717,return,2.1317876999964938,,,,,,,,,,,,,,,,,p303,21,female,left_right_width,2025-11-16_16h01.03.504,exp1,2023.1.0,59.94488665630131,
,,,,,,,,,,,,,,,,3,9.3,10,10.7,0,0,0.7,0.44999999999999996,0.25,1.65,10,initial,36.05,335,361,386,0,0,9,9,9,0,0,,,,,,,0,0,0,0,0,8,8,7,,,,,,,,,,,,,,2,1.2441476999083534,2,0.3,0.25,9.01073,return,3.0012754999333993,,,,,,,,,,,,,,,,,p303,21,female,left_right_width,2025-11-16_16h01.03.504,exp1,2023.1.0,59.94488665630131,
,,,,,,,,,,,,,,,,3,9.1,10,10.9,0,0,0.9,0.5,0.4,2.2,10,initial,36.05,328,361,393,0,0,9,9,9,0,0,,,,,,,0,0,0,0,0,9,9,15,,,,,,,,,,,,,,2,1.1295593000249937,2,0.2,0.35,12.61502,return,1.8347426999825984,,,,,,,,,,,,,,,,,p303,21,female,left_right_width,2025-11-16_16h01.03.504,exp1,2023.1.0,59.94488665630131,
,,,,,,,,,,,,,,,,5,8.95,9.475,10,10.525,11.05,0.525,0.125,0.4,2.5,10,match,36.05,323,342,361,379,398,9,9,9,9,9,,,,,,,0,0,0,0,0,10,10,27,,,,,,,,,,,,,,2,1.2496566000627354,2,0.35,0.3,10.81288,return,2.3363181999884546,,,,,,,,,,,,,,,,,p303,21,female,left_right_width,2025-11-16_16h01.03.504,exp1,2023.1.0,59.94488665630131,
,,,,,,,,,,,,,,,,4,8.35,9.45,10.55,11.65,0,1.1,0.8500000000000001,0.25,3.5500000000000003,10,initial,36.05,301,341,380,420,0,9,9,9,9,0,,,,,,,0,0,0,0,0,11,11,19,,,,,,,,,,,,,,2,1.0115235999692231,2,0.3,0.3,10.81288,return,3.8338706000940874,,,,,,,,,,,,,,,,,p303,21,female,left_right_width,2025-11-16_16h01.03.504,exp1,2023.1.0,59.94488665630131,
,,,,,,,,,,,,,,,,5,8.65,9.325,10,10.675,11.35,0.675,0.42500000000000004,0.25,2.95,10,match,36.05,312,336,361,385,409,9,9,9,9,9,,,,,,,0,0,0,0,0,12,12,31,,,,,,,,,,,,,,4,2.362262999988161,4,0.4,0.25000000000000006,9.01073,return,2.826384300016798,,,,,,,,,,,,,,,,,p303,21,female,left_right_width,2025-11-16_16h01.03.504,exp1,2023.1.0,59.94488665630131,
,,,,,,,,,,,,,,,,4,8.65,9.55,10.45,11.35,0,0.9,0.5,0.4,3.1,10,initial,36.05,312,344,377,409,0,9,9,9,9,0,,,,,,,0,0,0,0,0,13,13,32,,,,,,,,,,,,,,3,1.3696808000095189,3,0.45,0.30000000000000004,10.81288,return,2.899444799986668,,,,,,,,,,,,,,,,,p303,21,female,left_right_width,2025-11-16_16h01.03.504,exp1,2023.1.0,59.94488665630131,
,,,,,,,,,,,,,,,,3,9.3,10,10.7,0,0,0.7,0.1499999999999999,0.55,1.95,10,initial,36.05,335,361,386,0,0,9,9,9,0,0,,,,,,,0,0,0,0,0,14,14,6,,,,,,,,,,,,,,2,0.9119403000222519,2,0.2,0.44999999999999996,16.21932,return,3.722304700058885,,,,,,,,,,,,,,,,,p303,21,female,left_right_width,2025-11-16_16h01.03.504,exp1,2023.1.0,59.94488665630131,
,,,,,,,,,,,,,,,,3,7.800000000000001,10,12.2,0,0,2.1999999999999997,1.7999999999999998,0.4,4.8,10,match,36.05,281,361,440,0,0,9,9,9,0,0,,,,,,,0,0,0,0,0,15,15,39,,,,,,,,,,,,,,2,1.020191099960357,2,0.3,0.35,12.61502,return,7.121704500052147,,,,,,,,,,,,,,,,,p303,21,female,left_right_width,2025-11-16_16h01.03.504,exp1,2023.1.0,59.94488665630131,
,,,,,,,,,,,,,,,,4,8.9,9.633333333333333,10.366666666666667,11.1,0,0.7333333333333334,0.4833333333333334,0.25,2.45,10,match,36.05,321,347,374,400,0,9,9,9,9,0,,,,,,,0,0,0,0,0,16,16,3,,,,,,,,,,,,,,2,1.702519999933429,2,0.5,0.25000000000000006,9.01073,return,2.4653793000616133,,,,,,,,,,,,,,,,,p303,21,female,left_right_width,2025-11-16_16h01.03.504,exp1,2023.1.0,59.94488665630131,
,,,,,,,,,,,,,,,,4,8.95,9.65,10.35,11.05,0,0.7,0.44999999999999996,0.25,2.3499999999999996,10,initial,36.05,323,348,373,398,0,9,9,9,9,0,,,,,,,0,0,0,0,0,17,17,24,,,,,,,,,,,,,,4,1.541942699928768,4,0.35,0.35,12.61502,return,4.854937699972652,,,,,,,,,,,,,,,,,p303,21,female,left_right_width,2025-11-16_16h01.03.504,exp1,2023.1.0,59.94488665630131,
,,,,,,,,,,,,,,,,3,8.6,10,11.4,0,0,1.4,0.85,0.55,3.35,10,match,36.05,310,361,411,0,0,9,9,9,0,0,,,,,,,0,0,0,0,0,18,18,41,,,,,,,,,,,,,,3,0.9992211000062525,3,0.5,0.30000000000000004,10.81288,return,2.111139200045727,,,,,,,,,,,,,,,,,p303,21,female,left_right_width,2025-11-16_16h01.03.504,exp1,2023.1.0,59.94488665630131,
,,,,,,,,,,,,,,,,5,7.8,8.9,10,11.1,12.2,1.1,0.8500000000000001,0.25,4.65,10,initial,36.05,281,321,361,400,440,9,9,9,9,9,,,,,,,0,0,0,0,0,19,19,36,,,,,,,,,,,,,,4,2.1160164000466466,4,0.3,0.2,7.20859,return,3.4223851000424474,,,,,,,,,,,,,,,,,p303,21,female,left_right_width,2025-11-16_16h01.03.504,exp1,2023.1.0,59.94488665630131,
,,,,,,,,,,,,,,,,5,8.35,9.175,10,10.825,11.65,0.825,0.575,0.25,3.55,10,match,36.05,301,331,361,390,420,9,9,9,9,9,,,,,,,0,0,0,0,0,20,20,20,,,,,,,,,,,,,,5,1.5019996999762952,5,0.2,0.25,9.01073,return,2.6256959000602365,,,,,,,,,,,,,,,,,p303,21,female,left_right_width,2025-11-16_16h01.03.504,exp1,2023.1.0,59.94488665630131,
,,,,,,,,,,,,,,,,3,8.2,10,11.8,0,0,1.7999999999999998,1.4,0.4,4,10,match,36.05,296,361,425,0,0,9,9,9,0,0,,,,,,,0,0,0,0,0,21,21,51,,,,,,,,,,,,,,2,1.1187790000112727,2,0.45,0.25000000000000006,9.01073,return,3.20098920003511,,,,,,,,,,,,,,,,,p303,21,female,left_right_width,2025-11-16_16h01.03.504,exp1,2023.1.0,59.94488665630131,
,,,,,,,,,,,,,,,,4,8.9,9.633333333333333,10.366666666666667,11.1,0,0.7333333333333333,0.18333333333333326,0.55,2.75,10,match,36.05,321,347,374,400,0,9,9,9,9,0,,,,,,,0,0,0,0,0,22,22,1,,,,,,,,,,,,,,2,0.9264882999705151,2,0.45,0.30000000000000004,10.81288,return,1.6088351999642327,,,,,,,,,,,,,,,,,p303,21,female,left_right_width,2025-11-16_16h01.03.504,exp1,2023.1.0,59.94488665630131,
,,,,,,,,,,,,,,,,5,8.65,9.325,10,10.675,11.35,0.675,0.275,0.4,3.1,10,match,36.05,312,336,361,385,409,9,9,9,9,9,,,,,,,0,0,0,0,0,23,23,33,,,,,,,,,,,,,,3,1.3072203999618068,3,0.5,0.35000000000000003,12.61502,return,2.453065100009553,,,,,,,,,,,,,,,,,p303,21,female,left_right_width,2025-11-16_16h01.03.504,exp1,2023.1.0,59.94488665630131,
,,,,,,,,,,,,,,,,4,8.35,9.45,10.55,11.65,0,1.1,0.55,0.55,3.8500000000000005,10,initial,36.05,301,341,380,420,0,9,9,9,9,0,,,,,,,0,0,0,0,0,24,24,17,,,,,,,,,,,,,,3,1.2007761999266222,3,0.25,0.44999999999999996,16.21932,return,2.895658199908212,,,,,,,,,,,,,,,,,p303,21,female,left_right_width,2025-11-16_16h01.03.504,exp1,2023.1.0,59.94488665630131,
,,,,,,,,,,,,,,,,3,8.2,10,11.8,0,0,1.8,1.25,0.55,4.15,10,match,36.05,296,361,425,0,0,9,9,9,0,0,,,,,,,0,0,0,0,0,25,25,47,,,,,,,,,,,,,,2,1.1325827999971807,2,0.2,0.7000000000000001,25.23005,return,3.1987602999433875,,,,,,,,,,,,,,,,,p303,21,female,left_right_width,2025-11-16_16h01.03.504,exp1,2023.1.0,59.94488665630131,
,,,,,,,,,,,,,,,,3,7.8,10,12.2,0,0,2.2,1.9500000000000002,0.25,4.65,10,match,36.05,281,361,440,0,0,9,9,9,0,0,,,,,,,0,0,0,0,0,26,26,37,,,,,,,,,,,,,,3,0.9609723000321537,3,0.4,0.20000000000000007,7.20859,return,2.5857142999302596,,,,,,,,,,,,,,,,,p303,21,female,left_right_width,2025-11-16_16h01.03.504,exp1,2023.1.0,59.94488665630131,
,,,,,,,,,,,,,,,,4,8.95,9.65,10.35,11.05,0,0.7,0.1499999999999999,0.55,2.65,10,initial,36.05,323,348,373,398,0,9,9,9,9,0,,,,,,,0,0,0,0,0,27,27,23,,,,,,,,,,,,,,2,0.799730799975805,2,0.4,0.6000000000000001,21.62576,return,1.45519999996759,,,,,,,,,,,,,,,,,p303,21,female,left_right_width,2025-11-16_16h01.03.504,exp1,2023.1.0,59.94488665630131,
,,,,,,,,,,,,,,,,4,8.35,9.45,10.55,11.65,0,1.1,0.7000000000000001,0.4,3.7,10,initial,36.05,301,341,380,420,0,9,9,9,9,0,,,,,,,0,0,0,0,0,28,28,21,,,,,,,,,,,,,,3,0.7828384999884292,3,0.5,0.35000000000000003,12.61502,return,1.614496499998495,,,,,,,,,,,,,,,,,p303,21,female,left_right_width,2025-11-16_16h01.03.504,exp1,2023.1.0,59.94488665630131,
,,,,,,,,,,,,,,,,4,9.1,9.7,10.3,10.9,0,0.5999999999999999,0.3499999999999999,0.25,2.05,10,match,36.05,328,350,371,393,0,9,9,9,9,0,,,,,,,0,0,0,0,0,29,29,14,,,,,,,,,,,,,,2,0.8307633000658825,2,0.4,0.4,14.41717,return,2.6360317999497056,,,,,,,,,,,,,,,,,p303,21,female,left_right_width,2025-11-16_16h01.03.504,exp1,2023.1.0,59.94488665630131,
,,,,,,,,,,,,,,,,5,8.95,9.475,10,10.525,11.05,0.525,0.275,0.25,2.35,10,match,36.05,323,342,361,379,398,9,9,9,9,9,,,,,,,0,0,0,0,0,30,30,25,,,,,,,,,,,,,,3,0.9402973999967799,3,0.45,0.20000000000000007,7.20859,return,2.676905100001022,,,,,,,,,,,,,,,,,p303,21,female,left_right_width,2025-11-16_16h01.03.504,exp1,2023.1.0,59.94488665630131,
,,,,,,,,,,,,,,,,4,9.1,9.7,10.3,10.9,0,0.6,0.04999999999999997,0.55,2.35,10,match,36.05,328,350,371,393,0,9,9,9,9,0,,,,,,,0,0,0,0,0,31,31,12,,,,,,,,,,,,,,2,0.8911133999936283,2,0.45,0.8000000000000003,28.83434,return,3.1909050999674946,,,,,,,,,,,,,,,,,p303,21,female,left_right_width,2025-11-16_16h01.03.504,exp1,2023.1.0,59.94488665630131,
,,,,,,,,,,,,,,,,5,8.2,9.1,10,10.9,11.8,0.9,0.5,0.4,4,10,initial,36.05,296,328,361,393,425,9,9,9,9,9,,,,,,,0,0,0,0,0,32,32,50,,,,,,,,,,,,,,3,1.1283946000039577,3,0.2,0.44999999999999996,16.21932,return,3.0490375999361277,,,,,,,,,,,,,,,,,p303,21,female,left_right_width,2025-11-16_16h01.03.504,exp1,2023.1.0,59.94488665630131,
,,,,,,,,,,,,,,,,4,8.95,9.65,10.35,11.05,0,0.7,0.29999999999999993,0.4,2.5,10,initial,36.05,323,348,373,398,0,9,9,9,9,0,,,,,,,0,0,0,0,0,33,33,26,,,,,,,,,,,,,,2,0.7769593000411987,2,0.2,0.44999999999999996,16.21932,return,2.200962199945934,,,,,,,,,,,,,,,,,p303,21,female,left_right_width,2025-11-16_16h01.03.504,exp1,2023.1.0,59.94488665630131,
,,,,,,,,,,,,,,,,5,8.65,9.325,10,10.675,11.35,0.675,0.125,0.55,3.25,10,match,36.05,312,336,361,385,409,9,9,9,9,9,,,,,,,0,0,0,0,0,34,34,29,,,,,,,,,,,,,,3,0.8184870999539271,3,0.5,0.6000000000000001,21.62576,return,1.9528779000975192,,,,,,,,,,,,,,,,,p303,21,female,left_right_width,2025-11-16_16h01.03.504,exp1,2023.1.0,59.94488665630131,
,,,,,,,,,,,,,,,,4,8.65,9.55,10.45,11.35,0,0.9,0.35,0.55,3.25,10,initial,36.05,312,344,377,409,0,9,9,9,9,0,,,,,,,0,0,0,0,0,35,35,28,,,,,,,,,,,,,,2,0.8638680999865755,2,0.45,0.5,18.02146,return,2.7481102000456303,,,,,,,,,,,,,,,,,p303,21,female,left_right_width,2025-11-16_16h01.03.504,exp1,2023.1.0,59.94488665630131,
,,,,,,,,,,,,,,,,4,9.1,9.7,10.3,10.9,0,0.6000000000000001,0.20000000000000004,0.4,2.2,10,match,36.05,328,350,371,393,0,9,9,9,9,0,,,,,,,0,0,0,0,0,36,36,16,,,,,,,,,,,,,,2,0.6738271000795066,2,0.3,0.5499999999999999,19.82361,return,2.6935371999861673,,,,,,,,,,,,,,,,,p303,21,female,left_right_width,2025-11-16_16h01.03.504,exp1,2023.1.0,59.94488665630131,
,,,,,,,,,,,,,,,,3,8.6,10,11.4,0,0,1.4,1.15,0.25,3.05,10,match,36.05,310,361,411,0,0,9,9,9,0,0,,,,,,,0,0,0,0,0,37,37,43,,,,,,,,,,,,,,2,1.6222605999791995,2,0.2,0.2,7.20859,return,2.100812599994242,,,,,,,,,,,,,,,,,p303,21,female,left_right_width,2025-11-16_16h01.03.504,exp1,2023.1.0,59.94488665630131,
,,,,,,,,,,,,,,,,4,8.65,9.55,10.45,11.35,0,0.9,0.65,0.25,2.95,10,initial,36.05,312,344,377,409,0,9,9,9,9,0,,,,,,,0,0,0,0,0,38,38,30,,,,,,,,,,,,,,3,0.7489993000635877,3,0.2,0.2,7.20859,return,2.3993108000140637,,,,,,,,,,,,,,,,,p303,21,female,left_right_width,2025-11-16_16h01.03.504,exp1,2023.1.0,59.94488665630131,
,,,,,,,,,,,,,,,,5,8.2,9.1,10,10.9,11.8,0.9,0.35,0.55,4.15,10,initial,36.05,296,328,361,393,425,9,9,9,9,9,,,,,,,0,0,0,0,0,39,39,46,,,,,,,,,,,,,,4,1.137818800052628,4,0.45,0.45,16.21932,return,3.075559900025837,,,,,,,,,,,,,,,,,p303,21,female,left_right_width,2025-11-16_16h01.03.504,exp1,2023.1.0,59.94488665630131,
,,,,,,,,,,,,,,,,5,8.2,9.1,10,10.9,11.8,0.9,0.65,0.25,3.85,10,initial,36.05,296,328,361,393,425,9,9,9,9,9,,,,,,,0,0,0,0,0,40,40,48,,,,,,,,,,,,,,4,0.9820680000120774,4,0.5,0.20000000000000007,7.20859,return,3.5341760999290273,,,,,,,,,,,,,,,,,p303,21,female,left_right_width,2025-11-16_16h01.03.504,exp1,2023.1.0,59.94488665630131,
,,,,,,,,,,,,,,,,5,7.8,8.9,10,11.1,12.2,1.1,0.55,0.55,4.95,10,initial,36.05,281,321,361,400,440,9,9,9,9,9,,,,,,,0,0,0,0,0,41,41,34,,,,,,,,,,,,,,3,1.0414865999482572,3,0.55,0.30000000000000004,10.81288,return,3.6873818999156356,,,,,,,,,,,,,,,,,p303,21,female,left_right_width,2025-11-16_16h01.03.504,exp1,2023.1.0,59.94488665630131,
,,,,,,,,,,,,,,,,3,8.9,10,11.1,0,0,1.1,0.8500000000000001,0.25,2.45,10,initial,36.05,321,361,400,0,0,9,9,9,0,0,,,,,,,0,0,0,0,0,42,42,2,,,,,,,,,,,,,,2,0.944650600082241,2,0.5,0.30000000000000004,10.81288,return,3.417647899943404,,,,,,,,,,,,,,,,,p303,21,female,left_right_width,2025-11-16_16h01.03.504,exp1,2023.1.0,59.94488665630131,
,,,,,,,,,,,,,,,,4,9.3,9.766666666666667,10.233333333333333,10.7,0,0.4666666666666667,0.06666666666666665,0.4,1.8,10,match,36.05,335,352,369,386,0,9,9,9,9,0,,,,,,,0,0,0,0,0,43,43,10,,,,,,,,,,,,,,2,1.150698299985379,2,0.4,0.6000000000000001,21.62576,return,1.5347078000195324,,,,,,,,,,,,,,,,,p303,21,female,left_right_width,2025-11-16_16h01.03.504,exp1,2023.1.0,59.94488665630131,
,,,,,,,,,,,,,,,,3,8.9,10,11.1,0,0,1.1,0.7000000000000001,0.4,2.6000000000000005,10,initial,36.05,321,361,400,0,0,9,9,9,0,0,,,,,,,0,0,0,0,0,44,44,4,,,,,,,,,,,,,,2,0.8736876999028027,2,0.2,0.49999999999999994,18.02146,return,2.404605699935928,,,,,,,,,,,,,,,,,p303,21,female,left_right_width,2025-11-16_16h01.03.504,exp1,2023.1.0,59.94488665630131,
,,,,,,,,,,,,,,,,5,8.6,9.3,10,10.7,11.4,0.7,0.1499999999999999,0.55,3.3499999999999996,10,initial,36.05,310,335,361,386,411,9,9,9,9,9,,,,,,,0,0,0,0,0,45,45,40,,,,,,,,,,,,,,3,1.1988189000403509,3,0.3,0.49999999999999994,18.02146,return,3.5495117000536993,,,,,,,,,,,,,,,,,p303,21,female,left_right_width,2025-11-16_16h01.03.504,exp1,2023.1.0,59.94488665630131,
,,,,,,,,,,,,,,,,3,8.2,10,11.8,0,0,1.8,1.55,0.25,3.85,10,match,36.05,296,361,425,0,0,9,9,9,0,0,,,,,,,0,0,0,0,0,46,46,49,,,,,,,,,,,,,,2,1.8250962999882177,2,0.3,0.2,7.20859,return,1.9103191000176594,,,,,,,,,,,,,,,,,p303,21,female,left_right_width,2025-11-16_16h01.03.504,exp1,2023.1.0,59.94488665630131,
,,,,,,,,,,,,,,,,5,8.6,9.3,10,10.7,11.4,0.7,0.44999999999999996,0.25,3.05,10,initial,36.05,310,335,361,386,411,9,9,9,9,9,,,,,,,0,0,0,0,0,47,47,42,,,,,,,,,,,,,,4,0.7312250999966636,4,0.3,0.10000000000000002,3.60429,return,2.604459699941799,,,,,,,,,,,,,,,,,p303,21,female,left_right_width,2025-11-16_16h01.03.504,exp1,2023.1.0,59.94488665630131,
,,,,,,,,,,,,,,,,3,7.8,10,12.2,0,0,2.2,1.65,0.55,4.95,10,match,36.05,281,361,440,0,0,9,9,9,0,0,,,,,,,0,0,0,0,0,48,48,35,,,,,,,,,,,,,,3,2.1191706999670714,3,0.25,0.39999999999999997,14.41717,return,2.241771399974823,,,,,,,,,,,,,,,,,p303,21,female,left_right_width,2025-11-16_16h01.03.504,exp1,2023.1.0,59.94488665630131,
,,,,,,,,,,,,,,,,4,9.3,9.766666666666667,10.233333333333333,10.7,0,0.4666666666666667,0.21666666666666665,0.25,1.65,10,match,36.05,335,352,369,386,0,9,9,9,9,0,,,,,,,0,0,0,0,0,49,49,8,,,,,,,,,,,,,,2,0.9178825999842957,2,0.55,0.20000000000000007,7.20859,return,2.7508914000354707,,,,,,,,,,,,,,,,,p303,21,female,left_right_width,2025-11-16_16h01.03.504,exp1,2023.1.0,59.94488665630131,
,,,,,,,,,,,,,,,,5,8.35,9.175,10,10.825,11.65,0.8250000000000001,0.275,0.55,3.85,10,match,36.05,301,331,361,390,420,9,9,9,9,9,,,,,,,0,0,0,0,0,50,50,18,,,,,,,,,,,,,,3,1.513740099966526,3,0.2,0.5499999999999999,19.82361,return,2.844809400034137,,,,,,,,,,,,,,,,,p303,21,female,left_right_width,2025-11-16_16h01.03.504,exp1,2023.1.0,59.94488665630131,
,,,,,,,,,,,,,,,,4,8.825,9.608333333333333,10.391666666666667,11.175,0,0.7833333333333333,0.5333333333333333,0.25,2.6,10,match,36.05,318,346,375,403,0,9,9,9,9,0,,,,,,,0,0,0,0,0,51,51,5,,,,,,,,,,,,,,2,0.8717261999845505,2,0.3,0.15000000000000002,5.40644,return,1.8132205000147223,,,,,,,,,,,,,,,,,p303,21,female,left_right_width,2025-11-16_16h01.03.504,exp1,2023.1.0,59.94488665630131,
,,,,,,,,,,,,,,,,,,,,,,,,,,,,,,,,,,,,,,,,,,,,,0,0,0,0,,,,,,,,,,,,,,,,,,,,,,,,,,,,1263.1262990999967,1263.1262990999967,1263.1262990999967,,,,,,,,,,,,p303,21,female,left_right_width,2025-11-16_16h01.03.504,exp1,2023.1.0,59.94488665630131,
,,,,,,,,,,,,,,,,3,8.9,10,11.1,0,0,1.1,0.8500000000000001,0.25,2.45,10,initial,36.05,321,361,400,0,0,9,9,9,0,0,,,,,,,1,0,1,0,0,0,0,2,,,,,,,,,,,,,,2,1.612455999944359,2,0.55,0.20000000000000007,7.20859,return,3.0032538999803364,,,,,,,,,,,,,,,,,p303,21,female,left_right_width,2025-11-16_16h01.03.504,exp1,2023.1.0,59.94488665630131,
,,,,,,,,,,,,,,,,4,9.3,9.766666666666667,10.233333333333333,10.7,0,0.4666666666666667,0.06666666666666665,0.4,1.8,10,match,36.05,335,352,369,386,0,9,9,9,9,0,,,,,,,1,0,1,0,0,1,1,10,,,,,,,,,,,,,,3,1.24790600000415,3,0.35,0.2,7.20859,return,2.462163500022143,,,,,,,,,,,,,,,,,p303,21,female,left_right_width,2025-11-16_16h01.03.504,exp1,2023.1.0,59.94488665630131,
,,,,,,,,,,,,,,,,5,8.65,9.325,10,10.675,11.35,0.675,0.275,0.4,3.1,10,match,36.05,312,336,361,385,409,9,9,9,9,9,,,,,,,1,0,1,0,0,2,2,33,,,,,,,,,,,,,,3,1.410797500051558,3,0.45,0.5,18.02146,return,1.3847198999719694,,,,,,,,,,,,,,,,,p303,21,female,left_right_width,2025-11-16_16h01.03.504,exp1,2023.1.0,59.94488665630131,
,,,,,,,,,,,,,,,,3,8.6,10,11.4,0,0,1.4,0.85,0.55,3.35,10,match,36.05,310,361,411,0,0,9,9,9,0,0,,,,,,,1,0,1,0,0,3,3,41,,,,,,,,,,,,,,2,0.8917076999787241,2,0.5,0.7000000000000002,25.23005,return,3.2226201000157744,,,,,,,,,,,,,,,,,p303,21,female,left_right_width,2025-11-16_16h01.03.504,exp1,2023.1.0,59.94488665630131,
,,,,,,,,,,,,,,,,4,8.65,9.55,10.45,11.35,0,0.9,0.65,0.25,2.95,10,initial,36.05,312,344,377,409,0,9,9,9,9,0,,,,,,,1,0,1,0,0,4,4,30,,,,,,,,,,,,,,2,0.807224899996072,2,0.35,0.15000000000000002,5.40644,return,1.6684075000230223,,,,,,,,,,,,,,,,,p303,21,female,left_right_width,2025-11-16_16h01.03.504,exp1,2023.1.0,59.94488665630131,
,,,,,,,,,,,,,,,,3,8.6,10,11.4,0,0,1.4,1.15,0.25,3.05,10,match,36.05,310,361,411,0,0,9,9,9,0,0,,,,,,,1,0,1,0,0,5,5,43,,,,,,,,,,,,,,2,0.6187830000417307,2,0.45,0.15000000000000008,5.40644,return,2.5769174000015482,,,,,,,,,,,,,,,,,p303,21,female,left_right_width,2025-11-16_16h01.03.504,exp1,2023.1.0,59.94488665630131,
,,,,,,,,,,,,,,,,5,8.6,9.3,10,10.7,11.4,0.7,0.44999999999999996,0.25,3.05,10,initial,36.05,310,335,361,386,411,9,9,9,9,9,,,,,,,1,0,1,0,0,6,6,42,,,,,,,,,,,,,,3,0.7013298999518156,3,0.3,0.15000000000000002,5.40644,return,2.6558405000250787,,,,,,,,,,,,,,,,,p303,21,female,left_right_width,2025-11-16_16h01.03.504,exp1,2023.1.0,59.94488665630131,
,,,,,,,,,,,,,,,,5,8.65,9.325,10,10.675,11.35,0.675,0.42500000000000004,0.25,2.95,10,match,36.05,312,336,361,385,409,9,9,9,9,9,,,,,,,1,0,1,0,0,7,7,31,,,,,,,,,,,,,,3,0.6809571000048891,3,0.55,0.20000000000000007,7.20859,return,2.284684299957007,,,,,,,,,,,,,,,,,p303,21,female,left_right_width,2025-11-16_16h01.03.504,exp1,2023.1.0,59.94488665630131,
,,,,,,,,,,,,,,,,3,8.2,10,11.8,0,0,1.8,1.25,0.55,4.15,10,match,36.05,296,361,425,0,0,9,9,9,0,0,,,,,,,1,0,1,0,0,8,8,47,,,,,,,,,,,,,,2,0.7283240000251681,2,0.5,0.55,19.82361,return,2.6981361999642104,,,,,,,,,,,,,,,,,p303,21,female,left_right_width,2025-11-16_16h01.03.504,exp1,2023.1.0,59.94488665630131,
,,,,,,,,,,,,,,,,3,9.1,10,10.9,0,0,0.9,0.5,0.4,2.2,10,initial,36.05,328,361,393,0,0,9,9,9,0,0,,,,,,,1,0,1,0,0,9,9,15,,,,,,,,,,,,,,2,0.5675523000536487,2,0.5,0.30000000000000004,10.81288,return,2.1428890000097454,,,,,,,,,,,,,,,,,p303,21,female,left_right_width,2025-11-16_16h01.03.504,exp1,2023.1.0,59.94488665630131,
,,,,,,,,,,,,,,,,5,8.6,9.3,10,10.7,11.4,0.7,0.29999999999999993,0.4,3.1999999999999997,10,initial,36.05,310,335,361,386,411,9,9,9,9,9,,,,,,,1,0,1,0,0,10,10,44,,,,,,,,,,,,,,3,0.8325745000038296,3,0.5,0.30000000000000004,10.81288,return,2.4623711000895128,,,,,,,,,,,,,,,,,p303,21,female,left_right_width,2025-11-16_16h01.03.504,exp1,2023.1.0,59.94488665630131,
,,,,,,,,,,,,,,,,4,8.95,9.65,10.35,11.05,0,0.7,0.29999999999999993,0.4,2.5,10,initial,36.05,323,348,373,398,0,9,9,9,9,0,,,,,,,1,0,1,0,0,11,11,26,,,,,,,,,,,,,,2,0.733081900049001,2,0.4,0.30000000000000004,10.81288,return,1.2477268000366166,,,,,,,,,,,,,,,,,p303,21,female,left_right_width,2025-11-16_16h01.03.504,exp1,2023.1.0,59.94488665630131,
,,,,,,,,,,,,,,,,3,8.2,10,11.8,0,0,1.8,1.55,0.25,3.85,10,match,36.05,296,361,425,0,0,9,9,9,0,0,,,,,,,1,0,1,0,0,12,12,49,,,,,,,,,,,,,,3,0.7147148998919874,3,0.4,0.15000000000000008,5.40644,return,1.7096357999835163,,,,,,,,,,,,,,,,,p303,21,female,left_right_width,2025-11-16_16h01.03.504,exp1,2023.1.0,59.94488665630131,
,,,,,,,,,,,,,,,,4,8.95,9.65,10.35,11.05,0,0.7,0.44999999999999996,0.25,2.3499999999999996,10,initial,36.05,323,348,373,398,0,9,9,9,9,0,,,,,,,1,0,1,0,0,13,13,24,,,,,,,,,,,,,,2,0.5717756000813097,2,0.55,0.15000000000000008,5.40644,return,2.5160077000036836,,,,,,,,,,,,,,,,,p303,21,female,left_right_width,2025-11-16_16h01.03.504,exp1,2023.1.0,59.94488665630131,
,,,,,,,,,,,,,,,,3,7.800000000000001,10,12.2,0,0,2.1999999999999997,1.7999999999999998,0.4,4.8,10,match,36.05,281,361,440,0,0,9,9,9,0,0,,,,,,,1,0,1,0,0,14,14,39,,,,,,,,,,,,,,3,0.5949376999633387,3,0.45,0.15000000000000008,5.40644,return,1.9141127999173477,,,,,,,,,,,,,,,,,p303,21,female,left_right_width,2025-11-16_16h01.03.504,exp1,2023.1.0,59.94488665630131,
,,,,,,,,,,,,,,,,4,8.825,9.608333333333333,10.391666666666667,11.175,0,0.7833333333333333,0.5333333333333333,0.25,2.6,10,match,36.05,318,346,375,403,0,9,9,9,9,0,,,,,,,1,0,1,0,0,15,15,5,,,,,,,,,,,,,,3,0.6996405000099912,3,0.45,0.15000000000000008,5.40644,return,1.8695423000026494,,,,,,,,,,,,,,,,,p303,21,female,left_right_width,2025-11-16_16h01.03.504,exp1,2023.1.0,59.94488665630131,
,,,,,,,,,,,,,,,,5,8.2,9.1,10,10.9,11.8,0.9,0.65,0.25,3.85,10,initial,36.05,296,328,361,393,425,9,9,9,9,9,,,,,,,1,0,1,0,0,16,16,48,,,,,,,,,,,,,,3,0.5765988000202924,3,0.2,0.2,7.20859,return,2.6157420000527054,,,,,,,,,,,,,,,,,p303,21,female,left_right_width,2025-11-16_16h01.03.504,exp1,2023.1.0,59.94488665630131,
,,,,,,,,,,,,,,,,5,8.275,9.1375,10,10.8625,11.725,0.8625,0.6125,0.25,3.7,10,match,36.05,298,329,361,392,423,9,9,9,9,9,,,,,,,1,0,1,0,0,17,17,22,,,,,,,,,,,,,,3,0.5205891999648884,3,0.25,0.15000000000000002,5.40644,return,1.1224510000320151,,,,,,,,,,,,,,,,,p303,21,female,left_right_width,2025-11-16_16h01.03.504,exp1,2023.1.0,59.94488665630131,
,,,,,,,,,,,,,,,,5,8.6,9.3,10,10.7,11.4,0.7,0.1499999999999999,0.55,3.3499999999999996,10,initial,36.05,310,335,361,386,411,9,9,9,9,9,,,,,,,1,0,1,0,0,18,18,40,,,,,,,,,,,,,,4,1.0839832000201568,4,0.55,0.4,14.41717,return,1.6163344000233337,,,,,,,,,,,,,,,,,p303,21,female,left_right_width,2025-11-16_16h01.03.504,exp1,2023.1.0,59.94488665630131,
,,,,,,,,,,,,,,,,3,9.1,10,10.9,0,0,0.9,0.35,0.55,2.35,10,initial,36.05,328,361,393,0,0,9,9,9,0,0,,,,,,,1,0,1,0,0,19,19,11,,,,,,,,,,,,,,2,1.3364487999351695,2,0.45,0.7000000000000002,25.23005,return,2.8181764000328258,,,,,,,,,,,,,,,,,p303,21,female,left_right_width,2025-11-16_16h01.03.504,exp1,2023.1.0,59.94488665630131,
,,,,,,,,,,,,,,,,4,8.35,9.45,10.55,11.65,0,1.1,0.8500000000000001,0.25,3.5500000000000003,10,initial,36.05,301,341,380,420,0,9,9,9,9,0,,,,,,,1,0,1,0,0,20,20,19,,,,,,,,,,,,,,3,1.4096056000562385,3,0.2,0.25,9.01073,return,1.6088291000341997,,,,,,,,,,,,,,,,,p303,21,female,left_right_width,2025-11-16_16h01.03.504,exp1,2023.1.0,59.94488665630131,
,,,,,,,,,,,,,,,,3,7.8,10,12.2,0,0,2.2,1.9500000000000002,0.25,4.65,10,match,36.05,281,361,440,0,0,9,9,9,0,0,,,,,,,1,0,1,0,0,21,21,37,,,,,,,,,,,,,,2,2.417640500003472,2,0.45,0.10000000000000007,3.60429,return,2.319510000059381,,,,,,,,,,,,,,,,,p303,21,female,left_right_width,2025-11-16_16h01.03.504,exp1,2023.1.0,59.94488665630131,
,,,,,,,,,,,,,,,,5,8.2,9.1,10,10.9,11.8,0.9,0.5,0.4,4,10,initial,36.05,296,328,361,393,425,9,9,9,9,9,,,,,,,1,0,1,0,0,22,22,50,,,,,,,,,,,,,,3,1.311978599987924,3,0.2,0.35,12.61502,return,1.6416082999203354,,,,,,,,,,,,,,,,,p303,21,female,left_right_width,2025-11-16_16h01.03.504,exp1,2023.1.0,59.94488665630131,
,,,,,,,,,,,,,,,,3,9.3,10,10.7,0,0,0.7,0.44999999999999996,0.25,1.65,10,initial,36.05,335,361,386,0,0,9,9,9,0,0,,,,,,,1,0,1,0,0,23,23,7,,,,,,,,,,,,,,2,0.7831842000596225,2,0.2,0.15000000000000002,5.40644,return,1.3105155000230297,,,,,,,,,,,,,,,,,p303,21,female,left_right_width,2025-11-16_16h01.03.504,exp1,2023.1.0,59.94488665630131,
,,,,,,,,,,,,,,,,3,9.3,10,10.7,0,0,0.7,0.1499999999999999,0.55,1.95,10,initial,36.05,335,361,386,0,0,9,9,9,0,0,,,,,,,1,0,1,0,0,24,24,6,,,,,,,,,,,,,,2,1.1123156000394374,2,0.55,0.6500000000000001,23.4279,return,1.258460099925287,,,,,,,,,,,,,,,,,p303,21,female,left_right_width,2025-11-16_16h01.03.504,exp1,2023.1.0,59.94488665630131,
,,,,,,,,,,,,,,,,4,9.1,9.7,10.3,10.9,0,0.5999999999999999,0.3499999999999999,0.25,2.05,10,match,36.05,328,350,371,393,0,9,9,9,9,0,,,,,,,1,0,1,0,0,25,25,14,,,,,,,,,,,,,,2,0.6932002999819815,2,0.35,0.15000000000000002,5.40644,return,1.1917270000558347,,,,,,,,,,,,,,,,,p303,21,female,left_right_width,2025-11-16_16h01.03.504,exp1,2023.1.0,59.94488665630131,
,,,,,,,,,,,,,,,,3,8.2,10,11.8,0,0,1.7999999999999998,1.4,0.4,4,10,match,36.05,296,361,425,0,0,9,9,9,0,0,,,,,,,1,0,1,0,0,26,26,51,,,,,,,,,,,,,,3,0.6423738000448793,3,0.4,0.25000000000000006,9.01073,return,1.382960299961269,,,,,,,,,,,,,,,,,p303,21,female,left_right_width,2025-11-16_16h01.03.504,exp1,2023.1.0,59.94488665630131,
,,,,,,,,,,,,,,,,3,7.8,10,12.2,0,0,2.2,1.65,0.55,4.95,10,match,36.05,281,361,440,0,0,9,9,9,0,0,,,,,,,1,0,1,0,0,27,27,35,,,,,,,,,,,,,,2,0.8659915000898764,2,0.3,0.39999999999999997,14.41717,return,2.093548099976033,,,,,,,,,,,,,,,,,p303,21,female,left_right_width,2025-11-16_16h01.03.504,exp1,2023.1.0,59.94488665630131,
,,,,,,,,,,,,,,,,5,7.8,8.9,10,11.1,12.2,1.1,0.55,0.55,4.95,10,initial,36.05,281,321,361,400,440,9,9,9,9,9,,,,,,,1,0,1,0,0,28,28,34,,,,,,,,,,,,,,4,0.7683791000163183,4,0.45,0.20000000000000007,7.20859,return,2.961593299987726,,,,,,,,,,,,,,,,,p303,21,female,left_right_width,2025-11-16_16h01.03.504,exp1,2023.1.0,59.94488665630131,
,,,,,,,,,,,,,,,,5,7.8,8.9,10,11.1,12.2,1.1,0.8500000000000001,0.25,4.65,10,initial,36.05,281,321,361,400,440,9,9,9,9,9,,,,,,,1,0,1,0,0,29,29,36,,,,,,,,,,,,,,4,1.8899894999340177,4,0.35,0.2,7.20859,return,2.710005100001581,,,,,,,,,,,,,,,,,p303,21,female,left_right_width,2025-11-16_16h01.03.504,exp1,2023.1.0,59.94488665630131,
,,,,,,,,,,,,,,,,4,8.9,9.633333333333333,10.366666666666667,11.1,0,0.7333333333333334,0.4833333333333334,0.25,2.45,10,match,36.05,321,347,374,400,0,9,9,9,9,0,,,,,,,1,0,1,0,0,30,30,3,,,,,,,,,,,,,,2,3.2104396000504494,2,0.2,0.3,10.81288,return,4.4875378999859095,,,,,,,,,,,,,,,,,p303,21,female,left_right_width,2025-11-16_16h01.03.504,exp1,2023.1.0,59.94488665630131,
,,,,,,,,,,,,,,,,4,9.1,9.7,10.3,10.9,0,0.6000000000000001,0.20000000000000004,0.4,2.2,10,match,36.05,328,350,371,393,0,9,9,9,9,0,,,,,,,1,0,1,0,0,31,31,16,,,,,,,,,,,,,,3,0.780510799959302,3,0.35,0.25,9.01073,return,2.4281565999845043,,,,,,,,,,,,,,,,,p303,21,female,left_right_width,2025-11-16_16h01.03.504,exp1,2023.1.0,59.94488665630131,
,,,,,,,,,,,,,,,,4,8.35,9.45,10.55,11.65,0,1.1,0.7000000000000001,0.4,3.7,10,initial,36.05,301,341,380,420,0,9,9,9,9,0,,,,,,,1,0,1,0,0,32,32,21,,,,,,,,,,,,,,3,0.5644425000064075,3,0.5,0.30000000000000004,10.81288,return,1.484893299988471,,,,,,,,,,,,,,,,,p303,21,female,left_right_width,2025-11-16_16h01.03.504,exp1,2023.1.0,59.94488665630131,
,,,,,,,,,,,,,,,,4,8.9,9.633333333333333,10.366666666666667,11.1,0,0.7333333333333333,0.18333333333333326,0.55,2.75,10,match,36.05,321,347,374,400,0,9,9,9,9,0,,,,,,,1,0,1,0,0,33,33,1,,,,,,,,,,,,,,3,0.7622119000880048,3,0.55,0.6000000000000001,21.62576,return,1.4184996000258252,,,,,,,,,,,,,,,,,p303,21,female,left_right_width,2025-11-16_16h01.03.504,exp1,2023.1.0,59.94488665630131,
,,,,,,,,,,,,,,,,5,8.35,9.175,10,10.825,11.65,0.8250000000000001,0.275,0.55,3.85,10,match,36.05,301,331,361,390,420,9,9,9,9,9,,,,,,,1,0,1,0,0,34,34,18,,,,,,,,,,,,,,3,0.9223942999960855,3,0.5,0.30000000000000004,10.81288,return,1.4116499999072403,,,,,,,,,,,,,,,,,p303,21,female,left_right_width,2025-11-16_16h01.03.504,exp1,2023.1.0,59.94488665630131,
,,,,,,,,,,,,,,,,3,8.9,10,11.1,0,0,1.1,0.7000000000000001,0.4,2.6000000000000005,10,initial,36.05,321,361,400,0,0,9,9,9,0,0,,,,,,,1,0,1,0,0,35,35,4,,,,,,,,,,,,,,3,0.6659021000377834,3,0.55,0.45,16.21932,return,1.8058860999299213,,,,,,,,,,,,,,,,,p303,21,female,left_right_width,2025-11-16_16h01.03.504,exp1,2023.1.0,59.94488665630131,
,,,,,,,,,,,,,,,,5,8.35,9.175,10,10.825,11.65,0.825,0.575,0.25,3.55,10,match,36.05,301,331,361,390,420,9,9,9,9,9,,,,,,,1,0,1,0,0,36,36,20,,,,,,,,,,,,,,4,0.7965169000672176,4,0.2,0.39999999999999997,14.41717,return,2.684709200053476,,,,,,,,,,,,,,,,,p303,21,female,left_right_width,2025-11-16_16h01.03.504,exp1,2023.1.0,59.94488665630131,
,,,,,,,,,,,,,,,,4,8.35,9.45,10.55,11.65,0,1.1,0.55,0.55,3.8500000000000005,10,initial,36.05,301,341,380,420,0,9,9,9,9,0,,,,,,,1,0,1,0,0,37,37,17,,,,,,,,,,,,,,4,0.7771365999942645,4,0.55,0.25000000000000006,9.01073,return,2.5206198999658227,,,,,,,,,,,,,,,,,p303,21,female,left_right_width,2025-11-16_16h01.03.504,exp1,2023.1.0,59.94488665630131,
,,,,,,,,,,,,,,,,3,8.525,10,11.475,0,0,1.475,1.225,0.25,3.2,10,match,36.05,307,361,414,0,0,9,9,9,0,0,,,,,,,1,0,1,0,0,38,38,45,,,,,,,,,,,,,,2,1.589510399964638,2,0.2,0.3,10.81288,return,2.75574269995559,,,,,,,,,,,,,,,,,p303,21,female,left_right_width,2025-11-16_16h01.03.504,exp1,2023.1.0,59.94488665630131,
,,,,,,,,,,,,,,,,5,7.8,8.9,10,11.1,12.2,1.1,0.7000000000000001,0.4,4.800000000000001,10,initial,36.05,281,321,361,400,440,9,9,9,9,9,,,,,,,1,0,1,0,0,39,39,38,,,,,,,,,,,,,,3,1.7666509000118822,3,0.4,0.25000000000000006,9.01073,return,1.7282849999610335,,,,,,,,,,,,,,,,,p303,21,female,left_right_width,2025-11-16_16h01.03.504,exp1,2023.1.0,59.94488665630131,
,,,,,,,,,,,,,,,,4,9.1,9.7,10.3,10.9,0,0.6,0.04999999999999997,0.55,2.35,10,match,36.05,328,350,371,393,0,9,9,9,9,0,,,,,,,1,0,1,0,0,40,40,12,,,,,,,,,,,,,,2,1.5692301000235602,2,0.5,0.6000000000000001,21.62576,return,1.2177402999950573,,,,,,,,,,,,,,,,,p303,21,female,left_right_width,2025-11-16_16h01.03.504,exp1,2023.1.0,59.94488665630131,
,,,,,,,,,,,,,,,,5,8.65,9.325,10,10.675,11.35,0.675,0.125,0.55,3.25,10,match,36.05,312,336,361,385,409,9,9,9,9,9,,,,,,,1,0,1,0,0,41,41,29,,,,,,,,,,,,,,3,0.9326485999627039,3,0.3,0.6,21.62576,return,2.494921899982728,,,,,,,,,,,,,,,,,p303,21,female,left_right_width,2025-11-16_16h01.03.504,exp1,2023.1.0,59.94488665630131,
,,,,,,,,,,,,,,,,3,8.9,10,11.1,0,0,1.1,0.55,0.55,2.75,10,initial,36.05,321,361,400,0,0,9,9,9,0,0,,,,,,,1,0,1,0,0,42,42,0,,,,,,,,,,,,,,2,1.7945209000026807,2,0.45,0.25000000000000006,9.01073,return,2.3777416000375524,,,,,,,,,,,,,,,,,p303,21,female,left_right_width,2025-11-16_16h01.03.504,exp1,2023.1.0,59.94488665630131,
,,,,,,,,,,,,,,,,5,8.2,9.1,10,10.9,11.8,0.9,0.35,0.55,4.15,10,initial,36.05,296,328,361,393,425,9,9,9,9,9,,,,,,,1,0,1,0,0,43,43,46,,,,,,,,,,,,,,3,0.5954677000408992,3,0.5,0.25000000000000006,9.01073,return,2.3789314000168815,,,,,,,,,,,,,,,,,p303,21,female,left_right_width,2025-11-16_16h01.03.504,exp1,2023.1.0,59.94488665630131,
,,,,,,,,,,,,,,,,4,9.3,9.766666666666667,10.233333333333333,10.7,0,0.4666666666666667,0.21666666666666665,0.25,1.65,10,match,36.05,335,352,369,386,0,9,9,9,9,0,,,,,,,1,0,1,0,0,44,44,8,,,,,,,,,,,,,,2,1.118186599924229,2,0.55,0.25000000000000006,9.01073,return,2.0957781999604777,,,,,,,,,,,,,,,,,p303,21,female,left_right_width,2025-11-16_16h01.03.504,exp1,2023.1.0,59.94488665630131,
,,,,,,,,,,,,,,,,4,8.65,9.55,10.45,11.35,0,0.9,0.35,0.55,3.25,10,initial,36.05,312,344,377,409,0,9,9,9,9,0,,,,,,,1,0,1,0,0,45,45,28,,,,,,,,,,,,,,2,0.788527199998498,2,0.25,0.44999999999999996,16.21932,return,2.354987899889238,,,,,,,,,,,,,,,,,p303,21,female,left_right_width,2025-11-16_16h01.03.504,exp1,2023.1.0,59.94488665630131,
,,,,,,,,,,,,,,,,5,8.95,9.475,10,10.525,11.05,0.525,0.275,0.25,2.35,10,match,36.05,323,342,361,379,398,9,9,9,9,9,,,,,,,1,0,1,0,0,46,46,25,,,,,,,,,,,,,,2,0.8718415999319404,2,0.55,0.30000000000000004,10.81288,return,1.8283055999781936,,,,,,,,,,,,,,,,,p303,21,female,left_right_width,2025-11-16_16h01.03.504,exp1,2023.1.0,59.94488665630131,
,,,,,,,,,,,,,,,,4,8.95,9.65,10.35,11.05,0,0.7,0.1499999999999999,0.55,2.65,10,initial,36.05,323,348,373,398,0,9,9,9,9,0,,,,,,,1,0,1,0,0,47,47,23,,,,,,,,,,,,,,2,0.7222684000153095,2,0.4,0.5,18.02146,return,2.995894299936481,,,,,,,,,,,,,,,,,p303,21,female,left_right_width,2025-11-16_16h01.03.504,exp1,2023.1.0,59.94488665630131,
,,,,,,,,,,,,,,,,4,8.65,9.55,10.45,11.35,0,0.9,0.5,0.4,3.1,10,initial,36.05,312,344,377,409,0,9,9,9,9,0,,,,,,,1,0,1,0,0,48,48,32,,,,,,,,,,,,,,2,0.8213028999743983,2,0.25,0.44999999999999996,16.21932,return,2.051071299938485,,,,,,,,,,,,,,,,,p303,21,female,left_right_width,2025-11-16_16h01.03.504,exp1,2023.1.0,59.94488665630131,
,,,,,,,,,,,,,,,,3,9.3,10,10.7,0,0,0.7,0.29999999999999993,0.4,1.8,10,initial,36.05,335,361,386,0,0,9,9,9,0,0,,,,,,,1,0,1,0,0,49,49,9,,,,,,,,,,,,,,2,0.7829854000592604,2,0.3,0.39999999999999997,14.41717,return,1.9343741999473423,,,,,,,,,,,,,,,,,p303,21,female,left_right_width,2025-11-16_16h01.03.504,exp1,2023.1.0,59.94488665630131,
,,,,,,,,,,,,,,,,5,8.95,9.475,10,10.525,11.05,0.525,0.125,0.4,2.5,10,match,36.05,323,342,361,379,398,9,9,9,9,9,,,,,,,1,0,1,0,0,50,50,27,,,,,,,,,,,,,,2,1.7811975000659004,2,0.45,0.35000000000000003,12.61502,return,1.9162184000015259,,,,,,,,,,,,,,,,,p303,21,female,left_right_width,2025-11-16_16h01.03.504,exp1,2023.1.0,59.94488665630131,
,,,,,,,,,,,,,,,,3,9.1,10,10.9,0,0,0.9,0.65,0.25,2.05,10,initial,36.05,328,361,393,0,0,9,9,9,0,0,,,,,,,1,0,1,0,0,51,51,13,,,,,,,,,,,,,,2,0.5831375999841839,2,0.25,0.10000000000000002,3.60429,return,1.4069014999549836,,,,,,,,,,,,,,,,,p303,21,female,left_right_width,2025-11-16_16h01.03.504,exp1,2023.1.0,59.94488665630131,
,,,,,,,,,,,,,,,,,,,,,,,,,,,,,,,,,,,,,,,,,,,,,1,0,1,0,,,,,,,,,,,,,,,,,,,,,,,,,,,,1527.2595372999785,1527.2595372999785,1527.2595372999785,,,,,,,,,,,,p303,21,female,left_right_width,2025-11-16_16h01.03.504,exp1,2023.1.0,59.94488665630131,
,,,,,,,,,,,,,,,,5,8.6,9.3,10,10.7,11.4,0.7,0.29999999999999993,0.4,3.1999999999999997,10,initial,36.05,310,335,361,386,411,9,9,9,9,9,,,,,,,2,0,2,0,0,0,0,44,,,,,,,,,,,,,,3,4.304055199958384,3,0.2,0.3,10.81288,return,2.1635315000312403,,,,,,,,,,,,,,,,,p303,21,female,left_right_width,2025-11-16_16h01.03.504,exp1,2023.1.0,59.94488665630131,
,,,,,,,,,,,,,,,,5,8.275,9.1375,10,10.8625,11.725,0.8625,0.6125,0.25,3.7,10,match,36.05,298,329,361,392,423,9,9,9,9,9,,,,,,,2,0,2,0,0,1,1,22,,,,,,,,,,,,,,3,1.2681671000318602,3,0.25,0.15000000000000002,5.40644,return,1.5362461999757215,,,,,,,,,,,,,,,,,p303,21,female,left_right_width,2025-11-16_16h01.03.504,exp1,2023.1.0,59.94488665630131,
,,,,,,,,,,,,,,,,3,8.9,10,11.1,0,0,1.1,0.55,0.55,2.75,10,initial,36.05,321,361,400,0,0,9,9,9,0,0,,,,,,,2,0,2,0,0,2,2,0,,,,,,,,,,,,,,2,0.6275313999503851,2,0.3,0.44999999999999996,16.21932,return,1.5609752000309527,,,,,,,,,,,,,,,,,p303,21,female,left_right_width,2025-11-16_16h01.03.504,exp1,2023.1.0,59.94488665630131,
,,,,,,,,,,,,,,,,5,8.65,9.325,10,10.675,11.35,0.675,0.42500000000000004,0.25,2.95,10,match,36.05,312,336,361,385,409,9,9,9,9,9,,,,,,,2,0,2,0,0,3,3,31,,,,,,,,,,,,,,3,2.1738792000105605,3,0.35,0.2,7.20859,return,1.6855276999995112,,,,,,,,,,,,,,,,,p303,21,female,left_right_width,2025-11-16_16h01.03.504,exp1,2023.1.0,59.94488665630131,
,,,,,,,,,,,,,,,,4,9.3,9.766666666666667,10.233333333333333,10.7,0,0.4666666666666667,0.06666666666666665,0.4,1.8,10,match,36.05,335,352,369,386,0,9,9,9,9,0,,,,,,,2,0,2,0,0,4,4,10,,,,,,,,,,,,,,2,1.5634240000508726,2,0.2,0.44999999999999996,16.21932,return,1.5477140999864787,,,,,,,,,,,,,,,,,p303,21,female,left_right_width,2025-11-16_16h01.03.504,exp1,2023.1.0,59.94488665630131,
,,,,,,,,,,,,,,,,3,9.1,10,10.9,0,0,0.9,0.5,0.4,2.2,10,initial,36.05,328,361,393,0,0,9,9,9,0,0,,,,,,,2,0,2,0,0,5,5,15,,,,,,,,,,,,,,2,0.5272779000224546,2,0.55,0.30000000000000004,10.81288,return,1.9130190000869334,,,,,,,,,,,,,,,,,p303,21,female,left_right_width,2025-11-16_16h01.03.504,exp1,2023.1.0,59.94488665630131,
,,,,,,,,,,,,,,,,5,8.2,9.1,10,10.9,11.8,0.9,0.5,0.4,4,10,initial,36.05,296,328,361,393,425,9,9,9,9,9,,,,,,,2,0,2,0,0,6,6,50,,,,,,,,,,,,,,4,1.183437000028789,4,0.45,0.25000000000000006,9.01073,return,1.5518714999780059,,,,,,,,,,,,,,,,,p303,21,female,left_right_width,2025-11-16_16h01.03.504,exp1,2023.1.0,59.94488665630131,
,,,,,,,,,,,,,,,,3,9.1,10,10.9,0,0,0.9,0.65,0.25,2.05,10,initial,36.05,328,361,393,0,0,9,9,9,0,0,,,,,,,2,0,2,0,0,7,7,13,,,,,,,,,,,,,,2,0.850865599932149,2,0.5,0.20000000000000007,7.20859,return,2.4476526000071317,,,,,,,,,,,,,,,,,p303,21,female,left_right_width,2025-11-16_16h01.03.504,exp1,2023.1.0,59.94488665630131,
,,,,,,,,,,,,,,,,4,8.65,9.55,10.45,11.35,0,0.9,0.35,0.55,3.25,10,initial,36.05,312,344,377,409,0,9,9,9,9,0,,,,,,,2,0,2,0,0,8,8,28,,,,,,,,,,,,,,3,2.0491204001009464,3,0.4,0.35000000000000003,12.61502,return,1.8543440999928862,,,,,,,,,,,,,,,,,p303,21,female,left_right_width,2025-11-16_16h01.03.504,exp1,2023.1.0,59.94488665630131,
,,,,,,,,,,,,,,,,3,8.9,10,11.1,0,0,1.1,0.8500000000000001,0.25,2.45,10,initial,36.05,321,361,400,0,0,9,9,9,0,0,,,,,,,2,0,2,0,0,9,9,2,,,,,,,,,,,,,,2,1.029741800040938,2,0.45,0.20000000000000007,7.20859,return,1.564434300060384,,,,,,,,,,,,,,,,,p303,21,female,left_right_width,2025-11-16_16h01.03.504,exp1,2023.1.0,59.94488665630131,
,,,,,,,,,,,,,,,,4,8.35,9.45,10.55,11.65,0,1.1,0.8500000000000001,0.25,3.5500000000000003,10,initial,36.05,301,341,380,420,0,9,9,9,9,0,,,,,,,2,0,2,0,0,10,10,19,,,,,,,,,,,,,,3,1.195541900000535,3,0.3,0.15000000000000002,5.40644,return,1.2271721999859437,,,,,,,,,,,,,,,,,p303,21,female,left_right_width,2025-11-16_16h01.03.504,exp1,2023.1.0,59.94488665630131,
,,,,,,,,,,,,,,,,3,9.3,10,10.7,0,0,0.7,0.29999999999999993,0.4,1.8,10,initial,36.05,335,361,386,0,0,9,9,9,0,0,,,,,,,2,0,2,0,0,11,11,9,,,,,,,,,,,,,,2,0.5785975999897346,2,0.3,0.35,12.61502,return,1.3552165000000969,,,,,,,,,,,,,,,,,p303,21,female,left_right_width,2025-11-16_16h01.03.504,exp1,2023.1.0,59.94488665630131,
,,,,,,,,,,,,,,,,3,7.8,10,12.2,0,0,2.2,1.9500000000000002,0.25,4.65,10,match,36.05,281,361,440,0,0,9,9,9,0,0,,,,,,,2,0,2,0,0,12,12,37,,,,,,,,,,,,,,2,1.351405799970962,2,0.55,0.10000000000000007,3.60429,return,2.655057800002396,,,,,,,,,,,,,,,,,p303,21,female,left_right_width,2025-11-16_16h01.03.504,exp1,2023.1.0,59.94488665630131,
,,,,,,,,,,,,,,,,4,9.1,9.7,10.3,10.9,0,0.5999999999999999,0.3499999999999999,0.25,2.05,10,match,36.05,328,350,371,393,0,9,9,9,9,0,,,,,,,2,0,2,0,0,13,13,14,,,,,,,,,,,,,,2,0.7341524999355897,2,0.25,0.2,7.20859,return,1.1363847000757232,,,,,,,,,,,,,,,,,p303,21,female,left_right_width,2025-11-16_16h01.03.504,exp1,2023.1.0,59.94488665630131,
,,,,,,,,,,,,,,,,4,9.1,9.7,10.3,10.9,0,0.6,0.04999999999999997,0.55,2.35,10,match,36.05,328,350,371,393,0,9,9,9,9,0,,,,,,,2,0,2,0,0,14,14,12,,,,,,,,,,,,,,3,1.4655796999577433,3,0.3,0.44999999999999996,16.21932,return,3.5177207000087947,,,,,,,,,,,,,,,,,p303,21,female,left_right_width,2025-11-16_16h01.03.504,exp1,2023.1.0,59.94488665630131,
,,,,,,,,,,,,,,,,4,8.95,9.65,10.35,11.05,0,0.7,0.44999999999999996,0.25,2.3499999999999996,10,initial,36.05,323,348,373,398,0,9,9,9,9,0,,,,,,,2,0,2,0,0,15,15,24,,,,,,,,,,,,,,2,0.5104139000177383,2,0.2,0.25,9.01073,return,1.6732758999569342,,,,,,,,,,,,,,,,,p303,21,female,left_right_width,2025-11-16_16h01.03.504,exp1,2023.1.0,59.94488665630131,
,,,,,,,,,,,,,,,,5,8.6,9.3,10,10.7,11.4,0.7,0.1499999999999999,0.55,3.3499999999999996,10,initial,36.05,310,335,361,386,411,9,9,9,9,9,,,,,,,2,0,2,0,0,16,16,40,,,,,,,,,,,,,,2,0.600695600034669,2,0.2,0.35,12.61502,return,2.879951099981554,,,,,,,,,,,,,,,,,p303,21,female,left_right_width,2025-11-16_16h01.03.504,exp1,2023.1.0,59.94488665630131,
,,,,,,,,,,,,,,,,3,8.2,10,11.8,0,0,1.7999999999999998,1.4,0.4,4,10,match,36.05,296,361,425,0,0,9,9,9,0,0,,,,,,,2,0,2,0,0,17,17,51,,,,,,,,,,,,,,3,1.0870350000914186,3,0.4,0.25000000000000006,9.01073,return,1.282113999943249,,,,,,,,,,,,,,,,,p303,21,female,left_right_width,2025-11-16_16h01.03.504,exp1,2023.1.0,59.94488665630131,
,,,,,,,,,,,,,,,,4,8.65,9.55,10.45,11.35,0,0.9,0.5,0.4,3.1,10,initial,36.05,312,344,377,409,0,9,9,9,9,0,,,,,,,2,0,2,0,0,18,18,32,,,,,,,,,,,,,,2,1.3208179000066593,2,0.35,0.44999999999999996,16.21932,return,1.0576880999142304,,,,,,,,,,,,,,,,,p303,21,female,left_right_width,2025-11-16_16h01.03.504,exp1,2023.1.0,59.94488665630131,
,,,,,,,,,,,,,,,,5,8.95,9.475,10,10.525,11.05,0.525,0.125,0.4,2.5,10,match,36.05,323,342,361,379,398,9,9,9,9,9,,,,,,,2,0,2,0,0,19,19,27,,,,,,,,,,,,,,3,0.6494862999534234,3,0.25,0.3,10.81288,return,1.517992899985984,,,,,,,,,,,,,,,,,p303,21,female,left_right_width,2025-11-16_16h01.03.504,exp1,2023.1.0,59.94488665630131,
,,,,,,,,,,,,,,,,5,7.8,8.9,10,11.1,12.2,1.1,0.55,0.55,4.95,10,initial,36.05,281,321,361,400,440,9,9,9,9,9,,,,,,,2,0,2,0,0,20,20,34,,,,,,,,,,,,,,4,0.8825940999668092,4,0.25,0.3,10.81288,return,1.4398691999958828,,,,,,,,,,,,,,,,,p303,21,female,left_right_width,2025-11-16_16h01.03.504,exp1,2023.1.0,59.94488665630131,
,,,,,,,,,,,,,,,,3,8.6,10,11.4,0,0,1.4,1.15,0.25,3.05,10,match,36.05,310,361,411,0,0,9,9,9,0,0,,,,,,,2,0,2,0,0,21,21,43,,,,,,,,,,,,,,2,0.632999699912034,2,0.5,0.25000000000000006,9.01073,return,1.6154408999718726,,,,,,,,,,,,,,,,,p303,21,female,left_right_width,2025-11-16_16h01.03.504,exp1,2023.1.0,59.94488665630131,
,,,,,,,,,,,,,,,,3,9.3,10,10.7,0,0,0.7,0.1499999999999999,0.55,1.95,10,initial,36.05,335,361,386,0,0,9,9,9,0,0,,,,,,,2,0,2,0,0,22,22,6,,,,,,,,,,,,,,2,0.6077759999316186,2,0.2,0.35,12.61502,return,1.334329199977219,,,,,,,,,,,,,,,,,p303,21,female,left_right_width,2025-11-16_16h01.03.504,exp1,2023.1.0,59.94488665630131,
,,,,,,,,,,,,,,,,5,7.8,8.9,10,11.1,12.2,1.1,0.7000000000000001,0.4,4.800000000000001,10,initial,36.05,281,321,361,400,440,9,9,9,9,9,,,,,,,2,0,2,0,0,23,23,38,,,,,,,,,,,,,,3,1.105782900005579,3,0.55,0.30000000000000004,10.81288,return,1.378957899985835,,,,,,,,,,,,,,,,,p303,21,female,left_right_width,2025-11-16_16h01.03.504,exp1,2023.1.0,59.94488665630131,
,,,,,,,,,,,,,,,,5,8.65,9.325,10,10.675,11.35,0.675,0.275,0.4,3.1,10,match,36.05,312,336,361,385,409,9,9,9,9,9,,,,,,,2,0,2,0,0,24,24,33,,,,,,,,,,,,,,3,1.0013652000343427,3,0.2,0.35,12.61502,return,3.5357809000415727,,,,,,,,,,,,,,,,,p303,21,female,left_right_width,2025-11-16_16h01.03.504,exp1,2023.1.0,59.94488665630131,
,,,,,,,,,,,,,,,,3,8.525,10,11.475,0,0,1.475,1.225,0.25,3.2,10,match,36.05,307,361,414,0,0,9,9,9,0,0,,,,,,,2,0,2,0,0,25,25,45,,,,,,,,,,,,,,2,0.6297851999988779,2,0.4,0.15000000000000008,5.40644,return,1.9471265999600291,,,,,,,,,,,,,,,,,p303,21,female,left_right_width,2025-11-16_16h01.03.504,exp1,2023.1.0,59.94488665630131,
,,,,,,,,,,,,,,,,3,8.2,10,11.8,0,0,1.8,1.25,0.55,4.15,10,match,36.05,296,361,425,0,0,9,9,9,0,0,,,,,,,2,0,2,0,0,26,26,47,,,,,,,,,,,,,,2,0.5755887000123039,2,0.4,0.20000000000000007,7.20859,return,1.9749885000055656,,,,,,,,,,,,,,,,,p303,21,female,left_right_width,2025-11-16_16h01.03.504,exp1,2023.1.0,59.94488665630131,
,,,,,,,,,,,,,,,,4,8.35,9.45,10.55,11.65,0,1.1,0.55,0.55,3.8500000000000005,10,initial,36.05,301,341,380,420,0,9,9,9,9,0,,,,,,,2,0,2,0,0,27,27,17,,,,,,,,,,,,,,3,1.0444756000069901,3,0.25,0.39999999999999997,14.41717,return,1.163172799977474,,,,,,,,,,,,,,,,,p303,21,female,left_right_width,2025-11-16_16h01.03.504,exp1,2023.1.0,59.94488665630131,
,,,,,,,,,,,,,,,,5,8.6,9.3,10,10.7,11.4,0.7,0.44999999999999996,0.25,3.05,10,initial,36.05,310,335,361,386,411,9,9,9,9,9,,,,,,,2,0,2,0,0,28,28,42,,,,,,,,,,,,,,3,0.6705756000010297,3,0.35,0.10000000000000002,3.60429,return,1.811595999985002,,,,,,,,,,,,,,,,,p303,21,female,left_right_width,2025-11-16_16h01.03.504,exp1,2023.1.0,59.94488665630131,
,,,,,,,,,,,,,,,,3,7.8,10,12.2,0,0,2.2,1.65,0.55,4.95,10,match,36.05,281,361,440,0,0,9,9,9,0,0,,,,,,,2,0,2,0,0,29,29,35,,,,,,,,,,,,,,2,1.2558341000694782,2,0.4,0.15000000000000008,5.40644,return,1.5408334000967443,,,,,,,,,,,,,,,,,p303,21,female,left_right_width,2025-11-16_16h01.03.504,exp1,2023.1.0,59.94488665630131,
,,,,,,,,,,,,,,,,3,7.800000000000001,10,12.2,0,0,2.1999999999999997,1.7999999999999998,0.4,4.8,10,match,36.05,281,361,440,0,0,9,9,9,0,0,,,,,,,2,0,2,0,0,30,30,39,,,,,,,,,,,,,,3,0.8239746999461204,3,0.2,0.3,10.81288,return,2.1820398999843746,,,,,,,,,,,,,,,,,p303,21,female,left_right_width,2025-11-16_16h01.03.504,exp1,2023.1.0,59.94488665630131,
,,,,,,,,,,,,,,,,4,8.9,9.633333333333333,10.366666666666667,11.1,0,0.7333333333333334,0.4833333333333334,0.25,2.45,10,match,36.05,321,347,374,400,0,9,9,9,9,0,,,,,,,2,0,2,0,0,31,31,3,,,,,,,,,,,,,,2,0.9765950000146404,2,0.4,0.15000000000000008,5.40644,return,1.559146299958229,,,,,,,,,,,,,,,,,p303,21,female,left_right_width,2025-11-16_16h01.03.504,exp1,2023.1.0,59.94488665630131,
,,,,,,,,,,,,,,,,5,8.2,9.1,10,10.9,11.8,0.9,0.35,0.55,4.15,10,initial,36.05,296,328,361,393,425,9,9,9,9,9,,,,,,,2,0,2,0,0,32,32,46,,,,,,,,,,,,,,4,1.1097641000524163,4,0.35,0.35,12.61502,return,1.272343400050886,,,,,,,,,,,,,,,,,p303,21,female,left_right_width,2025-11-16_16h01.03.504,exp1,2023.1.0,59.94488665630131,
,,,,,,,,,,,,,,,,4,8.825,9.608333333333333,10.391666666666667,11.175,0,0.7833333333333333,0.5333333333333333,0.25,2.6,10,match,36.05,318,346,375,403,0,9,9,9,9,0,,,,,,,2,0,2,0,0,33,33,5,,,,,,,,,,,,,,2,0.5955632000695914,2,0.25,0.25,9.01073,return,1.290697800111957,,,,,,,,,,,,,,,,,p303,21,female,left_right_width,2025-11-16_16h01.03.504,exp1,2023.1.0,59.94488665630131,
,,,,,,,,,,,,,,,,5,8.95,9.475,10,10.525,11.05,0.525,0.275,0.25,2.35,10,match,36.05,323,342,361,379,398,9,9,9,9,9,,,,,,,2,0,2,0,0,34,34,25,,,,,,,,,,,,,,3,1.8402660998981446,3,0.35,0.2,7.20859,return,1.1569910000544041,,,,,,,,,,,,,,,,,p303,21,female,left_right_width,2025-11-16_16h01.03.504,exp1,2023.1.0,59.94488665630131,
,,,,,,,,,,,,,,,,5,8.2,9.1,10,10.9,11.8,0.9,0.65,0.25,3.85,10,initial,36.05,296,328,361,393,425,9,9,9,9,9,,,,,,,2,0,2,0,0,35,35,48,,,,,,,,,,,,,,4,1.0958819000516087,4,0.35,0.2,7.20859,return,1.5155782999936491,,,,,,,,,,,,,,,,,p303,21,female,left_right_width,2025-11-16_16h01.03.504,exp1,2023.1.0,59.94488665630131,
,,,,,,,,,,,,,,,,4,8.35,9.45,10.55,11.65,0,1.1,0.7000000000000001,0.4,3.7,10,initial,36.05,301,341,380,420,0,9,9,9,9,0,,,,,,,2,0,2,0,0,36,36,21,,,,,,,,,,,,,,3,1.0731455000350252,3,0.5,0.20000000000000007,7.20859,return,2.0211783999111503,,,,,,,,,,,,,,,,,p303,21,female,left_right_width,2025-11-16_16h01.03.504,exp1,2023.1.0,59.94488665630131,
,,,,,,,,,,,,,,,,4,9.3,9.766666666666667,10.233333333333333,10.7,0,0.4666666666666667,0.21666666666666665,0.25,1.65,10,match,36.05,335,352,369,386,0,9,9,9,9,0,,,,,,,2,0,2,0,0,37,37,8,,,,,,,,,,,,,,3,0.8983036000281572,3,0.4,0.20000000000000007,7.20859,return,1.3884432000340894,,,,,,,,,,,,,,,,,p303,21,female,left_right_width,2025-11-16_16h01.03.504,exp1,2023.1.0,59.94488665630131,
,,,,,,,,,,,,,,,,4,9.1,9.7,10.3,10.9,0,0.6000000000000001,0.20000000000000004,0.4,2.2,10,match,36.05,328,350,371,393,0,9,9,9,9,0,,,,,,,2,0,2,0,0,38,38,16,,,,,,,,,,,,,,3,0.9112778999842703,3,0.55,0.25000000000000006,9.01073,return,1.945566999958828,,,,,,,,,,,,,,,,,p303,21,female,left_right_width,2025-11-16_16h01.03.504,exp1,2023.1.0,59.94488665630131,
,,,,,,,,,,,,,,,,5,8.65,9.325,10,10.675,11.35,0.675,0.125,0.55,3.25,10,match,36.05,312,336,361,385,409,9,9,9,9,9,,,,,,,2,0,2,0,0,39,39,29,,,,,,,,,,,,,,4,1.8001572999637574,4,0.25,0.25,9.01073,return,1.9361676000989974,,,,,,,,,,,,,,,,,p303,21,female,left_right_width,2025-11-16_16h01.03.504,exp1,2023.1.0,59.94488665630131,
,,,,,,,,,,,,,,,,4,8.95,9.65,10.35,11.05,0,0.7,0.29999999999999993,0.4,2.5,10,initial,36.05,323,348,373,398,0,9,9,9,9,0,,,,,,,2,0,2,0,0,40,40,26,,,,,,,,,,,,,,3,1.2477338999742642,3,0.55,0.25000000000000006,9.01073,return,1.9007992000551894,,,,,,,,,,,,,,,,,p303,21,female,left_right_width,2025-11-16_16h01.03.504,exp1,2023.1.0,59.94488665630131,
,,,,,,,,,,,,,,,,3,8.9,10,11.1,0,0,1.1,0.7000000000000001,0.4,2.6000000000000005,10,initial,36.05,321,361,400,0,0,9,9,9,0,0,,,,,,,2,0,2,0,0,41,41,4,,,,,,,,,,,,,,2,0.7174440000671893,2,0.45,0.4,14.41717,return,1.279695100034587,,,,,,,,,,,,,,,,,p303,21,female,left_right_width,2025-11-16_16h01.03.504,exp1,2023.1.0,59.94488665630131,
,,,,,,,,,,,,,,,,5,7.8,8.9,10,11.1,12.2,1.1,0.8500000000000001,0.25,4.65,10,initial,36.05,281,321,361,400,440,9,9,9,9,9,,,,,,,2,0,2,0,0,42,42,36,,,,,,,,,,,,,,4,1.2535983000416309,4,0.4,0.20000000000000007,7.20859,return,1.4906448000110686,,,,,,,,,,,,,,,,,p303,21,female,left_right_width,2025-11-16_16h01.03.504,exp1,2023.1.0,59.94488665630131,
,,,,,,,,,,,,,,,,3,9.3,10,10.7,0,0,0.7,0.44999999999999996,0.25,1.65,10,initial,36.05,335,361,386,0,0,9,9,9,0,0,,,,,,,2,0,2,0,0,43,43,7,,,,,,,,,,,,,,2,0.5993072000565007,2,0.2,0.10000000000000002,3.60429,return,1.2321451999014243,,,,,,,,,,,,,,,,,p303,21,female,left_right_width,2025-11-16_16h01.03.504,exp1,2023.1.0,59.94488665630131,
,,,,,,,,,,,,,,,,3,9.1,10,10.9,0,0,0.9,0.35,0.55,2.35,10,initial,36.05,328,361,393,0,0,9,9,9,0,0,,,,,,,2,0,2,0,0,44,44,11,,,,,,,,,,,,,,2,0.6924177999608219,2,0.3,0.5499999999999999,19.82361,return,1.7365319000091404,,,,,,,,,,,,,,,,,p303,21,female,left_right_width,2025-11-16_16h01.03.504,exp1,2023.1.0,59.94488665630131,
,,,,,,,,,,,,,,,,3,8.2,10,11.8,0,0,1.8,1.55,0.25,3.85,10,match,36.05,296,361,425,0,0,9,9,9,0,0,,,,,,,2,0,2,0,0,45,45,49,,,,,,,,,,,,,,3,1.219402200076729,3,0.25,0.15000000000000002,5.40644,return,0.7228288999758661,,,,,,,,,,,,,,,,,p303,21,female,left_right_width,2025-11-16_16h01.03.504,exp1,2023.1.0,59.94488665630131,
,,,,,,,,,,,,,,,,4,8.95,9.65,10.35,11.05,0,0.7,0.1499999999999999,0.55,2.65,10,initial,36.05,323,348,373,398,0,9,9,9,9,0,,,,,,,2,0,2,0,0,46,46,23,,,,,,,,,,,,,,3,0.974149200017564,3,0.35,0.3,10.81288,return,0.9342118001077324,,,,,,,,,,,,,,,,,p303,21,female,left_right_width,2025-11-16_16h01.03.504,exp1,2023.1.0,59.94488665630131,
,,,,,,,,,,,,,,,,4,8.9,9.633333333333333,10.366666666666667,11.1,0,0.7333333333333333,0.18333333333333326,0.55,2.75,10,match,36.05,321,347,374,400,0,9,9,9,9,0,,,,,,,2,0,2,0,0,47,47,1,,,,,,,,,,,,,,2,0.7082366000395268,2,0.2,0.44999999999999996,16.21932,return,1.4464522999478504,,,,,,,,,,,,,,,,,p303,21,female,left_right_width,2025-11-16_16h01.03.504,exp1,2023.1.0,59.94488665630131,
,,,,,,,,,,,,,,,,5,8.35,9.175,10,10.825,11.65,0.8250000000000001,0.275,0.55,3.85,10,match,36.05,301,331,361,390,420,9,9,9,9,9,,,,,,,2,0,2,0,0,48,48,18,,,,,,,,,,,,,,3,1.0927239999873564,3,0.3,0.39999999999999997,14.41717,return,1.2551558000268415,,,,,,,,,,,,,,,,,p303,21,female,left_right_width,2025-11-16_16h01.03.504,exp1,2023.1.0,59.94488665630131,
,,,,,,,,,,,,,,,,5,8.35,9.175,10,10.825,11.65,0.825,0.575,0.25,3.55,10,match,36.05,301,331,361,390,420,9,9,9,9,9,,,,,,,2,0,2,0,0,49,49,20,,,,,,,,,,,,,,3,0.8922489999094978,3,0.25,0.35,12.61502,return,1.015870500006713,,,,,,,,,,,,,,,,,p303,21,female,left_right_width,2025-11-16_16h01.03.504,exp1,2023.1.0,59.94488665630131,
,,,,,,,,,,,,,,,,4,8.65,9.55,10.45,11.35,0,0.9,0.65,0.25,2.95,10,initial,36.05,312,344,377,409,0,9,9,9,9,0,,,,,,,2,0,2,0,0,50,50,30,,,,,,,,,,,,,,3,0.6936581000918522,3,0.2,0.3,10.81288,return,1.433074599946849,,,,,,,,,,,,,,,,,p303,21,female,left_right_width,2025-11-16_16h01.03.504,exp1,2023.1.0,59.94488665630131,
,,,,,,,,,,,,,,,,3,8.6,10,11.4,0,0,1.4,0.85,0.55,3.35,10,match,36.05,310,361,411,0,0,9,9,9,0,0,,,,,,,2,0,2,0,0,51,51,41,,,,,,,,,,,,,,2,0.5416806000284851,2,0.45,0.45,16.21932,return,1.03028920001816,,,,,,,,,,,,,,,,,p303,21,female,left_right_width,2025-11-16_16h01.03.504,exp1,2023.1.0,59.94488665630131,
,,,,,,,,,,,,,,,,,,,,,,,,,,,,,,,,,,,,,,,,,,,,,2,0,2,0,,,,,,,,,,,,,,,,,,,,,,,,,,,,1878.2926193999592,1878.2926193999592,1878.2926193999592,,,,,,,,,,,,p303,21,female,left_right_width,2025-11-16_16h01.03.504,exp1,2023.1.0,59.94488665630131,
,,,,,,,,,,,,,,,,5,8.65,9.325,10,10.675,11.35,0.675,0.42500000000000004,0.25,2.95,10,match,36.05,312,336,361,385,409,9,9,9,9,9,,,,,,,3,0,3,0,0,0,0,31,,,,,,,,,,,,,,3,1.4276526999892667,3,0.4,0.20000000000000007,7.20859,return,1.2251761999214068,,,,,,,,,,,,,,,,,p303,21,female,left_right_width,2025-11-16_16h01.03.504,exp1,2023.1.0,59.94488665630131,
,,,,,,,,,,,,,,,,5,8.6,9.3,10,10.7,11.4,0.7,0.1499999999999999,0.55,3.3499999999999996,10,initial,36.05,310,335,361,386,411,9,9,9,9,9,,,,,,,3,0,3,0,0,1,1,40,,,,,,,,,,,,,,3,0.8120056999614462,3,0.55,0.5,18.02146,return,1.4508233000524342,,,,,,,,,,,,,,,,,p303,21,female,left_right_width,2025-11-16_16h01.03.504,exp1,2023.1.0,59.94488665630131,
,,,,,,,,,,,,,,,,3,8.9,10,11.1,0,0,1.1,0.7000000000000001,0.4,2.6000000000000005,10,initial,36.05,321,361,400,0,0,9,9,9,0,0,,,,,,,3,0,3,0,0,2,2,4,,,,,,,,,,,,,,2,0.647236300050281,2,0.55,0.45,16.21932,return,1.3884852000046521,,,,,,,,,,,,,,,,,p303,21,female,left_right_width,2025-11-16_16h01.03.504,exp1,2023.1.0,59.94488665630131,
,,,,,,,,,,,,,,,,4,9.1,9.7,10.3,10.9,0,0.5999999999999999,0.3499999999999999,0.25,2.05,10,match,36.05,328,350,371,393,0,9,9,9,9,0,,,,,,,3,0,3,0,0,3,3,14,,,,,,,,,,,,,,3,1.452544300002046,3,0.35,0.25,9.01073,return,2.6097997999750078,,,,,,,,,,,,,,,,,p303,21,female,left_right_width,2025-11-16_16h01.03.504,exp1,2023.1.0,59.94488665630131,
,,,,,,,,,,,,,,,,3,9.1,10,10.9,0,0,0.9,0.35,0.55,2.35,10,initial,36.05,328,361,393,0,0,9,9,9,0,0,,,,,,,3,0,3,0,0,4,4,11,,,,,,,,,,,,,,2,0.5238372000167146,2,0.55,0.55,19.82361,return,1.558658399968408,,,,,,,,,,,,,,,,,p303,21,female,left_right_width,2025-11-16_16h01.03.504,exp1,2023.1.0,59.94488665630131,
,,,,,,,,,,,,,,,,3,9.1,10,10.9,0,0,0.9,0.65,0.25,2.05,10,initial,36.05,328,361,393,0,0,9,9,9,0,0,,,,,,,3,0,3,0,0,5,5,13,,,,,,,,,,,,,,2,0.6218467999715358,2,0.5,0.30000000000000004,10.81288,return,1.940559700015001,,,,,,,,,,,,,,,,,p303,21,female,left_right_width,2025-11-16_16h01.03.504,exp1,2023.1.0,59.94488665630131,
,,,,,,,,,,,,,,,,5,8.95,9.475,10,10.525,11.05,0.525,0.125,0.4,2.5,10,match,36.05,323,342,361,379,398,9,9,9,9,9,,,,,,,3,0,3,0,0,6,6,27,,,,,,,,,,,,,,3,0.7144320000661537,3,0.4,0.30000000000000004,10.81288,return,1.2124736999394372,,,,,,,,,,,,,,,,,p303,21,female,left_right_width,2025-11-16_16h01.03.504,exp1,2023.1.0,59.94488665630131,
,,,,,,,,,,,,,,,,4,8.95,9.65,10.35,11.05,0,0.7,0.29999999999999993,0.4,2.5,10,initial,36.05,323,348,373,398,0,9,9,9,9,0,,,,,,,3,0,3,0,0,7,7,26,,,,,,,,,,,,,,3,0.6847368000308052,3,0.3,0.3,10.81288,return,1.2008328000083566,,,,,,,,,,,,,,,,,p303,21,female,left_right_width,2025-11-16_16h01.03.504,exp1,2023.1.0,59.94488665630131,
,,,,,,,,,,,,,,,,4,8.9,9.633333333333333,10.366666666666667,11.1,0,0.7333333333333333,0.18333333333333326,0.55,2.75,10,match,36.05,321,347,374,400,0,9,9,9,9,0,,,,,,,3,0,3,0,0,8,8,1,,,,,,,,,,,,,,2,0.5627033000346273,2,0.35,0.44999999999999996,16.21932,return,1.3227452000137419,,,,,,,,,,,,,,,,,p303,21,female,left_right_width,2025-11-16_16h01.03.504,exp1,2023.1.0,59.94488665630131,
,,,,,,,,,,,,,,,,3,8.2,10,11.8,0,0,1.7999999999999998,1.4,0.4,4,10,match,36.05,296,361,425,0,0,9,9,9,0,0,,,,,,,3,0,3,0,0,9,9,51,,,,,,,,,,,,,,2,0.4994183999951929,2,0.25,0.3,10.81288,return,1.3103012000210583,,,,,,,,,,,,,,,,,p303,21,female,left_right_width,2025-11-16_16h01.03.504,exp1,2023.1.0,59.94488665630131,
,,,,,,,,,,,,,,,,5,8.2,9.1,10,10.9,11.8,0.9,0.35,0.55,4.15,10,initial,36.05,296,328,361,393,425,9,9,9,9,9,,,,,,,3,0,3,0,0,10,10,46,,,,,,,,,,,,,,3,1.2606435000197962,3,0.35,0.44999999999999996,16.21932,return,1.5133202000288293,,,,,,,,,,,,,,,,,p303,21,female,left_right_width,2025-11-16_16h01.03.504,exp1,2023.1.0,59.94488665630131,
,,,,,,,,,,,,,,,,3,8.525,10,11.475,0,0,1.475,1.225,0.25,3.2,10,match,36.05,307,361,414,0,0,9,9,9,0,0,,,,,,,3,0,3,0,0,11,11,45,,,,,,,,,,,,,,2,0.6725434999680147,2,0.2,0.2,7.20859,return,1.4278354999842122,,,,,,,,,,,,,,,,,p303,21,female,left_right_width,2025-11-16_16h01.03.504,exp1,2023.1.0,59.94488665630131,
,,,,,,,,,,,,,,,,5,7.8,8.9,10,11.1,12.2,1.1,0.7000000000000001,0.4,4.800000000000001,10,initial,36.05,281,321,361,400,440,9,9,9,9,9,,,,,,,3,0,3,0,0,12,12,38,,,,,,,,,,,,,,3,2.065952399978414,3,0.25,0.39999999999999997,14.41717,return,1.246889099944383,,,,,,,,,,,,,,,,,p303,21,female,left_right_width,2025-11-16_16h01.03.504,exp1,2023.1.0,59.94488665630131,
,,,,,,,,,,,,,,,,4,8.95,9.65,10.35,11.05,0,0.7,0.1499999999999999,0.55,2.65,10,initial,36.05,323,348,373,398,0,9,9,9,9,0,,,,,,,3,0,3,0,0,13,13,23,,,,,,,,,,,,,,3,1.1674632000504062,3,0.35,0.3,10.81288,return,1.4559886999195442,,,,,,,,,,,,,,,,,p303,21,female,left_right_width,2025-11-16_16h01.03.504,exp1,2023.1.0,59.94488665630131,
,,,,,,,,,,,,,,,,5,8.2,9.1,10,10.9,11.8,0.9,0.5,0.4,4,10,initial,36.05,296,328,361,393,425,9,9,9,9,9,,,,,,,3,0,3,0,0,14,14,50,,,,,,,,,,,,,,3,1.5444967999355868,3,0.5,0.35000000000000003,12.61502,return,1.498718100017868,,,,,,,,,,,,,,,,,p303,21,female,left_right_width,2025-11-16_16h01.03.504,exp1,2023.1.0,59.94488665630131,
,,,,,,,,,,,,,,,,4,8.825,9.608333333333333,10.391666666666667,11.175,0,0.7833333333333333,0.5333333333333333,0.25,2.6,10,match,36.05,318,346,375,403,0,9,9,9,9,0,,,,,,,3,0,3,0,0,15,15,5,,,,,,,,,,,,,,3,1.0238897999515757,3,0.4,0.20000000000000007,7.20859,return,1.412504000007175,,,,,,,,,,,,,,,,,p303,21,female,left_right_width,2025-11-16_16h01.03.504,exp1,2023.1.0,59.94488665630131,
,,,,,,,,,,,,,,,,5,8.65,9.325,10,10.675,11.35,0.675,0.125,0.55,3.25,10,match,36.05,312,336,361,385,409,9,9,9,9,9,,,,,,,3,0,3,0,0,16,16,29,,,,,,,,,,,,,,3,0.8626259000739083,3,0.2,0.35,12.61502,return,1.770985099952668,,,,,,,,,,,,,,,,,p303,21,female,left_right_width,2025-11-16_16h01.03.504,exp1,2023.1.0,59.94488665630131,
,,,,,,,,,,,,,,,,5,8.35,9.175,10,10.825,11.65,0.825,0.575,0.25,3.55,10,match,36.05,301,331,361,390,420,9,9,9,9,9,,,,,,,3,0,3,0,0,17,17,20,,,,,,,,,,,,,,3,0.9218529999488965,3,0.2,0.15000000000000002,5.40644,return,1.204214399913326,,,,,,,,,,,,,,,,,p303,21,female,left_right_width,2025-11-16_16h01.03.504,exp1,2023.1.0,59.94488665630131,
,,,,,,,,,,,,,,,,5,8.6,9.3,10,10.7,11.4,0.7,0.44999999999999996,0.25,3.05,10,initial,36.05,310,335,361,386,411,9,9,9,9,9,,,,,,,3,0,3,0,0,18,18,42,,,,,,,,,,,,,,3,0.843980300007388,3,0.55,0.20000000000000007,7.20859,return,1.8488267000066116,,,,,,,,,,,,,,,,,p303,21,female,left_right_width,2025-11-16_16h01.03.504,exp1,2023.1.0,59.94488665630131,
,,,,,,,,,,,,,,,,4,9.3,9.766666666666667,10.233333333333333,10.7,0,0.4666666666666667,0.06666666666666665,0.4,1.8,10,match,36.05,335,352,369,386,0,9,9,9,9,0,,,,,,,3,0,3,0,0,19,19,10,,,,,,,,,,,,,,2,0.7911457000300288,2,0.3,0.39999999999999997,14.41717,return,1.0158440000377595,,,,,,,,,,,,,,,,,p303,21,female,left_right_width,2025-11-16_16h01.03.504,exp1,2023.1.0,59.94488665630131,
,,,,,,,,,,,,,,,,5,8.35,9.175,10,10.825,11.65,0.8250000000000001,0.275,0.55,3.85,10,match,36.05,301,331,361,390,420,9,9,9,9,9,,,,,,,3,0,3,0,0,20,20,18,,,,,,,,,,,,,,3,1.3240707999793813,3,0.2,0.15000000000000002,5.40644,return,1.2385414000600576,,,,,,,,,,,,,,,,,p303,21,female,left_right_width,2025-11-16_16h01.03.504,exp1,2023.1.0,59.94488665630131,
,,,,,,,,,,,,,,,,3,9.1,10,10.9,0,0,0.9,0.5,0.4,2.2,10,initial,36.05,328,361,393,0,0,9,9,9,0,0,,,,,,,3,0,3,0,0,21,21,15,,,,,,,,,,,,,,2,0.5326154000358656,2,0.3,0.2,7.20859,return,0.9918717000400648,,,,,,,,,,,,,,,,,p303,21,female,left_right_width,2025-11-16_16h01.03.504,exp1,2023.1.0,59.94488665630131,
,,,,,,,,,,,,,,,,4,8.35,9.45,10.55,11.65,0,1.1,0.7000000000000001,0.4,3.7,10,initial,36.05,301,341,380,420,0,9,9,9,9,0,,,,,,,3,0,3,0,0,22,22,21,,,,,,,,,,,,,,3,0.8905649000080302,3,0.35,0.2,7.20859,return,1.5738537999568507,,,,,,,,,,,,,,,,,p303,21,female,left_right_width,2025-11-16_16h01.03.504,exp1,2023.1.0,59.94488665630131,
,,,,,,,,,,,,,,,,4,8.35,9.45,10.55,11.65,0,1.1,0.55,0.55,3.8500000000000005,10,initial,36.05,301,341,380,420,0,9,9,9,9,0,,,,,,,3,0,3,0,0,23,23,17,,,,,,,,,,,,,,3,0.7348079000366852,3,0.25,0.2,7.20859,return,1.1674614999210462,,,,,,,,,,,,,,,,,p303,21,female,left_right_width,2025-11-16_16h01.03.504,exp1,2023.1.0,59.94488665630131,
,,,,,,,,,,,,,,,,3,7.8,10,12.2,0,0,2.2,1.9500000000000002,0.25,4.65,10,match,36.05,281,361,440,0,0,9,9,9,0,0,,,,,,,3,0,3,0,0,24,24,37,,,,,,,,,,,,,,2,0.6655410000821576,2,0.25,0.15000000000000002,5.40644,return,1.055195500026457,,,,,,,,,,,,,,,,,p303,21,female,left_right_width,2025-11-16_16h01.03.504,exp1,2023.1.0,59.94488665630131,
,,,,,,,,,,,,,,,,4,8.65,9.55,10.45,11.35,0,0.9,0.5,0.4,3.1,10,initial,36.05,312,344,377,409,0,9,9,9,9,0,,,,,,,3,0,3,0,0,25,25,32,,,,,,,,,,,,,,3,0.8488536999793723,3,0.2,0.3,10.81288,return,1.4544578000204638,,,,,,,,,,,,,,,,,p303,21,female,left_right_width,2025-11-16_16h01.03.504,exp1,2023.1.0,59.94488665630131,
,,,,,,,,,,,,,,,,4,8.9,9.633333333333333,10.366666666666667,11.1,0,0.7333333333333334,0.4833333333333334,0.25,2.45,10,match,36.05,321,347,374,400,0,9,9,9,9,0,,,,,,,3,0,3,0,0,26,26,3,,,,,,,,,,,,,,2,0.5620236999820918,2,0.25,0.10000000000000002,3.60429,return,1.1145562999881804,,,,,,,,,,,,,,,,,p303,21,female,left_right_width,2025-11-16_16h01.03.504,exp1,2023.1.0,59.94488665630131,
,,,,,,,,,,,,,,,,5,8.2,9.1,10,10.9,11.8,0.9,0.65,0.25,3.85,10,initial,36.05,296,328,361,393,425,9,9,9,9,9,,,,,,,3,0,3,0,0,27,27,48,,,,,,,,,,,,,,3,0.6605655000312254,3,0.5,0.20000000000000007,7.20859,return,1.544471999979578,,,,,,,,,,,,,,,,,p303,21,female,left_right_width,2025-11-16_16h01.03.504,exp1,2023.1.0,59.94488665630131,
,,,,,,,,,,,,,,,,4,8.95,9.65,10.35,11.05,0,0.7,0.44999999999999996,0.25,2.3499999999999996,10,initial,36.05,323,348,373,398,0,9,9,9,9,0,,,,,,,3,0,3,0,0,28,28,24,,,,,,,,,,,,,,2,0.6071472999174148,2,0.35,0.2,7.20859,return,1.397385000018403,,,,,,,,,,,,,,,,,p303,21,female,left_right_width,2025-11-16_16h01.03.504,exp1,2023.1.0,59.94488665630131,
,,,,,,,,,,,,,,,,3,8.2,10,11.8,0,0,1.8,1.25,0.55,4.15,10,match,36.05,296,361,425,0,0,9,9,9,0,0,,,,,,,3,0,3,0,0,29,29,47,,,,,,,,,,,,,,2,0.7725814000004902,2,0.45,0.4,14.41717,return,1.428787300013937,,,,,,,,,,,,,,,,,p303,21,female,left_right_width,2025-11-16_16h01.03.504,exp1,2023.1.0,59.94488665630131,
,,,,,,,,,,,,,,,,4,9.1,9.7,10.3,10.9,0,0.6,0.04999999999999997,0.55,2.35,10,match,36.05,328,350,371,393,0,9,9,9,9,0,,,,,,,3,0,3,0,0,30,30,12,,,,,,,,,,,,,,2,0.6445480000693351,2,0.35,0.44999999999999996,16.21932,return,1.0492779000196606,,,,,,,,,,,,,,,,,p303,21,female,left_right_width,2025-11-16_16h01.03.504,exp1,2023.1.0,59.94488665630131,
,,,,,,,,,,,,,,,,5,8.275,9.1375,10,10.8625,11.725,0.8625,0.6125,0.25,3.7,10,match,36.05,298,329,361,392,423,9,9,9,9,9,,,,,,,3,0,3,0,0,31,31,22,,,,,,,,,,,,,,3,0.8326135999523103,3,0.2,0.15000000000000002,5.40644,return,0.878675099927932,,,,,,,,,,,,,,,,,p303,21,female,left_right_width,2025-11-16_16h01.03.504,exp1,2023.1.0,59.94488665630131,
,,,,,,,,,,,,,,,,4,9.3,9.766666666666667,10.233333333333333,10.7,0,0.4666666666666667,0.21666666666666665,0.25,1.65,10,match,36.05,335,352,369,386,0,9,9,9,9,0,,,,,,,3,0,3,0,0,32,32,8,,,,,,,,,,,,,,2,0.5899888999992982,2,0.35,0.15000000000000002,5.40644,return,1.2044483999488875,,,,,,,,,,,,,,,,,p303,21,female,left_right_width,2025-11-16_16h01.03.504,exp1,2023.1.0,59.94488665630131,
,,,,,,,,,,,,,,,,5,8.6,9.3,10,10.7,11.4,0.7,0.29999999999999993,0.4,3.1999999999999997,10,initial,36.05,310,335,361,386,411,9,9,9,9,9,,,,,,,3,0,3,0,0,33,33,44,,,,,,,,,,,,,,3,0.6258675999706611,3,0.5,0.20000000000000007,7.20859,return,1.8305822999682277,,,,,,,,,,,,,,,,,p303,21,female,left_right_width,2025-11-16_16h01.03.504,exp1,2023.1.0,59.94488665630131,
,,,,,,,,,,,,,,,,3,7.8,10,12.2,0,0,2.2,1.65,0.55,4.95,10,match,36.05,281,361,440,0,0,9,9,9,0,0,,,,,,,3,0,3,0,0,34,34,35,,,,,,,,,,,,,,2,0.5234610000625253,2,0.45,0.45,16.21932,return,1.3332822000375018,,,,,,,,,,,,,,,,,p303,21,female,left_right_width,2025-11-16_16h01.03.504,exp1,2023.1.0,59.94488665630131,
,,,,,,,,,,,,,,,,3,8.6,10,11.4,0,0,1.4,0.85,0.55,3.35,10,match,36.05,310,361,411,0,0,9,9,9,0,0,,,,,,,3,0,3,0,0,35,35,41,,,,,,,,,,,,,,2,0.4616773999296129,2,0.4,0.5,18.02146,return,1.2416135999374092,,,,,,,,,,,,,,,,,p303,21,female,left_right_width,2025-11-16_16h01.03.504,exp1,2023.1.0,59.94488665630131,
,,,,,,,,,,,,,,,,3,8.9,10,11.1,0,0,1.1,0.8500000000000001,0.25,2.45,10,initial,36.05,321,361,400,0,0,9,9,9,0,0,,,,,,,3,0,3,0,0,36,36,2,,,,,,,,,,,,,,2,0.5488409999525174,2,0.25,0.15000000000000002,5.40644,return,1.1020379000110552,,,,,,,,,,,,,,,,,p303,21,female,left_right_width,2025-11-16_16h01.03.504,exp1,2023.1.0,59.94488665630131,
,,,,,,,,,,,,,,,,3,8.2,10,11.8,0,0,1.8,1.55,0.25,3.85,10,match,36.05,296,361,425,0,0,9,9,9,0,0,,,,,,,3,0,3,0,0,37,37,49,,,,,,,,,,,,,,2,0.7828792999498546,2,0.35,0.2,7.20859,return,1.4385351999662817,,,,,,,,,,,,,,,,,p303,21,female,left_right_width,2025-11-16_16h01.03.504,exp1,2023.1.0,59.94488665630131,
,,,,,,,,,,,,,,,,5,7.8,8.9,10,11.1,12.2,1.1,0.8500000000000001,0.25,4.65,10,initial,36.05,281,321,361,400,440,9,9,9,9,9,,,,,,,3,0,3,0,0,38,38,36,,,,,,,,,,,,,,3,0.5989391000475734,3,0.55,0.25000000000000006,9.01073,return,1.7264832000946626,,,,,,,,,,,,,,,,,p303,21,female,left_right_width,2025-11-16_16h01.03.504,exp1,2023.1.0,59.94488665630131,
,,,,,,,,,,,,,,,,4,8.35,9.45,10.55,11.65,0,1.1,0.8500000000000001,0.25,3.5500000000000003,10,initial,36.05,301,341,380,420,0,9,9,9,9,0,,,,,,,3,0,3,0,0,39,39,19,,,,,,,,,,,,,,2,0.5464503000257537,2,0.2,0.25,9.01073,return,1.7710856999037787,,,,,,,,,,,,,,,,,p303,21,female,left_right_width,2025-11-16_16h01.03.504,exp1,2023.1.0,59.94488665630131,
,,,,,,,,,,,,,,,,4,9.1,9.7,10.3,10.9,0,0.6000000000000001,0.20000000000000004,0.4,2.2,10,match,36.05,328,350,371,393,0,9,9,9,9,0,,,,,,,3,0,3,0,0,40,40,16,,,,,,,,,,,,,,3,0.6191627000225708,3,0.35,0.15000000000000002,5.40644,return,1.2654436000157148,,,,,,,,,,,,,,,,,p303,21,female,left_right_width,2025-11-16_16h01.03.504,exp1,2023.1.0,59.94488665630131,
,,,,,,,,,,,,,,,,5,8.65,9.325,10,10.675,11.35,0.675,0.275,0.4,3.1,10,match,36.05,312,336,361,385,409,9,9,9,9,9,,,,,,,3,0,3,0,0,41,41,33,,,,,,,,,,,,,,3,0.5777874999912456,3,0.45,0.30000000000000004,10.81288,return,1.1302777000237256,,,,,,,,,,,,,,,,,p303,21,female,left_right_width,2025-11-16_16h01.03.504,exp1,2023.1.0,59.94488665630131,
,,,,,,,,,,,,,,,,3,8.9,10,11.1,0,0,1.1,0.55,0.55,2.75,10,initial,36.05,321,361,400,0,0,9,9,9,0,0,,,,,,,3,0,3,0,0,42,42,0,,,,,,,,,,,,,,2,0.5340216000331566,2,0.2,0.35,12.61502,return,1.4704244999447837,,,,,,,,,,,,,,,,,p303,21,female,left_right_width,2025-11-16_16h01.03.504,exp1,2023.1.0,59.94488665630131,
,,,,,,,,,,,,,,,,3,9.3,10,10.7,0,0,0.7,0.1499999999999999,0.55,1.95,10,initial,36.05,335,361,386,0,0,9,9,9,0,0,,,,,,,3,0,3,0,0,43,43,6,,,,,,,,,,,,,,2,0.9249543999321759,2,0.55,0.30000000000000004,10.81288,return,1.4476938999723643,,,,,,,,,,,,,,,,,p303,21,female,left_right_width,2025-11-16_16h01.03.504,exp1,2023.1.0,59.94488665630131,
,,,,,,,,,,,,,,,,4,8.65,9.55,10.45,11.35,0,0.9,0.65,0.25,2.95,10,initial,36.05,312,344,377,409,0,9,9,9,9,0,,,,,,,3,0,3,0,0,44,44,30,,,,,,,,,,,,,,3,0.6025116000091657,3,0.25,0.15000000000000002,5.40644,return,1.1531552999513224,,,,,,,,,,,,,,,,,p303,21,female,left_right_width,2025-11-16_16h01.03.504,exp1,2023.1.0,59.94488665630131,
,,,,,,,,,,,,,,,,3,7.800000000000001,10,12.2,0,0,2.1999999999999997,1.7999999999999998,0.4,4.8,10,match,36.05,281,361,440,0,0,9,9,9,0,0,,,,,,,3,0,3,0,0,45,45,39,,,,,,,,,,,,,,2,0.540051499963738,2,0.35,0.25,9.01073,return,1.7972311000339687,,,,,,,,,,,,,,,,,p303,21,female,left_right_width,2025-11-16_16h01.03.504,exp1,2023.1.0,59.94488665630131,
,,,,,,,,,,,,,,,,5,7.8,8.9,10,11.1,12.2,1.1,0.55,0.55,4.95,10,initial,36.05,281,321,361,400,440,9,9,9,9,9,,,,,,,3,0,3,0,0,46,46,34,,,,,,,,,,,,,,3,0.5649846999440342,3,0.25,0.35,12.61502,return,1.5329729999648407,,,,,,,,,,,,,,,,,p303,21,female,left_right_width,2025-11-16_16h01.03.504,exp1,2023.1.0,59.94488665630131,
,,,,,,,,,,,,,,,,3,9.3,10,10.7,0,0,0.7,0.44999999999999996,0.25,1.65,10,initial,36.05,335,361,386,0,0,9,9,9,0,0,,,,,,,3,0,3,0,0,47,47,7,,,,,,,,,,,,,,2,0.5731363999657333,2,0.35,0.15000000000000002,5.40644,return,1.2696005000034347,,,,,,,,,,,,,,,,,p303,21,female,left_right_width,2025-11-16_16h01.03.504,exp1,2023.1.0,59.94488665630131,
,,,,,,,,,,,,,,,,5,8.95,9.475,10,10.525,11.05,0.525,0.275,0.25,2.35,10,match,36.05,323,342,361,379,398,9,9,9,9,9,,,,,,,3,0,3,0,0,48,48,25,,,,,,,,,,,,,,3,0.6935286000370979,3,0.25,0.15000000000000002,5.40644,return,1.4808502000523731,,,,,,,,,,,,,,,,,p303,21,female,left_right_width,2025-11-16_16h01.03.504,exp1,2023.1.0,59.94488665630131,
,,,,,,,,,,,,,,,,4,8.65,9.55,10.45,11.35,0,0.9,0.35,0.55,3.25,10,initial,36.05,312,344,377,409,0,9,9,9,9,0,,,,,,,3,0,3,0,0,49,49,28,,,,,,,,,,,,,,2,0.9648656999925151,2,0.45,0.5,18.02146,return,1.2128967000171542,,,,,,,,,,,,,,,,,p303,21,female,left_right_width,2025-11-16_16h01.03.504,exp1,2023.1.0,59.94488665630131,
,,,,,,,,,,,,,,,,3,9.3,10,10.7,0,0,0.7,0.29999999999999993,0.4,1.8,10,initial,36.05,335,361,386,0,0,9,9,9,0,0,,,,,,,3,0,3,0,0,50,50,9,,,,,,,,,,,,,,2,0.512351099983789,2,0.2,0.35,12.61502,return,2.0585039999568835,,,,,,,,,,,,,,,,,p303,21,female,left_right_width,2025-11-16_16h01.03.504,exp1,2023.1.0,59.94488665630131,
,,,,,,,,,,,,,,,,3,8.6,10,11.4,0,0,1.4,1.15,0.25,3.05,10,match,36.05,310,361,411,0,0,9,9,9,0,0,,,,,,,3,0,3,0,0,51,51,43,,,,,,,,,,,,,,2,0.5716814999468625,2,0.45,0.20000000000000007,7.20859,return,2.002803700044751,,,,,,,,,,,,,,,,,p303,21,female,left_right_width,2025-11-16_16h01.03.504,exp1,2023.1.0,59.94488665630131,
,,,,,,,,,,,,,,,,,,,,,,,,,,,,,,,,,,,,,,,,,,,,,3,0,3,0,,,,,,,,,,,,,,,,,,,,,,,,,,,,2282.559059499996,2282.559059499996,2282.559059499996,,,,,,,,,,,,p303,21,female,left_right_width,2025-11-16_16h01.03.504,exp1,2023.1.0,59.94488665630131,
,,,,,,,,,,,,,,,,4,9.1,9.7,10.3,10.9,0,0.5999999999999999,0.3499999999999999,0.25,2.05,10,match,36.05,328,350,371,393,0,9,9,9,9,0,,,,,,,4,0,4,0,0,0,0,14,,,,,,,,,,,,,,2,0.8605732000432909,2,0.25,0.15000000000000002,5.40644,return,1.545699100010097,,,,,,,,,,,,,,,,,p303,21,female,left_right_width,2025-11-16_16h01.03.504,exp1,2023.1.0,59.94488665630131,
,,,,,,,,,,,,,,,,5,7.8,8.9,10,11.1,12.2,1.1,0.55,0.55,4.95,10,initial,36.05,281,321,361,400,440,9,9,9,9,9,,,,,,,4,0,4,0,0,1,1,34,,,,,,,,,,,,,,3,0.7090827999636531,3,0.55,0.55,19.82361,return,1.5913048000074923,,,,,,,,,,,,,,,,,p303,21,female,left_right_width,2025-11-16_16h01.03.504,exp1,2023.1.0,59.94488665630131,
,,,,,,,,,,,,,,,,3,8.9,10,11.1,0,0,1.1,0.55,0.55,2.75,10,initial,36.05,321,361,400,0,0,9,9,9,0,0,,,,,,,4,0,4,0,0,2,2,0,,,,,,,,,,,,,,2,0.688394199940376,2,0.5,0.4,14.41717,return,1.0923378999577835,,,,,,,,,,,,,,,,,p303,21,female,left_right_width,2025-11-16_16h01.03.504,exp1,2023.1.0,59.94488665630131,
,,,,,,,,,,,,,,,,4,8.95,9.65,10.35,11.05,0,0.7,0.44999999999999996,0.25,2.3499999999999996,10,initial,36.05,323,348,373,398,0,9,9,9,9,0,,,,,,,4,0,4,0,0,3,3,24,,,,,,,,,,,,,,2,0.581562599982135,2,0.4,0.25000000000000006,9.01073,return,1.2445617999183014,,,,,,,,,,,,,,,,,p303,21,female,left_right_width,2025-11-16_16h01.03.504,exp1,2023.1.0,59.94488665630131,
,,,,,,,,,,,,,,,,5,8.6,9.3,10,10.7,11.4,0.7,0.44999999999999996,0.25,3.05,10,initial,36.05,310,335,361,386,411,9,9,9,9,9,,,,,,,4,0,4,0,0,4,4,42,,,,,,,,,,,,,,3,0.6585648000473157,3,0.4,0.20000000000000007,7.20859,return,1.3027143999934196,,,,,,,,,,,,,,,,,p303,21,female,left_right_width,2025-11-16_16h01.03.504,exp1,2023.1.0,59.94488665630131,
,,,,,,,,,,,,,,,,3,9.1,10,10.9,0,0,0.9,0.65,0.25,2.05,10,initial,36.05,328,361,393,0,0,9,9,9,0,0,,,,,,,4,0,4,0,0,5,5,13,,,,,,,,,,,,,,2,0.5084775999421254,2,0.35,0.15000000000000002,5.40644,return,1.1271935000550002,,,,,,,,,,,,,,,,,p303,21,female,left_right_width,2025-11-16_16h01.03.504,exp1,2023.1.0,59.94488665630131,
,,,,,,,,,,,,,,,,5,8.95,9.475,10,10.525,11.05,0.525,0.125,0.4,2.5,10,match,36.05,323,342,361,379,398,9,9,9,9,9,,,,,,,4,0,4,0,0,6,6,27,,,,,,,,,,,,,,4,1.8623822000809014,4,0.5,0.35000000000000003,12.61502,return,1.227272400050424,,,,,,,,,,,,,,,,,p303,21,female,left_right_width,2025-11-16_16h01.03.504,exp1,2023.1.0,59.94488665630131,
,,,,,,,,,,,,,,,,4,8.35,9.45,10.55,11.65,0,1.1,0.8500000000000001,0.25,3.5500000000000003,10,initial,36.05,301,341,380,420,0,9,9,9,9,0,,,,,,,4,0,4,0,0,7,7,19,,,,,,,,,,,,,,2,0.7074385000159964,2,0.25,0.2,7.20859,return,1.0458135000662878,,,,,,,,,,,,,,,,,p303,21,female,left_right_width,2025-11-16_16h01.03.504,exp1,2023.1.0,59.94488665630131,
,,,,,,,,,,,,,,,,4,8.9,9.633333333333333,10.366666666666667,11.1,0,0.7333333333333334,0.4833333333333334,0.25,2.45,10,match,36.05,321,347,374,400,0,9,9,9,9,0,,,,,,,4,0,4,0,0,8,8,3,,,,,,,,,,,,,,3,0.6745270000537857,3,0.5,0.25000000000000006,9.01073,return,1.383032700046897,,,,,,,,,,,,,,,,,p303,21,female,left_right_width,2025-11-16_16h01.03.504,exp1,2023.1.0,59.94488665630131,
,,,,,,,,,,,,,,,,4,8.35,9.45,10.55,11.65,0,1.1,0.55,0.55,3.8500000000000005,10,initial,36.05,301,341,380,420,0,9,9,9,9,0,,,,,,,4,0,4,0,0,9,9,17,,,,,,,,,,,,,,3,0.5885737000498921,3,0.55,0.45,16.21932,return,0.9964978999923915,,,,,,,,,,,,,,,,,p303,21,female,left_right_width,2025-11-16_16h01.03.504,exp1,2023.1.0,59.94488665630131,
,,,,,,,,,,,,,,,,3,8.9,10,11.1,0,0,1.1,0.7000000000000001,0.4,2.6000000000000005,10,initial,36.05,321,361,400,0,0,9,9,9,0,0,,,,,,,4,0,4,0,0,10,10,4,,,,,,,,,,,,,,2,0.5902817000169307,2,0.25,0.35,12.61502,return,1.3010788999963552,,,,,,,,,,,,,,,,,p303,21,female,left_right_width,2025-11-16_16h01.03.504,exp1,2023.1.0,59.94488665630131,
,,,,,,,,,,,,,,,,5,8.65,9.325,10,10.675,11.35,0.675,0.42500000000000004,0.25,2.95,10,match,36.05,312,336,361,385,409,9,9,9,9,9,,,,,,,4,0,4,0,0,11,11,31,,,,,,,,,,,,,,3,0.6903921000193805,3,0.2,0.15000000000000002,5.40644,return,0.8531548000173643,,,,,,,,,,,,,,,,,p303,21,female,left_right_width,2025-11-16_16h01.03.504,exp1,2023.1.0,59.94488665630131,
,,,,,,,,,,,,,,,,5,8.6,9.3,10,10.7,11.4,0.7,0.29999999999999993,0.4,3.1999999999999997,10,initial,36.05,310,335,361,386,411,9,9,9,9,9,,,,,,,4,0,4,0,0,12,12,44,,,,,,,,,,,,,,3,0.7405005999607965,3,0.2,0.35,12.61502,return,1.0137598000001162,,,,,,,,,,,,,,,,,p303,21,female,left_right_width,2025-11-16_16h01.03.504,exp1,2023.1.0,59.94488665630131,
,,,,,,,,,,,,,,,,4,8.9,9.633333333333333,10.366666666666667,11.1,0,0.7333333333333333,0.18333333333333326,0.55,2.75,10,match,36.05,321,347,374,400,0,9,9,9,9,0,,,,,,,4,0,4,0,0,13,13,1,,,,,,,,,,,,,,3,0.5540780000155792,3,0.3,0.39999999999999997,14.41717,return,1.3157726000063121,,,,,,,,,,,,,,,,,p303,21,female,left_right_width,2025-11-16_16h01.03.504,exp1,2023.1.0,59.94488665630131,
,,,,,,,,,,,,,,,,4,9.3,9.766666666666667,10.233333333333333,10.7,0,0.4666666666666667,0.06666666666666665,0.4,1.8,10,match,36.05,335,352,369,386,0,9,9,9,9,0,,,,,,,4,0,4,0,0,14,14,10,,,,,,,,,,,,,,3,0.5674886000342667,3,0.2,0.2,7.20859,return,1.3111418999033049,,,,,,,,,,,,,,,,,p303,21,female,left_right_width,2025-11-16_16h01.03.504,exp1,2023.1.0,59.94488665630131,
,,,,,,,,,,,,,,,,3,9.3,10,10.7,0,0,0.7,0.1499999999999999,0.55,1.95,10,initial,36.05,335,361,386,0,0,9,9,9,0,0,,,,,,,4,0,4,0,0,15,15,6,,,,,,,,,,,,,,2,0.7127656999509782,2,0.55,0.45,16.21932,return,1.3065706000197679,,,,,,,,,,,,,,,,,p303,21,female,left_right_width,2025-11-16_16h01.03.504,exp1,2023.1.0,59.94488665630131,
,,,,,,,,,,,,,,,,3,8.525,10,11.475,0,0,1.475,1.225,0.25,3.2,10,match,36.05,307,361,414,0,0,9,9,9,0,0,,,,,,,4,0,4,0,0,16,16,45,,,,,,,,,,,,,,2,1.0966133000329137,2,0.35,0.25,9.01073,return,0.9717677000444382,,,,,,,,,,,,,,,,,p303,21,female,left_right_width,2025-11-16_16h01.03.504,exp1,2023.1.0,59.94488665630131,
,,,,,,,,,,,,,,,,5,7.8,8.9,10,11.1,12.2,1.1,0.7000000000000001,0.4,4.800000000000001,10,initial,36.05,281,321,361,400,440,9,9,9,9,9,,,,,,,4,0,4,0,0,17,17,38,,,,,,,,,,,,,,3,0.561312299920246,3,0.45,0.30000000000000004,10.81288,return,1.2587031000293791,,,,,,,,,,,,,,,,,p303,21,female,left_right_width,2025-11-16_16h01.03.504,exp1,2023.1.0,59.94488665630131,
,,,,,,,,,,,,,,,,4,8.825,9.608333333333333,10.391666666666667,11.175,0,0.7833333333333333,0.5333333333333333,0.25,2.6,10,match,36.05,318,346,375,403,0,9,9,9,9,0,,,,,,,4,0,4,0,0,18,18,5,,,,,,,,,,,,,,3,0.5450077999848872,3,0.55,0.30000000000000004,10.81288,return,1.3855937999906018,,,,,,,,,,,,,,,,,p303,21,female,left_right_width,2025-11-16_16h01.03.504,exp1,2023.1.0,59.94488665630131,
,,,,,,,,,,,,,,,,5,8.65,9.325,10,10.675,11.35,0.675,0.275,0.4,3.1,10,match,36.05,312,336,361,385,409,9,9,9,9,9,,,,,,,4,0,4,0,0,19,19,33,,,,,,,,,,,,,,3,0.5216977000236511,3,0.3,0.35,12.61502,return,1.1554058999754488,,,,,,,,,,,,,,,,,p303,21,female,left_right_width,2025-11-16_16h01.03.504,exp1,2023.1.0,59.94488665630131,
,,,,,,,,,,,,,,,,5,8.35,9.175,10,10.825,11.65,0.825,0.575,0.25,3.55,10,match,36.05,301,331,361,390,420,9,9,9,9,9,,,,,,,4,0,4,0,0,20,20,20,,,,,,,,,,,,,,4,1.4418920999160036,4,0.5,0.25000000000000006,9.01073,return,1.510553800035268,,,,,,,,,,,,,,,,,p303,21,female,left_right_width,2025-11-16_16h01.03.504,exp1,2023.1.0,59.94488665630131,
,,,,,,,,,,,,,,,,5,8.6,9.3,10,10.7,11.4,0.7,0.1499999999999999,0.55,3.3499999999999996,10,initial,36.05,310,335,361,386,411,9,9,9,9,9,,,,,,,4,0,4,0,0,21,21,40,,,,,,,,,,,,,,4,1.0858445999911055,4,0.55,0.45,16.21932,return,1.4572329999646172,,,,,,,,,,,,,,,,,p303,21,female,left_right_width,2025-11-16_16h01.03.504,exp1,2023.1.0,59.94488665630131,
,,,,,,,,,,,,,,,,4,9.3,9.766666666666667,10.233333333333333,10.7,0,0.4666666666666667,0.21666666666666665,0.25,1.65,10,match,36.05,335,352,369,386,0,9,9,9,9,0,,,,,,,4,0,4,0,0,22,22,8,,,,,,,,,,,,,,3,0.6441363000776619,3,0.5,0.30000000000000004,10.81288,return,1.289643199997954,,,,,,,,,,,,,,,,,p303,21,female,left_right_width,2025-11-16_16h01.03.504,exp1,2023.1.0,59.94488665630131,
,,,,,,,,,,,,,,,,5,8.65,9.325,10,10.675,11.35,0.675,0.125,0.55,3.25,10,match,36.05,312,336,361,385,409,9,9,9,9,9,,,,,,,4,0,4,0,0,23,23,29,,,,,,,,,,,,,,3,2.0251725000562146,3,0.5,0.4,14.41717,return,1.8309904000489041,,,,,,,,,,,,,,,,,p303,21,female,left_right_width,2025-11-16_16h01.03.504,exp1,2023.1.0,59.94488665630131,
,,,,,,,,,,,,,,,,3,8.2,10,11.8,0,0,1.7999999999999998,1.4,0.4,4,10,match,36.05,296,361,425,0,0,9,9,9,0,0,,,,,,,4,0,4,0,0,24,24,51,,,,,,,,,,,,,,2,0.6764048999175429,2,0.5,0.30000000000000004,10.81288,return,1.2733926000073552,,,,,,,,,,,,,,,,,p303,21,female,left_right_width,2025-11-16_16h01.03.504,exp1,2023.1.0,59.94488665630131,
,,,,,,,,,,,,,,,,3,9.1,10,10.9,0,0,0.9,0.35,0.55,2.35,10,initial,36.05,328,361,393,0,0,9,9,9,0,0,,,,,,,4,0,4,0,0,25,25,11,,,,,,,,,,,,,,2,0.6491634000558406,2,0.2,0.39999999999999997,14.41717,return,1.3092474000295624,,,,,,,,,,,,,,,,,p303,21,female,left_right_width,2025-11-16_16h01.03.504,exp1,2023.1.0,59.94488665630131,
,,,,,,,,,,,,,,,,4,8.65,9.55,10.45,11.35,0,0.9,0.35,0.55,3.25,10,initial,36.05,312,344,377,409,0,9,9,9,9,0,,,,,,,4,0,4,0,0,26,26,28,,,,,,,,,,,,,,3,1.3454739999724552,3,0.45,0.5,18.02146,return,1.5304994999896735,,,,,,,,,,,,,,,,,p303,21,female,left_right_width,2025-11-16_16h01.03.504,exp1,2023.1.0,59.94488665630131,
,,,,,,,,,,,,,,,,3,8.9,10,11.1,0,0,1.1,0.8500000000000001,0.25,2.45,10,initial,36.05,321,361,400,0,0,9,9,9,0,0,,,,,,,4,0,4,0,0,27,27,2,,,,,,,,,,,,,,2,0.5607707999879494,2,0.55,0.25000000000000006,9.01073,return,1.5445013999706134,,,,,,,,,,,,,,,,,p303,21,female,left_right_width,2025-11-16_16h01.03.504,exp1,2023.1.0,59.94488665630131,
,,,,,,,,,,,,,,,,3,8.2,10,11.8,0,0,1.8,1.25,0.55,4.15,10,match,36.05,296,361,425,0,0,9,9,9,0,0,,,,,,,4,0,4,0,0,28,28,47,,,,,,,,,,,,,,2,1.230324300006032,2,0.25,0.39999999999999997,14.41717,return,1.1965246999170631,,,,,,,,,,,,,,,,,p303,21,female,left_right_width,2025-11-16_16h01.03.504,exp1,2023.1.0,59.94488665630131,
,,,,,,,,,,,,,,,,5,8.2,9.1,10,10.9,11.8,0.9,0.5,0.4,4,10,initial,36.05,296,328,361,393,425,9,9,9,9,9,,,,,,,4,0,4,0,0,29,29,50,,,,,,,,,,,,,,4,1.0821560000767931,4,0.4,0.30000000000000004,10.81288,return,1.0384817000012845,,,,,,,,,,,,,,,,,p303,21,female,left_right_width,2025-11-16_16h01.03.504,exp1,2023.1.0,59.94488665630131,
,,,,,,,,,,,,,,,,3,7.8,10,12.2,0,0,2.2,1.65,0.55,4.95,10,match,36.05,281,361,440,0,0,9,9,9,0,0,,,,,,,4,0,4,0,0,30,30,35,,,,,,,,,,,,,,2,1.1150214999215677,2,0.35,0.44999999999999996,16.21932,return,1.1013153999811038,,,,,,,,,,,,,,,,,p303,21,female,left_right_width,2025-11-16_16h01.03.504,exp1,2023.1.0,59.94488665630131,
,,,,,,,,,,,,,,,,4,8.95,9.65,10.35,11.05,0,0.7,0.29999999999999993,0.4,2.5,10,initial,36.05,323,348,373,398,0,9,9,9,9,0,,,,,,,4,0,4,0,0,31,31,26,,,,,,,,,,,,,,2,1.0325351000064984,2,0.3,0.25,9.01073,return,0.9586192000424489,,,,,,,,,,,,,,,,,p303,21,female,left_right_width,2025-11-16_16h01.03.504,exp1,2023.1.0,59.94488665630131,
,,,,,,,,,,,,,,,,3,9.3,10,10.7,0,0,0.7,0.44999999999999996,0.25,1.65,10,initial,36.05,335,361,386,0,0,9,9,9,0,0,,,,,,,4,0,4,0,0,32,32,7,,,,,,,,,,,,,,2,0.7306701999623328,2,0.5,0.30000000000000004,10.81288,return,1.820265999995172,,,,,,,,,,,,,,,,,p303,21,female,left_right_width,2025-11-16_16h01.03.504,exp1,2023.1.0,59.94488665630131,
,,,,,,,,,,,,,,,,5,8.35,9.175,10,10.825,11.65,0.8250000000000001,0.275,0.55,3.85,10,match,36.05,301,331,361,390,420,9,9,9,9,9,,,,,,,4,0,4,0,0,33,33,18,,,,,,,,,,,,,,4,1.1324596999911591,4,0.4,0.35000000000000003,12.61502,return,1.8064237999496982,,,,,,,,,,,,,,,,,p303,21,female,left_right_width,2025-11-16_16h01.03.504,exp1,2023.1.0,59.94488665630131,
,,,,,,,,,,,,,,,,4,8.35,9.45,10.55,11.65,0,1.1,0.7000000000000001,0.4,3.7,10,initial,36.05,301,341,380,420,0,9,9,9,9,0,,,,,,,4,0,4,0,0,34,34,21,,,,,,,,,,,,,,3,1.3433616000693291,3,0.45,0.30000000000000004,10.81288,return,1.5927000999217853,,,,,,,,,,,,,,,,,p303,21,female,left_right_width,2025-11-16_16h01.03.504,exp1,2023.1.0,59.94488665630131,
,,,,,,,,,,,,,,,,3,9.3,10,10.7,0,0,0.7,0.29999999999999993,0.4,1.8,10,initial,36.05,335,361,386,0,0,9,9,9,0,0,,,,,,,4,0,4,0,0,35,35,9,,,,,,,,,,,,,,2,0.6173946999479085,2,0.35,0.39999999999999997,14.41717,return,1.1676417000126094,,,,,,,,,,,,,,,,,p303,21,female,left_right_width,2025-11-16_16h01.03.504,exp1,2023.1.0,59.94488665630131,
,,,,,,,,,,,,,,,,3,7.8,10,12.2,0,0,2.2,1.9500000000000002,0.25,4.65,10,match,36.05,281,361,440,0,0,9,9,9,0,0,,,,,,,4,0,4,0,0,36,36,37,,,,,,,,,,,,,,2,0.7925084999296814,2,0.45,0.25000000000000006,9.01073,return,1.4488338000373915,,,,,,,,,,,,,,,,,p303,21,female,left_right_width,2025-11-16_16h01.03.504,exp1,2023.1.0,59.94488665630131,
,,,,,,,,,,,,,,,,3,8.6,10,11.4,0,0,1.4,0.85,0.55,3.35,10,match,36.05,310,361,411,0,0,9,9,9,0,0,,,,,,,4,0,4,0,0,37,37,41,,,,,,,,,,,,,,2,0.894749499973841,2,0.5,0.30000000000000004,10.81288,return,1.259203699999489,,,,,,,,,,,,,,,,,p303,21,female,left_right_width,2025-11-16_16h01.03.504,exp1,2023.1.0,59.94488665630131,
,,,,,,,,,,,,,,,,4,8.65,9.55,10.45,11.35,0,0.9,0.5,0.4,3.1,10,initial,36.05,312,344,377,409,0,9,9,9,9,0,,,,,,,4,0,4,0,0,38,38,32,,,,,,,,,,,,,,2,1.0894767000572756,2,0.5,0.30000000000000004,10.81288,return,1.4130111000267789,,,,,,,,,,,,,,,,,p303,21,female,left_right_width,2025-11-16_16h01.03.504,exp1,2023.1.0,59.94488665630131,
,,,,,,,,,,,,,,,,4,8.95,9.65,10.35,11.05,0,0.7,0.1499999999999999,0.55,2.65,10,initial,36.05,323,348,373,398,0,9,9,9,9,0,,,,,,,4,0,4,0,0,39,39,23,,,,,,,,,,,,,,2,0.7184387999586761,2,0.45,0.55,19.82361,return,1.3274679000023752,,,,,,,,,,,,,,,,,p303,21,female,left_right_width,2025-11-16_16h01.03.504,exp1,2023.1.0,59.94488665630131,
,,,,,,,,,,,,,,,,4,9.1,9.7,10.3,10.9,0,0.6,0.04999999999999997,0.55,2.35,10,match,36.05,328,350,371,393,0,9,9,9,9,0,,,,,,,4,0,4,0,0,40,40,12,,,,,,,,,,,,,,2,0.6791993000078946,2,0.5,0.8000000000000003,28.83434,return,2.1865169999655336,,,,,,,,,,,,,,,,,p303,21,female,left_right_width,2025-11-16_16h01.03.504,exp1,2023.1.0,59.94488665630131,
,,,,,,,,,,,,,,,,3,8.6,10,11.4,0,0,1.4,1.15,0.25,3.05,10,match,36.05,310,361,411,0,0,9,9,9,0,0,,,,,,,4,0,4,0,0,41,41,43,,,,,,,,,,,,,,2,0.5179626999888569,2,0.55,0.20000000000000007,7.20859,return,1.8244735000189394,,,,,,,,,,,,,,,,,p303,21,female,left_right_width,2025-11-16_16h01.03.504,exp1,2023.1.0,59.94488665630131,
,,,,,,,,,,,,,,,,5,8.2,9.1,10,10.9,11.8,0.9,0.35,0.55,4.15,10,initial,36.05,296,328,361,393,425,9,9,9,9,9,,,,,,,4,0,4,0,0,42,42,46,,,,,,,,,,,,,,3,0.6029984999913722,3,0.4,0.4,14.41717,return,1.1215872999746352,,,,,,,,,,,,,,,,,p303,21,female,left_right_width,2025-11-16_16h01.03.504,exp1,2023.1.0,59.94488665630131,
,,,,,,,,,,,,,,,,5,8.2,9.1,10,10.9,11.8,0.9,0.65,0.25,3.85,10,initial,36.05,296,328,361,393,425,9,9,9,9,9,,,,,,,4,0,4,0,0,43,43,48,,,,,,,,,,,,,,4,1.0527129999827594,4,0.55,0.25000000000000006,9.01073,return,1.3947151999454945,,,,,,,,,,,,,,,,,p303,21,female,left_right_width,2025-11-16_16h01.03.504,exp1,2023.1.0,59.94488665630131,
,,,,,,,,,,,,,,,,3,8.2,10,11.8,0,0,1.8,1.55,0.25,3.85,10,match,36.05,296,361,425,0,0,9,9,9,0,0,,,,,,,4,0,4,0,0,44,44,49,,,,,,,,,,,,,,2,2.3588118000188842,2,0.45,0.30000000000000004,10.81288,return,1.7991804999765009,,,,,,,,,,,,,,,,,p303,21,female,left_right_width,2025-11-16_16h01.03.504,exp1,2023.1.0,59.94488665630131,
,,,,,,,,,,,,,,,,3,9.1,10,10.9,0,0,0.9,0.5,0.4,2.2,10,initial,36.05,328,361,393,0,0,9,9,9,0,0,,,,,,,4,0,4,0,0,45,45,15,,,,,,,,,,,,,,2,0.7326582000823691,2,0.3,0.44999999999999996,16.21932,return,1.3919065999798477,,,,,,,,,,,,,,,,,p303,21,female,left_right_width,2025-11-16_16h01.03.504,exp1,2023.1.0,59.94488665630131,
,,,,,,,,,,,,,,,,5,8.275,9.1375,10,10.8625,11.725,0.8625,0.6125,0.25,3.7,10,match,36.05,298,329,361,392,423,9,9,9,9,9,,,,,,,4,0,4,0,0,46,46,22,,,,,,,,,,,,,,4,1.365516999969259,4,0.2,0.15000000000000002,5.40644,return,0.862041899934411,,,,,,,,,,,,,,,,,p303,21,female,left_right_width,2025-11-16_16h01.03.504,exp1,2023.1.0,59.94488665630131,
,,,,,,,,,,,,,,,,4,8.65,9.55,10.45,11.35,0,0.9,0.65,0.25,2.95,10,initial,36.05,312,344,377,409,0,9,9,9,9,0,,,,,,,4,0,4,0,0,47,47,30,,,,,,,,,,,,,,3,0.45660049992147833,3,0.3,0.2,7.20859,return,0.9813044000184163,,,,,,,,,,,,,,,,,p303,21,female,left_right_width,2025-11-16_16h01.03.504,exp1,2023.1.0,59.94488665630131,
,,,,,,,,,,,,,,,,3,7.800000000000001,10,12.2,0,0,2.1999999999999997,1.7999999999999998,0.4,4.8,10,match,36.05,281,361,440,0,0,9,9,9,0,0,,,,,,,4,0,4,0,0,48,48,39,,,,,,,,,,,,,,3,0.7103863999946043,3,0.5,0.35000000000000003,12.61502,return,1.0806007999926805,,,,,,,,,,,,,,,,,p303,21,female,left_right_width,2025-11-16_16h01.03.504,exp1,2023.1.0,59.94488665630131,
,,,,,,,,,,,,,,,,5,8.95,9.475,10,10.525,11.05,0.525,0.275,0.25,2.35,10,match,36.05,323,342,361,379,398,9,9,9,9,9,,,,,,,4,0,4,0,0,49,49,25,,,,,,,,,,,,,,4,0.6474153000162914,4,0.25,0.3,10.81288,return,0.8760972999734804,,,,,,,,,,,,,,,,,p303,21,female,left_right_width,2025-11-16_16h01.03.504,exp1,2023.1.0,59.94488665630131,
,,,,,,,,,,,,,,,,5,7.8,8.9,10,11.1,12.2,1.1,0.8500000000000001,0.25,4.65,10,initial,36.05,281,321,361,400,440,9,9,9,9,9,,,,,,,4,0,4,0,0,50,50,36,,,,,,,,,,,,,,4,0.5993438999867067,4,0.2,0.15000000000000002,5.40644,return,0.8132401999318972,,,,,,,,,,,,,,,,,p303,21,female,left_right_width,2025-11-16_16h01.03.504,exp1,2023.1.0,59.94488665630131,
,,,,,,,,,,,,,,,,4,9.1,9.7,10.3,10.9,0,0.6000000000000001,0.20000000000000004,0.4,2.2,10,match,36.05,328,350,371,393,0,9,9,9,9,0,,,,,,,4,0,4,0,0,51,51,16,,,,,,,,,,,,,,3,0.7733497999142855,3,0.5,0.4,14.41717,return,0.9966852000216022,,,,,,,,,,,,,,,,,p303,21,female,left_right_width,2025-11-16_16h01.03.504,exp1,2023.1.0,59.94488665630131,
,,,,,,,,,,,,,,,,,,,,,,,,,,,,,,,,,,,,,,,,,,,,,4,0,4,0,,,,,,,,,,,,,,,,,,,,,,,,,,,,2487.9089341999497,2487.9089341999497,2487.9089341999497,,,,,,,,,,,,p303,21,female,left_right_width,2025-11-16_16h01.03.504,exp1,2023.1.0,59.94488665630131,
,,,,,,,,,,,,,,,,3,8.525,10,11.475,0,0,1.475,1.225,0.25,3.2,10,match,36.05,307,361,414,0,0,9,9,9,0,0,,,,,,,5,0,5,0,0,0,0,45,,,,,,,,,,,,,,2,1.9087331000482664,2,0.2,0.15000000000000002,5.40644,return,1.0153834999073297,,,,,,,,,,,,,,,,,p303,21,female,left_right_width,2025-11-16_16h01.03.504,exp1,2023.1.0,59.94488665630131,
,,,,,,,,,,,,,,,,4,8.9,9.633333333333333,10.366666666666667,11.1,0,0.7333333333333334,0.4833333333333334,0.25,2.45,10,match,36.05,321,347,374,400,0,9,9,9,9,0,,,,,,,5,0,5,0,0,1,1,3,,,,,,,,,,,,,,2,0.8826799000380561,2,0.4,0.20000000000000007,7.20859,return,3.837413000059314,,,,,,,,,,,,,,,,,p303,21,female,left_right_width,2025-11-16_16h01.03.504,exp1,2023.1.0,59.94488665630131,
,,,,,,,,,,,,,,,,3,8.6,10,11.4,0,0,1.4,0.85,0.55,3.35,10,match,36.05,310,361,411,0,0,9,9,9,0,0,,,,,,,5,0,5,0,0,2,2,41,,,,,,,,,,,,,,2,0.6891137999482453,2,0.4,0.4,14.41717,return,1.4765689000487328,,,,,,,,,,,,,,,,,p303,21,female,left_right_width,2025-11-16_16h01.03.504,exp1,2023.1.0,59.94488665630131,
,,,,,,,,,,,,,,,,5,8.35,9.175,10,10.825,11.65,0.825,0.575,0.25,3.55,10,match,36.05,301,331,361,390,420,9,9,9,9,9,,,,,,,5,0,5,0,0,3,3,20,,,,,,,,,,,,,,4,1.7125818999484181,4,0.55,0.25000000000000006,9.01073,return,1.9154149999376386,,,,,,,,,,,,,,,,,p303,21,female,left_right_width,2025-11-16_16h01.03.504,exp1,2023.1.0,59.94488665630131,
,,,,,,,,,,,,,,,,3,9.3,10,10.7,0,0,0.7,0.29999999999999993,0.4,1.8,10,initial,36.05,335,361,386,0,0,9,9,9,0,0,,,,,,,5,0,5,0,0,4,4,9,,,,,,,,,,,,,,2,0.6098151999758556,2,0.25,0.3,10.81288,return,1.00090519990772,,,,,,,,,,,,,,,,,p303,21,female,left_right_width,2025-11-16_16h01.03.504,exp1,2023.1.0,59.94488665630131,
,,,,,,,,,,,,,,,,4,9.1,9.7,10.3,10.9,0,0.6,0.04999999999999997,0.55,2.35,10,match,36.05,328,350,371,393,0,9,9,9,9,0,,,,,,,5,0,5,0,0,5,5,12,,,,,,,,,,,,,,2,0.9260469999862835,2,0.5,0.6500000000000001,23.4279,return,1.6398389000678435,,,,,,,,,,,,,,,,,p303,21,female,left_right_width,2025-11-16_16h01.03.504,exp1,2023.1.0,59.94488665630131,
,,,,,,,,,,,,,,,,5,8.6,9.3,10,10.7,11.4,0.7,0.44999999999999996,0.25,3.05,10,initial,36.05,310,335,361,386,411,9,9,9,9,9,,,,,,,5,0,5,0,0,6,6,42,,,,,,,,,,,,,,3,0.7905952000292018,3,0.35,0.25,9.01073,return,0.9344748000148684,,,,,,,,,,,,,,,,,p303,21,female,left_right_width,2025-11-16_16h01.03.504,exp1,2023.1.0,59.94488665630131,
,,,,,,,,,,,,,,,,4,8.95,9.65,10.35,11.05,0,0.7,0.29999999999999993,0.4,2.5,10,initial,36.05,323,348,373,398,0,9,9,9,9,0,,,,,,,5,0,5,0,0,7,7,26,,,,,,,,,,,,,,2,0.7892363999271765,2,0.4,0.35000000000000003,12.61502,return,1.2195291999960318,,,,,,,,,,,,,,,,,p303,21,female,left_right_width,2025-11-16_16h01.03.504,exp1,2023.1.0,59.94488665630131,
,,,,,,,,,,,,,,,,5,7.8,8.9,10,11.1,12.2,1.1,0.7000000000000001,0.4,4.800000000000001,10,initial,36.05,281,321,361,400,440,9,9,9,9,9,,,,,,,5,0,5,0,0,8,8,38,,,,,,,,,,,,,,3,0.7257943999720737,3,0.2,0.3,10.81288,return,1.0804550000466406,,,,,,,,,,,,,,,,,p303,21,female,left_right_width,2025-11-16_16h01.03.504,exp1,2023.1.0,59.94488665630131,
,,,,,,,,,,,,,,,,4,9.3,9.766666666666667,10.233333333333333,10.7,0,0.4666666666666667,0.21666666666666665,0.25,1.65,10,match,36.05,335,352,369,386,0,9,9,9,9,0,,,,,,,5,0,5,0,0,9,9,8,,,,,,,,,,,,,,2,0.6464690000284463,2,0.2,0.3,10.81288,return,1.2439180000219494,,,,,,,,,,,,,,,,,p303,21,female,left_right_width,2025-11-16_16h01.03.504,exp1,2023.1.0,59.94488665630131,
,,,,,,,,,,,,,,,,5,8.35,9.175,10,10.825,11.65,0.8250000000000001,0.275,0.55,3.85,10,match,36.05,301,331,361,390,420,9,9,9,9,9,,,,,,,5,0,5,0,0,10,10,18,,,,,,,,,,,,,,3,0.6825704999500886,3,0.25,0.3,10.81288,return,1.2472064999165013,,,,,,,,,,,,,,,,,p303,21,female,left_right_width,2025-11-16_16h01.03.504,exp1,2023.1.0,59.94488665630131,
,,,,,,,,,,,,,,,,4,9.1,9.7,10.3,10.9,0,0.5999999999999999,0.3499999999999999,0.25,2.05,10,match,36.05,328,350,371,393,0,9,9,9,9,0,,,,,,,5,0,5,0,0,11,11,14,,,,,,,,,,,,,,2,0.6829332000343129,2,0.25,0.3,10.81288,return,1.9342250999761745,,,,,,,,,,,,,,,,,p303,21,female,left_right_width,2025-11-16_16h01.03.504,exp1,2023.1.0,59.94488665630131,
,,,,,,,,,,,,,,,,4,8.9,9.633333333333333,10.366666666666667,11.1,0,0.7333333333333333,0.18333333333333326,0.55,2.75,10,match,36.05,321,347,374,400,0,9,9,9,9,0,,,,,,,5,0,5,0,0,12,12,1,,,,,,,,,,,,,,2,1.1724188999505714,2,0.25,0.39999999999999997,14.41717,return,1.0762003000127152,,,,,,,,,,,,,,,,,p303,21,female,left_right_width,2025-11-16_16h01.03.504,exp1,2023.1.0,59.94488665630131,
,,,,,,,,,,,,,,,,5,8.6,9.3,10,10.7,11.4,0.7,0.1499999999999999,0.55,3.3499999999999996,10,initial,36.05,310,335,361,386,411,9,9,9,9,9,,,,,,,5,0,5,0,0,13,13,40,,,,,,,,,,,,,,3,1.3373392999637872,3,0.4,0.5,18.02146,return,1.042535200016573,,,,,,,,,,,,,,,,,p303,21,female,left_right_width,2025-11-16_16h01.03.504,exp1,2023.1.0,59.94488665630131,
,,,,,,,,,,,,,,,,4,8.825,9.608333333333333,10.391666666666667,11.175,0,0.7833333333333333,0.5333333333333333,0.25,2.6,10,match,36.05,318,346,375,403,0,9,9,9,9,0,,,,,,,5,0,5,0,0,14,14,5,,,,,,,,,,,,,,2,0.8488952999468893,2,0.55,0.25000000000000006,9.01073,return,1.4225552000571042,,,,,,,,,,,,,,,,,p303,21,female,left_right_width,2025-11-16_16h01.03.504,exp1,2023.1.0,59.94488665630131,
,,,,,,,,,,,,,,,,5,8.2,9.1,10,10.9,11.8,0.9,0.65,0.25,3.85,10,initial,36.05,296,328,361,393,425,9,9,9,9,9,,,,,,,5,0,5,0,0,15,15,48,,,,,,,,,,,,,,3,0.635102300089784,3,0.4,0.4,14.41717,return,1.313244599965401,,,,,,,,,,,,,,,,,p303,21,female,left_right_width,2025-11-16_16h01.03.504,exp1,2023.1.0,59.94488665630131,
,,,,,,,,,,,,,,,,4,8.65,9.55,10.45,11.35,0,0.9,0.35,0.55,3.25,10,initial,36.05,312,344,377,409,0,9,9,9,9,0,,,,,,,5,0,5,0,0,16,16,28,,,,,,,,,,,,,,2,1.4339758000569418,2,0.35,0.39999999999999997,14.41717,return,0.9585460999514908,,,,,,,,,,,,,,,,,p303,21,female,left_right_width,2025-11-16_16h01.03.504,exp1,2023.1.0,59.94488665630131,
,,,,,,,,,,,,,,,,3,8.9,10,11.1,0,0,1.1,0.7000000000000001,0.4,2.6000000000000005,10,initial,36.05,321,361,400,0,0,9,9,9,0,0,,,,,,,5,0,5,0,0,17,17,4,,,,,,,,,,,,,,2,0.6989314999664202,2,0.25,0.39999999999999997,14.41717,return,1.1821549000451341,,,,,,,,,,,,,,,,,p303,21,female,left_right_width,2025-11-16_16h01.03.504,exp1,2023.1.0,59.94488665630131,
,,,,,,,,,,,,,,,,3,8.2,10,11.8,0,0,1.8,1.55,0.25,3.85,10,match,36.05,296,361,425,0,0,9,9,9,0,0,,,,,,,5,0,5,0,0,18,18,49,,,,,,,,,,,,,,3,0.881187199964188,3,0.5,0.30000000000000004,10.81288,return,1.5010733000235632,,,,,,,,,,,,,,,,,p303,21,female,left_right_width,2025-11-16_16h01.03.504,exp1,2023.1.0,59.94488665630131,
,,,,,,,,,,,,,,,,3,8.2,10,11.8,0,0,1.7999999999999998,1.4,0.4,4,10,match,36.05,296,361,425,0,0,9,9,9,0,0,,,,,,,5,0,5,0,0,19,19,51,,,,,,,,,,,,,,2,0.746735299937427,2,0.35,0.25,9.01073,return,1.2447057999670506,,,,,,,,,,,,,,,,,p303,21,female,left_right_width,2025-11-16_16h01.03.504,exp1,2023.1.0,59.94488665630131,
,,,,,,,,,,,,,,,,3,8.2,10,11.8,0,0,1.8,1.25,0.55,4.15,10,match,36.05,296,361,425,0,0,9,9,9,0,0,,,,,,,5,0,5,0,0,20,20,47,,,,,,,,,,,,,,2,0.8241224000230432,2,0.5,0.55,19.82361,return,0.8215115999337286,,,,,,,,,,,,,,,,,p303,21,female,left_right_width,2025-11-16_16h01.03.504,exp1,2023.1.0,59.94488665630131,
,,,,,,,,,,,,,,,,5,7.8,8.9,10,11.1,12.2,1.1,0.8500000000000001,0.25,4.65,10,initial,36.05,281,321,361,400,440,9,9,9,9,9,,,,,,,5,0,5,0,0,21,21,36,,,,,,,,,,,,,,3,0.8553101000143215,3,0.2,0.35,12.61502,return,1.635312300059013,,,,,,,,,,,,,,,,,p303,21,female,left_right_width,2025-11-16_16h01.03.504,exp1,2023.1.0,59.94488665630131,
