amount_p,posx1_p,posx2_p,posx3_p,posx4_p,posx5_p,center_to_center_p,edge_to_edge_p,w_p,stim_lengt_p,eccentricity_p,line1_p,line2_p,line3_p,line4_p,line5_p,amount,posx1,posx2,posx3,posx4,posx5,center_to_center,edge_to_edge,w,stim_length,eccentricity,trial_type,deg_to_pix_index,posx1_in_pix,posx2_in_pix,posx3_in_pix,posx4_in_pix,posx5_in_pix,line1,line2,line3,line4,line5,posx,setsize_cobdi,trials.thisRepN,trials.thisTrialN,trials.thisN,trials.thisIndex,blocks.thisRepN,blocks.thisTrialN,blocks.thisN,blocks.thisIndex,loop.thisRepN,loop.thisTrialN,loop.thisN,loop.thisIndex,first.thisRepN,first.thisTrialN,first.thisN,first.thisIndex,second.thisRepN,second.thisTrialN,second.thisN,second.thisIndex,thisRow.t,notes,key_resp_3.started,key_resp_3.keys,key_resp_3.rt,key_resp.keys,key_resp.rt,response,starting_width_deg,response_width_degree,response_width_pixel,next_5.keys,next_5.rt,key_resp_4.keys,key_resp_4.rt,text_3.started,text_4.started,key_resp_2.started,text_2.started,key_resp_2.keys,key_resp_2.rt,adjusting.started,next.keys,next.rt,text_control2.started,key_resp.started,key_resp.corr,text_bye.started,text_bye.stopped,participant,age,gender,resp_group,date,expName,psychopyVersion,frameRate,
,,,,,,,,,,,,,,,,,,,,,,,,,,,,,,,,,,,,,,,,,,,,,,,,,,,,,,,,,,,,,,,192.27325369999744,c,142.4901720000198,,,,,,,,,,,,,,,,,,,,,,,,,p304,21,female,up_down_width,2025-11-18_14h35.14.992,exp1,2023.1.0,60.033450627824585,
5,9,9.5,10,10.5,11,0.5,0.09999999999999998,0.4,2.4,10,9,9,9,9,9,,,,,,,,,,,,,,,,,,,,,,,,,,0,0,0,8,,,,,,,,,,,,,,,,,,,,,,4,4.469955299980938,4,0.55,0.45,16.21932,return,12.674259999999776,,,,,,,,,,,,,,,,,p304,21,female,up_down_width,2025-11-18_14h35.14.992,exp1,2023.1.0,60.033450627824585,
4,9.25,9.75,10.25,10.75,0,0.5,0.25,0.25,1.75,10,9,9,9,9,0,,,,,,,,,,,,,,,,,,,,,,,,,,0,1,1,4,,,,,,,,,,,,,,,,,,,,,,4,2.9477757000131533,4,0.4,0.4,14.41717,return,1.7573006000602618,,,,,,,,,,,,,,,,,p304,21,female,up_down_width,2025-11-18_14h35.14.992,exp1,2023.1.0,60.033450627824585,
3,9.5,10,10.5,0,0,0.5,0.4,0.1,1.1,10,9,9,9,0,0,,,,,,,,,,,,,,,,,,,,,,,,,,0,2,2,0,,,,,,,,,,,,,,,,,,,,,,3,9.098111300030723,3,0.35,0.10000000000000002,3.60429,return,4.765744499978609,,,,,,,,,,,,,,,,,p304,21,female,up_down_width,2025-11-18_14h35.14.992,exp1,2023.1.0,60.033450627824585,
4,9.5,9.833333333333334,10.166666666666666,10.5,0,0.33333333333333337,0.23333333333333336,0.1,1.1,10,9,9,9,9,0,,,,,,,,,,,,,,,,,,,,,,,,,,0,3,3,3,,,,,,,,,,,,,,,,,,,,,,5,3.4580047000199556,5,0.2,0.10000000000000002,3.60429,return,2.469563099904917,,,,,,,,,,,,,,,,,p304,21,female,up_down_width,2025-11-18_14h35.14.992,exp1,2023.1.0,60.033450627824585,
3,9,10,11,0,0,1,0.9,0.1,2.1,10,9,9,9,0,0,,,,,,,,,,,,,,,,,,,,,,,,,,0,4,4,1,,,,,,,,,,,,,,,,,,,,,,3,2.05178160010837,3,0.25,0.05000000000000002,1.80215,return,2.5123062999919057,,,,,,,,,,,,,,,,,p304,21,female,up_down_width,2025-11-18_14h35.14.992,exp1,2023.1.0,60.033450627824585,
5,8.6,9.3,10,10.7,11.4,0.7,0.29999999999999993,0.4,3.1999999999999997,10,9,9,9,9,9,,,,,,,,,,,,,,,,,,,,,,,,,,0,5,5,7,,,,,,,,,,,,,,,,,,,,,,5,2.3243932999903336,5,0.35,0.2,7.20859,return,2.8530949000269175,,,,,,,,,,,,,,,,,p304,21,female,up_down_width,2025-11-18_14h35.14.992,exp1,2023.1.0,60.033450627824585,
4,8.65,9.55,10.45,11.35,0,0.9,0.5,0.4,3.1,10,9,9,9,9,0,,,,,,,,,,,,,,,,,,,,,,,,,,0,6,6,5,,,,,,,,,,,,,,,,,,,,,,4,2.5655294000171125,4,0.2,0.25,9.01073,return,1.7754208999685943,,,,,,,,,,,,,,,,,p304,21,female,up_down_width,2025-11-18_14h35.14.992,exp1,2023.1.0,60.033450627824585,
5,9.25,9.625,10,10.375,10.75,0.375,0.125,0.25,1.75,10,9,9,9,9,9,,,,,,,,,,,,,,,,,,,,,,,,,,0,7,7,6,,,,,,,,,,,,,,,,,,,,,,5,2.602995300083421,5,0.35,0.2,7.20859,return,2.369791799923405,,,,,,,,,,,,,,,,,p304,21,female,up_down_width,2025-11-18_14h35.14.992,exp1,2023.1.0,60.033450627824585,
3,8.2,10,11.8,0,0,1.7999999999999998,1.4,0.4,4,10,9,9,9,0,0,,,,,,,,,,,,,,,,,,,,,,,,,,0,8,8,2,,,,,,,,,,,,,,,,,,,,,,3,2.118308800039813,3,0.35,0.3,10.81288,return,1.759987400029786,,,,,,,,,,,,,,,,,p304,21,female,up_down_width,2025-11-18_14h35.14.992,exp1,2023.1.0,60.033450627824585,
,,,,,,,,,,,,,,,,,,,,,,,,,,,,,,,,,,,,,,,,,,,,,,,,,,,,,,,,,,,,,,,,,,,,,,,,,,c,87.83169550006278,,,,,,,,,,,,,,,p304,21,female,up_down_width,2025-11-18_14h35.14.992,exp1,2023.1.0,60.033450627824585,
,,,,,,,,,,,,,,,,5,8.2,9.1,10,10.9,11.8,0.9,0.65,0.25,3.85,10,initial,36.05,296,328,361,393,425,9,9,9,9,9,,,,,,,0,0,0,0,0,0,0,48,,,,,,,,,,,,,,4,2.085043500061147,4,0.45,0.15000000000000008,5.40644,return,6.447820000001229,,,,,,,,,,,,,,,,,p304,21,female,up_down_width,2025-11-18_14h35.14.992,exp1,2023.1.0,60.033450627824585,
,,,,,,,,,,,,,,,,4,9.1,9.7,10.3,10.9,0,0.5999999999999999,0.3499999999999999,0.25,2.05,10,match,36.05,328,350,371,393,0,9,9,9,9,0,,,,,,,0,0,0,0,0,1,1,14,,,,,,,,,,,,,,4,2.379514600033872,4,0.35,0.15000000000000002,5.40644,return,2.0102582999970764,,,,,,,,,,,,,,,,,p304,21,female,up_down_width,2025-11-18_14h35.14.992,exp1,2023.1.0,60.033450627824585,
,,,,,,,,,,,,,,,,3,9.1,10,10.9,0,0,0.9,0.35,0.55,2.35,10,initial,36.05,328,361,393,0,0,9,9,9,0,0,,,,,,,0,0,0,0,0,2,2,11,,,,,,,,,,,,,,3,1.5632909999694675,3,0.55,0.35000000000000003,12.61502,return,3.0527041000314057,,,,,,,,,,,,,,,,,p304,21,female,up_down_width,2025-11-18_14h35.14.992,exp1,2023.1.0,60.033450627824585,
,,,,,,,,,,,,,,,,4,9.1,9.7,10.3,10.9,0,0.6000000000000001,0.20000000000000004,0.4,2.2,10,match,36.05,328,350,371,393,0,9,9,9,9,0,,,,,,,0,0,0,0,0,3,3,16,,,,,,,,,,,,,,4,1.5234049999853596,4,0.55,0.25000000000000006,9.01073,return,2.90125979995355,,,,,,,,,,,,,,,,,p304,21,female,up_down_width,2025-11-18_14h35.14.992,exp1,2023.1.0,60.033450627824585,
,,,,,,,,,,,,,,,,4,8.95,9.65,10.35,11.05,0,0.7,0.44999999999999996,0.25,2.3499999999999996,10,initial,36.05,323,348,373,398,0,9,9,9,9,0,,,,,,,0,0,0,0,0,4,4,24,,,,,,,,,,,,,,4,1.1122644999995828,4,0.25,0.2,7.20859,return,2.330915299942717,,,,,,,,,,,,,,,,,p304,21,female,up_down_width,2025-11-18_14h35.14.992,exp1,2023.1.0,60.033450627824585,
,,,,,,,,,,,,,,,,4,8.35,9.45,10.55,11.65,0,1.1,0.8500000000000001,0.25,3.5500000000000003,10,initial,36.05,301,341,380,420,0,9,9,9,9,0,,,,,,,0,0,0,0,0,5,5,19,,,,,,,,,,,,,,4,1.7321950000477955,4,0.25,0.2,7.20859,return,2.510918000014499,,,,,,,,,,,,,,,,,p304,21,female,up_down_width,2025-11-18_14h35.14.992,exp1,2023.1.0,60.033450627824585,
,,,,,,,,,,,,,,,,4,9.3,9.766666666666667,10.233333333333333,10.7,0,0.4666666666666667,0.06666666666666665,0.4,1.8,10,match,36.05,335,352,369,386,0,9,9,9,9,0,,,,,,,0,0,0,0,0,6,6,10,,,,,,,,,,,,,,3,1.3635929999873042,3,0.45,0.35000000000000003,12.61502,return,2.1875781000126153,,,,,,,,,,,,,,,,,p304,21,female,up_down_width,2025-11-18_14h35.14.992,exp1,2023.1.0,60.033450627824585,
,,,,,,,,,,,,,,,,5,8.65,9.325,10,10.675,11.35,0.675,0.275,0.4,3.1,10,match,36.05,312,336,361,385,409,9,9,9,9,9,,,,,,,0,0,0,0,0,7,7,33,,,,,,,,,,,,,,4,1.5216611999785528,4,0.5,0.30000000000000004,10.81288,return,2.323692200006917,,,,,,,,,,,,,,,,,p304,21,female,up_down_width,2025-11-18_14h35.14.992,exp1,2023.1.0,60.033450627824585,
,,,,,,,,,,,,,,,,3,8.2,10,11.8,0,0,1.8,1.25,0.55,4.15,10,match,36.05,296,361,425,0,0,9,9,9,0,0,,,,,,,0,0,0,0,0,8,8,47,,,,,,,,,,,,,,3,1.2190242999931797,3,0.3,0.39999999999999997,14.41717,return,2.865659900009632,,,,,,,,,,,,,,,,,p304,21,female,up_down_width,2025-11-18_14h35.14.992,exp1,2023.1.0,60.033450627824585,
,,,,,,,,,,,,,,,,4,8.95,9.65,10.35,11.05,0,0.7,0.29999999999999993,0.4,2.5,10,initial,36.05,323,348,373,398,0,9,9,9,9,0,,,,,,,0,0,0,0,0,9,9,26,,,,,,,,,,,,,,5,1.3119766999734566,5,0.45,0.30000000000000004,10.81288,return,2.4741361000342295,,,,,,,,,,,,,,,,,p304,21,female,up_down_width,2025-11-18_14h35.14.992,exp1,2023.1.0,60.033450627824585,
,,,,,,,,,,,,,,,,3,8.2,10,11.8,0,0,1.8,1.55,0.25,3.85,10,match,36.05,296,361,425,0,0,9,9,9,0,0,,,,,,,0,0,0,0,0,10,10,49,,,,,,,,,,,,,,3,1.5728331999853253,3,0.5,0.25000000000000006,9.01073,return,3.0435819999547675,,,,,,,,,,,,,,,,,p304,21,female,up_down_width,2025-11-18_14h35.14.992,exp1,2023.1.0,60.033450627824585,
,,,,,,,,,,,,,,,,5,8.95,9.475,10,10.525,11.05,0.525,0.275,0.25,2.35,10,match,36.05,323,342,361,379,398,9,9,9,9,9,,,,,,,0,0,0,0,0,11,11,25,,,,,,,,,,,,,,5,1.459599700057879,5,0.45,0.25000000000000006,9.01073,return,2.3449741000076756,,,,,,,,,,,,,,,,,p304,21,female,up_down_width,2025-11-18_14h35.14.992,exp1,2023.1.0,60.033450627824585,
,,,,,,,,,,,,,,,,5,8.35,9.175,10,10.825,11.65,0.825,0.575,0.25,3.55,10,match,36.05,301,331,361,390,420,9,9,9,9,9,,,,,,,0,0,0,0,0,12,12,20,,,,,,,,,,,,,,5,1.2129421998979524,5,0.5,0.25000000000000006,9.01073,return,3.5965301000978798,,,,,,,,,,,,,,,,,p304,21,female,up_down_width,2025-11-18_14h35.14.992,exp1,2023.1.0,60.033450627824585,
,,,,,,,,,,,,,,,,4,8.9,9.633333333333333,10.366666666666667,11.1,0,0.7333333333333334,0.4833333333333334,0.25,2.45,10,match,36.05,321,347,374,400,0,9,9,9,9,0,,,,,,,0,0,0,0,0,13,13,3,,,,,,,,,,,,,,3,1.8857234999304637,3,0.25,0.2,7.20859,return,1.16826189996209,,,,,,,,,,,,,,,,,p304,21,female,up_down_width,2025-11-18_14h35.14.992,exp1,2023.1.0,60.033450627824585,
,,,,,,,,,,,,,,,,4,8.95,9.65,10.35,11.05,0,0.7,0.1499999999999999,0.55,2.65,10,initial,36.05,323,348,373,398,0,9,9,9,9,0,,,,,,,0,0,0,0,0,14,14,23,,,,,,,,,,,,,,3,2.2344605000689626,3,0.3,0.39999999999999997,14.41717,return,1.5987630999879912,,,,,,,,,,,,,,,,,p304,21,female,up_down_width,2025-11-18_14h35.14.992,exp1,2023.1.0,60.033450627824585,
,,,,,,,,,,,,,,,,5,8.2,9.1,10,10.9,11.8,0.9,0.5,0.4,4,10,initial,36.05,296,328,361,393,425,9,9,9,9,9,,,,,,,0,0,0,0,0,15,15,50,,,,,,,,,,,,,,5,1.3925791999790817,5,0.5,0.35000000000000003,12.61502,return,2.7602617000229657,,,,,,,,,,,,,,,,,p304,21,female,up_down_width,2025-11-18_14h35.14.992,exp1,2023.1.0,60.033450627824585,
,,,,,,,,,,,,,,,,5,8.65,9.325,10,10.675,11.35,0.675,0.125,0.55,3.25,10,match,36.05,312,336,361,385,409,9,9,9,9,9,,,,,,,0,0,0,0,0,16,16,29,,,,,,,,,,,,,,5,2.2728902000235394,5,0.5,0.4,14.41717,return,2.4524055999936536,,,,,,,,,,,,,,,,,p304,21,female,up_down_width,2025-11-18_14h35.14.992,exp1,2023.1.0,60.033450627824585,
,,,,,,,,,,,,,,,,3,7.8,10,12.2,0,0,2.2,1.65,0.55,4.95,10,match,36.05,281,361,440,0,0,9,9,9,0,0,,,,,,,0,0,0,0,0,17,17,35,,,,,,,,,,,,,,4,1.3850493000354618,4,0.55,0.45,16.21932,return,1.5195673999842256,,,,,,,,,,,,,,,,,p304,21,female,up_down_width,2025-11-18_14h35.14.992,exp1,2023.1.0,60.033450627824585,
,,,,,,,,,,,,,,,,5,8.95,9.475,10,10.525,11.05,0.525,0.125,0.4,2.5,10,match,36.05,323,342,361,379,398,9,9,9,9,9,,,,,,,0,0,0,0,0,18,18,27,,,,,,,,,,,,,,6,1.2448537000454962,6,0.45,0.30000000000000004,10.81288,return,2.138925699982792,,,,,,,,,,,,,,,,,p304,21,female,up_down_width,2025-11-18_14h35.14.992,exp1,2023.1.0,60.033450627824585,
,,,,,,,,,,,,,,,,3,8.9,10,11.1,0,0,1.1,0.7000000000000001,0.4,2.6000000000000005,10,initial,36.05,321,361,400,0,0,9,9,9,0,0,,,,,,,0,0,0,0,0,19,19,4,,,,,,,,,,,,,,3,1.2669618999352679,3,0.4,0.35000000000000003,12.61502,return,1.9363902000477538,,,,,,,,,,,,,,,,,p304,21,female,up_down_width,2025-11-18_14h35.14.992,exp1,2023.1.0,60.033450627824585,
,,,,,,,,,,,,,,,,4,8.825,9.608333333333333,10.391666666666667,11.175,0,0.7833333333333333,0.5333333333333333,0.25,2.6,10,match,36.05,318,346,375,403,0,9,9,9,9,0,,,,,,,0,0,0,0,0,20,20,5,,,,,,,,,,,,,,3,1.6319157999241725,3,0.5,0.20000000000000007,7.20859,return,2.910331299994141,,,,,,,,,,,,,,,,,p304,21,female,up_down_width,2025-11-18_14h35.14.992,exp1,2023.1.0,60.033450627824585,
,,,,,,,,,,,,,,,,5,8.35,9.175,10,10.825,11.65,0.8250000000000001,0.275,0.55,3.85,10,match,36.05,301,331,361,390,420,9,9,9,9,9,,,,,,,0,0,0,0,0,21,21,18,,,,,,,,,,,,,,5,1.312301900004968,5,0.4,0.4,14.41717,return,1.9152624000562355,,,,,,,,,,,,,,,,,p304,21,female,up_down_width,2025-11-18_14h35.14.992,exp1,2023.1.0,60.033450627824585,
,,,,,,,,,,,,,,,,3,9.3,10,10.7,0,0,0.7,0.1499999999999999,0.55,1.95,10,initial,36.05,335,361,386,0,0,9,9,9,0,0,,,,,,,0,0,0,0,0,22,22,6,,,,,,,,,,,,,,3,1.1604550000047311,3,0.45,0.5,18.02146,return,1.2728695999830961,,,,,,,,,,,,,,,,,p304,21,female,up_down_width,2025-11-18_14h35.14.992,exp1,2023.1.0,60.033450627824585,
,,,,,,,,,,,,,,,,3,8.9,10,11.1,0,0,1.1,0.55,0.55,2.75,10,initial,36.05,321,361,400,0,0,9,9,9,0,0,,,,,,,0,0,0,0,0,23,23,0,,,,,,,,,,,,,,3,1.190435399999842,3,0.25,0.44999999999999996,16.21932,return,2.484939999994822,,,,,,,,,,,,,,,,,p304,21,female,up_down_width,2025-11-18_14h35.14.992,exp1,2023.1.0,60.033450627824585,
,,,,,,,,,,,,,,,,4,8.9,9.633333333333333,10.366666666666667,11.1,0,0.7333333333333333,0.18333333333333326,0.55,2.75,10,match,36.05,321,347,374,400,0,9,9,9,9,0,,,,,,,0,0,0,0,0,24,24,1,,,,,,,,,,,,,,4,1.3802267999853939,4,0.5,0.45,16.21932,return,1.6116047999821603,,,,,,,,,,,,,,,,,p304,21,female,up_down_width,2025-11-18_14h35.14.992,exp1,2023.1.0,60.033450627824585,
,,,,,,,,,,,,,,,,4,8.65,9.55,10.45,11.35,0,0.9,0.5,0.4,3.1,10,initial,36.05,312,344,377,409,0,9,9,9,9,0,,,,,,,0,0,0,0,0,25,25,32,,,,,,,,,,,,,,4,1.0215835000853986,4,0.4,0.25000000000000006,9.01073,return,1.6842405999777839,,,,,,,,,,,,,,,,,p304,21,female,up_down_width,2025-11-18_14h35.14.992,exp1,2023.1.0,60.033450627824585,
,,,,,,,,,,,,,,,,5,8.6,9.3,10,10.7,11.4,0.7,0.29999999999999993,0.4,3.1999999999999997,10,initial,36.05,310,335,361,386,411,9,9,9,9,9,,,,,,,0,0,0,0,0,26,26,44,,,,,,,,,,,,,,5,1.5696944000665098,5,0.3,0.3,10.81288,return,1.730966900009662,,,,,,,,,,,,,,,,,p304,21,female,up_down_width,2025-11-18_14h35.14.992,exp1,2023.1.0,60.033450627824585,
,,,,,,,,,,,,,,,,4,9.1,9.7,10.3,10.9,0,0.6,0.04999999999999997,0.55,2.35,10,match,36.05,328,350,371,393,0,9,9,9,9,0,,,,,,,0,0,0,0,0,27,27,12,,,,,,,,,,,,,,4,1.4342890999978408,4,0.35,0.39999999999999997,14.41717,return,2.7362164000514895,,,,,,,,,,,,,,,,,p304,21,female,up_down_width,2025-11-18_14h35.14.992,exp1,2023.1.0,60.033450627824585,
,,,,,,,,,,,,,,,,4,8.35,9.45,10.55,11.65,0,1.1,0.7000000000000001,0.4,3.7,10,initial,36.05,301,341,380,420,0,9,9,9,9,0,,,,,,,0,0,0,0,0,28,28,21,,,,,,,,,,,,,,4,1.5130081999814138,4,0.4,0.35000000000000003,12.61502,return,1.0829882000107318,,,,,,,,,,,,,,,,,p304,21,female,up_down_width,2025-11-18_14h35.14.992,exp1,2023.1.0,60.033450627824585,
,,,,,,,,,,,,,,,,5,7.8,8.9,10,11.1,12.2,1.1,0.7000000000000001,0.4,4.800000000000001,10,initial,36.05,281,321,361,400,440,9,9,9,9,9,,,,,,,0,0,0,0,0,29,29,38,,,,,,,,,,,,,,5,1.0800375000108033,5,0.25,0.3,10.81288,return,1.6116087000118569,,,,,,,,,,,,,,,,,p304,21,female,up_down_width,2025-11-18_14h35.14.992,exp1,2023.1.0,60.033450627824585,
,,,,,,,,,,,,,,,,4,8.35,9.45,10.55,11.65,0,1.1,0.55,0.55,3.8500000000000005,10,initial,36.05,301,341,380,420,0,9,9,9,9,0,,,,,,,0,0,0,0,0,30,30,17,,,,,,,,,,,,,,4,1.272499000071548,4,0.5,0.4,14.41717,return,1.9566358999582008,,,,,,,,,,,,,,,,,p304,21,female,up_down_width,2025-11-18_14h35.14.992,exp1,2023.1.0,60.033450627824585,
,,,,,,,,,,,,,,,,5,8.65,9.325,10,10.675,11.35,0.675,0.42500000000000004,0.25,2.95,10,match,36.05,312,336,361,385,409,9,9,9,9,9,,,,,,,0,0,0,0,0,31,31,31,,,,,,,,,,,,,,5,1.7345833000726998,5,0.3,0.15000000000000002,5.40644,return,1.840366099961102,,,,,,,,,,,,,,,,,p304,21,female,up_down_width,2025-11-18_14h35.14.992,exp1,2023.1.0,60.033450627824585,
,,,,,,,,,,,,,,,,4,8.65,9.55,10.45,11.35,0,0.9,0.65,0.25,2.95,10,initial,36.05,312,344,377,409,0,9,9,9,9,0,,,,,,,0,0,0,0,0,32,32,30,,,,,,,,,,,,,,4,1.555729299900122,4,0.2,0.15000000000000002,5.40644,return,1.1408019000664353,,,,,,,,,,,,,,,,,p304,21,female,up_down_width,2025-11-18_14h35.14.992,exp1,2023.1.0,60.033450627824585,
,,,,,,,,,,,,,,,,3,7.800000000000001,10,12.2,0,0,2.1999999999999997,1.7999999999999998,0.4,4.8,10,match,36.05,281,361,440,0,0,9,9,9,0,0,,,,,,,0,0,0,0,0,33,33,39,,,,,,,,,,,,,,2,1.258068299968727,2,0.4,0.30000000000000004,10.81288,return,2.903037999989465,,,,,,,,,,,,,,,,,p304,21,female,up_down_width,2025-11-18_14h35.14.992,exp1,2023.1.0,60.033450627824585,
,,,,,,,,,,,,,,,,5,8.2,9.1,10,10.9,11.8,0.9,0.35,0.55,4.15,10,initial,36.05,296,328,361,393,425,9,9,9,9,9,,,,,,,0,0,0,0,0,34,34,46,,,,,,,,,,,,,,4,1.7654609000310302,4,0.55,0.35000000000000003,12.61502,return,4.749158899998292,,,,,,,,,,,,,,,,,p304,21,female,up_down_width,2025-11-18_14h35.14.992,exp1,2023.1.0,60.033450627824585,
,,,,,,,,,,,,,,,,3,9.1,10,10.9,0,0,0.9,0.65,0.25,2.05,10,initial,36.05,328,361,393,0,0,9,9,9,0,0,,,,,,,0,0,0,0,0,35,35,13,,,,,,,,,,,,,,3,1.196470299968496,3,0.3,0.15000000000000002,5.40644,return,1.7728705001063645,,,,,,,,,,,,,,,,,p304,21,female,up_down_width,2025-11-18_14h35.14.992,exp1,2023.1.0,60.033450627824585,
,,,,,,,,,,,,,,,,4,9.3,9.766666666666667,10.233333333333333,10.7,0,0.4666666666666667,0.21666666666666665,0.25,1.65,10,match,36.05,335,352,369,386,0,9,9,9,9,0,,,,,,,0,0,0,0,0,36,36,8,,,,,,,,,,,,,,4,2.3768798999954015,4,0.55,0.15000000000000008,5.40644,return,3.49559330008924,,,,,,,,,,,,,,,,,p304,21,female,up_down_width,2025-11-18_14h35.14.992,exp1,2023.1.0,60.033450627824585,
,,,,,,,,,,,,,,,,5,7.8,8.9,10,11.1,12.2,1.1,0.55,0.55,4.95,10,initial,36.05,281,321,361,400,440,9,9,9,9,9,,,,,,,0,0,0,0,0,37,37,34,,,,,,,,,,,,,,5,1.3374684000154957,5,0.45,0.4,14.41717,return,1.5865614999784157,,,,,,,,,,,,,,,,,p304,21,female,up_down_width,2025-11-18_14h35.14.992,exp1,2023.1.0,60.033450627824585,
,,,,,,,,,,,,,,,,3,8.2,10,11.8,0,0,1.7999999999999998,1.4,0.4,4,10,match,36.05,296,361,425,0,0,9,9,9,0,0,,,,,,,0,0,0,0,0,38,38,51,,,,,,,,,,,,,,3,1.1101859000045806,3,0.25,0.35,12.61502,return,3.8809873999562114,,,,,,,,,,,,,,,,,p304,21,female,up_down_width,2025-11-18_14h35.14.992,exp1,2023.1.0,60.033450627824585,
,,,,,,,,,,,,,,,,4,8.65,9.55,10.45,11.35,0,0.9,0.35,0.55,3.25,10,initial,36.05,312,344,377,409,0,9,9,9,9,0,,,,,,,0,0,0,0,0,39,39,28,,,,,,,,,,,,,,4,1.0237676999531686,4,0.2,0.44999999999999996,16.21932,return,2.3890353000024334,,,,,,,,,,,,,,,,,p304,21,female,up_down_width,2025-11-18_14h35.14.992,exp1,2023.1.0,60.033450627824585,
,,,,,,,,,,,,,,,,3,7.8,10,12.2,0,0,2.2,1.9500000000000002,0.25,4.65,10,match,36.05,281,361,440,0,0,9,9,9,0,0,,,,,,,0,0,0,0,0,40,40,37,,,,,,,,,,,,,,3,2.5989174999995157,3,0.5,0.20000000000000007,7.20859,return,2.7658357999753207,,,,,,,,,,,,,,,,,p304,21,female,up_down_width,2025-11-18_14h35.14.992,exp1,2023.1.0,60.033450627824585,
,,,,,,,,,,,,,,,,3,8.6,10,11.4,0,0,1.4,1.15,0.25,3.05,10,match,36.05,310,361,411,0,0,9,9,9,0,0,,,,,,,0,0,0,0,0,41,41,43,,,,,,,,,,,,,,2,1.2924635999370366,2,0.4,0.15000000000000008,5.40644,return,2.0235957000404596,,,,,,,,,,,,,,,,,p304,21,female,up_down_width,2025-11-18_14h35.14.992,exp1,2023.1.0,60.033450627824585,
,,,,,,,,,,,,,,,,3,8.6,10,11.4,0,0,1.4,0.85,0.55,3.35,10,match,36.05,310,361,411,0,0,9,9,9,0,0,,,,,,,0,0,0,0,0,42,42,41,,,,,,,,,,,,,,3,2.6325154999503866,3,0.4,0.45,16.21932,return,1.630372800049372,,,,,,,,,,,,,,,,,p304,21,female,up_down_width,2025-11-18_14h35.14.992,exp1,2023.1.0,60.033450627824585,
,,,,,,,,,,,,,,,,3,8.525,10,11.475,0,0,1.475,1.225,0.25,3.2,10,match,36.05,307,361,414,0,0,9,9,9,0,0,,,,,,,0,0,0,0,0,43,43,45,,,,,,,,,,,,,,2,1.0750723000383005,2,0.55,0.15000000000000008,5.40644,return,2.7595208999700844,,,,,,,,,,,,,,,,,p304,21,female,up_down_width,2025-11-18_14h35.14.992,exp1,2023.1.0,60.033450627824585,
,,,,,,,,,,,,,,,,3,9.3,10,10.7,0,0,0.7,0.44999999999999996,0.25,1.65,10,initial,36.05,335,361,386,0,0,9,9,9,0,0,,,,,,,0,0,0,0,0,44,44,7,,,,,,,,,,,,,,3,1.2820146000012755,3,0.55,0.15000000000000008,5.40644,return,3.598534799995832,,,,,,,,,,,,,,,,,p304,21,female,up_down_width,2025-11-18_14h35.14.992,exp1,2023.1.0,60.033450627824585,
,,,,,,,,,,,,,,,,3,9.3,10,10.7,0,0,0.7,0.29999999999999993,0.4,1.8,10,initial,36.05,335,361,386,0,0,9,9,9,0,0,,,,,,,0,0,0,0,0,45,45,9,,,,,,,,,,,,,,3,1.3623694999841973,3,0.45,0.25000000000000006,9.01073,return,2.0585791000630707,,,,,,,,,,,,,,,,,p304,21,female,up_down_width,2025-11-18_14h35.14.992,exp1,2023.1.0,60.033450627824585,
,,,,,,,,,,,,,,,,5,8.6,9.3,10,10.7,11.4,0.7,0.44999999999999996,0.25,3.05,10,initial,36.05,310,335,361,386,411,9,9,9,9,9,,,,,,,0,0,0,0,0,46,46,42,,,,,,,,,,,,,,5,1.2423730998998508,5,0.55,0.25000000000000006,9.01073,return,3.2090023999335244,,,,,,,,,,,,,,,,,p304,21,female,up_down_width,2025-11-18_14h35.14.992,exp1,2023.1.0,60.033450627824585,
,,,,,,,,,,,,,,,,5,7.8,8.9,10,11.1,12.2,1.1,0.8500000000000001,0.25,4.65,10,initial,36.05,281,321,361,400,440,9,9,9,9,9,,,,,,,0,0,0,0,0,47,47,36,,,,,,,,,,,,,,4,1.828864499926567,4,0.35,0.2,7.20859,return,1.8194276998983696,,,,,,,,,,,,,,,,,p304,21,female,up_down_width,2025-11-18_14h35.14.992,exp1,2023.1.0,60.033450627824585,
,,,,,,,,,,,,,,,,3,8.9,10,11.1,0,0,1.1,0.8500000000000001,0.25,2.45,10,initial,36.05,321,361,400,0,0,9,9,9,0,0,,,,,,,0,0,0,0,0,48,48,2,,,,,,,,,,,,,,3,1.076928999973461,3,0.2,0.2,7.20859,return,1.4495393999386579,,,,,,,,,,,,,,,,,p304,21,female,up_down_width,2025-11-18_14h35.14.992,exp1,2023.1.0,60.033450627824585,
,,,,,,,,,,,,,,,,5,8.275,9.1375,10,10.8625,11.725,0.8625,0.6125,0.25,3.7,10,match,36.05,298,329,361,392,423,9,9,9,9,9,,,,,,,0,0,0,0,0,49,49,22,,,,,,,,,,,,,,4,1.2019550000550225,4,0.25,0.2,7.20859,return,2.3215796999866143,,,,,,,,,,,,,,,,,p304,21,female,up_down_width,2025-11-18_14h35.14.992,exp1,2023.1.0,60.033450627824585,
,,,,,,,,,,,,,,,,3,9.1,10,10.9,0,0,0.9,0.5,0.4,2.2,10,initial,36.05,328,361,393,0,0,9,9,9,0,0,,,,,,,0,0,0,0,0,50,50,15,,,,,,,,,,,,,,3,1.1642156998859718,3,0.2,0.25,9.01073,return,2.797926799976267,,,,,,,,,,,,,,,,,p304,21,female,up_down_width,2025-11-18_14h35.14.992,exp1,2023.1.0,60.033450627824585,
,,,,,,,,,,,,,,,,5,8.6,9.3,10,10.7,11.4,0.7,0.1499999999999999,0.55,3.3499999999999996,10,initial,36.05,310,335,361,386,411,9,9,9,9,9,,,,,,,0,0,0,0,0,51,51,40,,,,,,,,,,,,,,4,1.6114004000555724,4,0.35,0.39999999999999997,14.41717,return,2.6012679000850767,,,,,,,,,,,,,,,,,p304,21,female,up_down_width,2025-11-18_14h35.14.992,exp1,2023.1.0,60.033450627824585,
,,,,,,,,,,,,,,,,,,,,,,,,,,,,,,,,,,,,,,,,,,,,,0,0,0,0,,,,,,,,,,,,,,,,,,,,,,,,,,,,791.3378790999996,791.3378790999996,791.3378790999996,,,,,,,,,,,,p304,21,female,up_down_width,2025-11-18_14h35.14.992,exp1,2023.1.0,60.033450627824585,
,,,,,,,,,,,,,,,,5,8.2,9.1,10,10.9,11.8,0.9,0.35,0.55,4.15,10,initial,36.05,296,328,361,393,425,9,9,9,9,9,,,,,,,1,0,1,0,0,0,0,46,,,,,,,,,,,,,,5,1.4781188999768347,5,0.3,0.39999999999999997,14.41717,return,1.5463918999303132,,,,,,,,,,,,,,,,,p304,21,female,up_down_width,2025-11-18_14h35.14.992,exp1,2023.1.0,60.033450627824585,
,,,,,,,,,,,,,,,,4,8.825,9.608333333333333,10.391666666666667,11.175,0,0.7833333333333333,0.5333333333333333,0.25,2.6,10,match,36.05,318,346,375,403,0,9,9,9,9,0,,,,,,,1,0,1,0,0,1,1,5,,,,,,,,,,,,,,4,1.5677890999941155,4,0.25,0.15000000000000002,5.40644,return,1.5029039999935776,,,,,,,,,,,,,,,,,p304,21,female,up_down_width,2025-11-18_14h35.14.992,exp1,2023.1.0,60.033450627824585,
,,,,,,,,,,,,,,,,4,8.65,9.55,10.45,11.35,0,0.9,0.65,0.25,2.95,10,initial,36.05,312,344,377,409,0,9,9,9,9,0,,,,,,,1,0,1,0,0,2,2,30,,,,,,,,,,,,,,4,1.1569799999706447,4,0.5,0.15000000000000008,5.40644,return,2.7568976000184193,,,,,,,,,,,,,,,,,p304,21,female,up_down_width,2025-11-18_14h35.14.992,exp1,2023.1.0,60.033450627824585,
,,,,,,,,,,,,,,,,3,7.8,10,12.2,0,0,2.2,1.65,0.55,4.95,10,match,36.05,281,361,440,0,0,9,9,9,0,0,,,,,,,1,0,1,0,0,3,3,35,,,,,,,,,,,,,,3,1.1236964000854641,3,0.55,0.35000000000000003,12.61502,return,2.8532726999837905,,,,,,,,,,,,,,,,,p304,21,female,up_down_width,2025-11-18_14h35.14.992,exp1,2023.1.0,60.033450627824585,
,,,,,,,,,,,,,,,,3,8.9,10,11.1,0,0,1.1,0.55,0.55,2.75,10,initial,36.05,321,361,400,0,0,9,9,9,0,0,,,,,,,1,0,1,0,0,4,4,0,,,,,,,,,,,,,,3,1.094961900031194,3,0.5,0.55,19.82361,return,1.0493251000298187,,,,,,,,,,,,,,,,,p304,21,female,up_down_width,2025-11-18_14h35.14.992,exp1,2023.1.0,60.033450627824585,
,,,,,,,,,,,,,,,,3,8.6,10,11.4,0,0,1.4,0.85,0.55,3.35,10,match,36.05,310,361,411,0,0,9,9,9,0,0,,,,,,,1,0,1,0,0,5,5,41,,,,,,,,,,,,,,3,1.0658565999474376,3,0.35,0.44999999999999996,16.21932,return,2.989845599979162,,,,,,,,,,,,,,,,,p304,21,female,up_down_width,2025-11-18_14h35.14.992,exp1,2023.1.0,60.033450627824585,
,,,,,,,,,,,,,,,,3,8.2,10,11.8,0,0,1.7999999999999998,1.4,0.4,4,10,match,36.05,296,361,425,0,0,9,9,9,0,0,,,,,,,1,0,1,0,0,6,6,51,,,,,,,,,,,,,,3,1.1551496000029147,3,0.5,0.35000000000000003,12.61502,return,1.539845500024967,,,,,,,,,,,,,,,,,p304,21,female,up_down_width,2025-11-18_14h35.14.992,exp1,2023.1.0,60.033450627824585,
,,,,,,,,,,,,,,,,3,7.8,10,12.2,0,0,2.2,1.9500000000000002,0.25,4.65,10,match,36.05,281,361,440,0,0,9,9,9,0,0,,,,,,,1,0,1,0,0,7,7,37,,,,,,,,,,,,,,3,1.11116809991654,3,0.55,0.20000000000000007,7.20859,return,4.202236799988896,,,,,,,,,,,,,,,,,p304,21,female,up_down_width,2025-11-18_14h35.14.992,exp1,2023.1.0,60.033450627824585,
,,,,,,,,,,,,,,,,3,9.3,10,10.7,0,0,0.7,0.1499999999999999,0.55,1.95,10,initial,36.05,335,361,386,0,0,9,9,9,0,0,,,,,,,1,0,1,0,0,8,8,6,,,,,,,,,,,,,,3,1.3843547999858856,3,0.45,0.35000000000000003,12.61502,return,1.7757397999521345,,,,,,,,,,,,,,,,,p304,21,female,up_down_width,2025-11-18_14h35.14.992,exp1,2023.1.0,60.033450627824585,
,,,,,,,,,,,,,,,,3,7.800000000000001,10,12.2,0,0,2.1999999999999997,1.7999999999999998,0.4,4.8,10,match,36.05,281,361,440,0,0,9,9,9,0,0,,,,,,,1,0,1,0,0,9,9,39,,,,,,,,,,,,,,3,1.2469614999135956,3,0.55,0.20000000000000007,7.20859,return,3.0364733999595046,,,,,,,,,,,,,,,,,p304,21,female,up_down_width,2025-11-18_14h35.14.992,exp1,2023.1.0,60.033450627824585,
,,,,,,,,,,,,,,,,5,8.2,9.1,10,10.9,11.8,0.9,0.65,0.25,3.85,10,initial,36.05,296,328,361,393,425,9,9,9,9,9,,,,,,,1,0,1,0,0,10,10,48,,,,,,,,,,,,,,5,1.2519264000002295,5,0.55,0.20000000000000007,7.20859,return,3.393415700062178,,,,,,,,,,,,,,,,,p304,21,female,up_down_width,2025-11-18_14h35.14.992,exp1,2023.1.0,60.033450627824585,
,,,,,,,,,,,,,,,,5,8.95,9.475,10,10.525,11.05,0.525,0.125,0.4,2.5,10,match,36.05,323,342,361,379,398,9,9,9,9,9,,,,,,,1,0,1,0,0,11,11,27,,,,,,,,,,,,,,4,1.4513197999913245,4,0.25,0.3,10.81288,return,1.3595090999733657,,,,,,,,,,,,,,,,,p304,21,female,up_down_width,2025-11-18_14h35.14.992,exp1,2023.1.0,60.033450627824585,
,,,,,,,,,,,,,,,,4,8.65,9.55,10.45,11.35,0,0.9,0.35,0.55,3.25,10,initial,36.05,312,344,377,409,0,9,9,9,9,0,,,,,,,1,0,1,0,0,12,12,28,,,,,,,,,,,,,,3,1.6689268000191078,3,0.45,0.55,19.82361,return,1.6978747999528423,,,,,,,,,,,,,,,,,p304,21,female,up_down_width,2025-11-18_14h35.14.992,exp1,2023.1.0,60.033450627824585,
,,,,,,,,,,,,,,,,3,8.6,10,11.4,0,0,1.4,1.15,0.25,3.05,10,match,36.05,310,361,411,0,0,9,9,9,0,0,,,,,,,1,0,1,0,0,13,13,43,,,,,,,,,,,,,,3,1.0863107000477612,3,0.4,0.15000000000000008,5.40644,return,1.7302621999988332,,,,,,,,,,,,,,,,,p304,21,female,up_down_width,2025-11-18_14h35.14.992,exp1,2023.1.0,60.033450627824585,
,,,,,,,,,,,,,,,,4,9.1,9.7,10.3,10.9,0,0.6,0.04999999999999997,0.55,2.35,10,match,36.05,328,350,371,393,0,9,9,9,9,0,,,,,,,1,0,1,0,0,14,14,12,,,,,,,,,,,,,,3,1.0081441999645904,3,0.3,0.49999999999999994,18.02146,return,2.0706496000057086,,,,,,,,,,,,,,,,,p304,21,female,up_down_width,2025-11-18_14h35.14.992,exp1,2023.1.0,60.033450627824585,
,,,,,,,,,,,,,,,,5,8.65,9.325,10,10.675,11.35,0.675,0.125,0.55,3.25,10,match,36.05,312,336,361,385,409,9,9,9,9,9,,,,,,,1,0,1,0,0,15,15,29,,,,,,,,,,,,,,4,1.4605036999564618,4,0.35,0.5499999999999999,19.82361,return,2.057700000004843,,,,,,,,,,,,,,,,,p304,21,female,up_down_width,2025-11-18_14h35.14.992,exp1,2023.1.0,60.033450627824585,
,,,,,,,,,,,,,,,,5,8.275,9.1375,10,10.8625,11.725,0.8625,0.6125,0.25,3.7,10,match,36.05,298,329,361,392,423,9,9,9,9,9,,,,,,,1,0,1,0,0,16,16,22,,,,,,,,,,,,,,5,1.2624026999110356,5,0.5,0.15000000000000008,5.40644,return,3.4829894999274984,,,,,,,,,,,,,,,,,p304,21,female,up_down_width,2025-11-18_14h35.14.992,exp1,2023.1.0,60.033450627824585,
,,,,,,,,,,,,,,,,4,9.1,9.7,10.3,10.9,0,0.5999999999999999,0.3499999999999999,0.25,2.05,10,match,36.05,328,350,371,393,0,9,9,9,9,0,,,,,,,1,0,1,0,0,17,17,14,,,,,,,,,,,,,,3,1.1934333000099286,3,0.45,0.20000000000000007,7.20859,return,2.264296400011517,,,,,,,,,,,,,,,,,p304,21,female,up_down_width,2025-11-18_14h35.14.992,exp1,2023.1.0,60.033450627824585,
,,,,,,,,,,,,,,,,5,8.6,9.3,10,10.7,11.4,0.7,0.44999999999999996,0.25,3.05,10,initial,36.05,310,335,361,386,411,9,9,9,9,9,,,,,,,1,0,1,0,0,18,18,42,,,,,,,,,,,,,,5,1.4091830000979826,5,0.45,0.20000000000000007,7.20859,return,2.6479452999774367,,,,,,,,,,,,,,,,,p304,21,female,up_down_width,2025-11-18_14h35.14.992,exp1,2023.1.0,60.033450627824585,
,,,,,,,,,,,,,,,,4,8.65,9.55,10.45,11.35,0,0.9,0.5,0.4,3.1,10,initial,36.05,312,344,377,409,0,9,9,9,9,0,,,,,,,1,0,1,0,0,19,19,32,,,,,,,,,,,,,,4,1.2631811000173911,4,0.4,0.25000000000000006,9.01073,return,1.9325919999973848,,,,,,,,,,,,,,,,,p304,21,female,up_down_width,2025-11-18_14h35.14.992,exp1,2023.1.0,60.033450627824585,
,,,,,,,,,,,,,,,,5,8.6,9.3,10,10.7,11.4,0.7,0.1499999999999999,0.55,3.3499999999999996,10,initial,36.05,310,335,361,386,411,9,9,9,9,9,,,,,,,1,0,1,0,0,20,20,40,,,,,,,,,,,,,,4,1.557906199945137,4,0.5,0.35000000000000003,12.61502,return,2.1179154000710696,,,,,,,,,,,,,,,,,p304,21,female,up_down_width,2025-11-18_14h35.14.992,exp1,2023.1.0,60.033450627824585,
,,,,,,,,,,,,,,,,3,9.1,10,10.9,0,0,0.9,0.65,0.25,2.05,10,initial,36.05,328,361,393,0,0,9,9,9,0,0,,,,,,,1,0,1,0,0,21,21,13,,,,,,,,,,,,,,3,1.166596700088121,3,0.25,0.2,7.20859,return,1.1197138000279665,,,,,,,,,,,,,,,,,p304,21,female,up_down_width,2025-11-18_14h35.14.992,exp1,2023.1.0,60.033450627824585,
,,,,,,,,,,,,,,,,4,8.95,9.65,10.35,11.05,0,0.7,0.1499999999999999,0.55,2.65,10,initial,36.05,323,348,373,398,0,9,9,9,9,0,,,,,,,1,0,1,0,0,22,22,23,,,,,,,,,,,,,,3,1.5621062000282109,3,0.25,0.39999999999999997,14.41717,return,1.7384533999720588,,,,,,,,,,,,,,,,,p304,21,female,up_down_width,2025-11-18_14h35.14.992,exp1,2023.1.0,60.033450627824585,
,,,,,,,,,,,,,,,,4,9.1,9.7,10.3,10.9,0,0.6000000000000001,0.20000000000000004,0.4,2.2,10,match,36.05,328,350,371,393,0,9,9,9,9,0,,,,,,,1,0,1,0,0,23,23,16,,,,,,,,,,,,,,4,1.758365900022909,4,0.3,0.25,9.01073,return,1.1420935000060126,,,,,,,,,,,,,,,,,p304,21,female,up_down_width,2025-11-18_14h35.14.992,exp1,2023.1.0,60.033450627824585,
,,,,,,,,,,,,,,,,3,8.9,10,11.1,0,0,1.1,0.8500000000000001,0.25,2.45,10,initial,36.05,321,361,400,0,0,9,9,9,0,0,,,,,,,1,0,1,0,0,24,24,2,,,,,,,,,,,,,,3,1.2116726000094786,3,0.4,0.15000000000000008,5.40644,return,2.443203500006348,,,,,,,,,,,,,,,,,p304,21,female,up_down_width,2025-11-18_14h35.14.992,exp1,2023.1.0,60.033450627824585,
,,,,,,,,,,,,,,,,3,8.9,10,11.1,0,0,1.1,0.7000000000000001,0.4,2.6000000000000005,10,initial,36.05,321,361,400,0,0,9,9,9,0,0,,,,,,,1,0,1,0,0,25,25,4,,,,,,,,,,,,,,3,1.5800426000496373,3,0.35,0.3,10.81288,return,1.563561400049366,,,,,,,,,,,,,,,,,p304,21,female,up_down_width,2025-11-18_14h35.14.992,exp1,2023.1.0,60.033450627824585,
,,,,,,,,,,,,,,,,5,7.8,8.9,10,11.1,12.2,1.1,0.8500000000000001,0.25,4.65,10,initial,36.05,281,321,361,400,440,9,9,9,9,9,,,,,,,1,0,1,0,0,26,26,36,,,,,,,,,,,,,,4,1.7925424999557436,4,0.2,0.15000000000000002,5.40644,return,1.1435193999204785,,,,,,,,,,,,,,,,,p304,21,female,up_down_width,2025-11-18_14h35.14.992,exp1,2023.1.0,60.033450627824585,
,,,,,,,,,,,,,,,,5,8.35,9.175,10,10.825,11.65,0.8250000000000001,0.275,0.55,3.85,10,match,36.05,301,331,361,390,420,9,9,9,9,9,,,,,,,1,0,1,0,0,27,27,18,,,,,,,,,,,,,,5,2.1993206000188366,5,0.45,0.35000000000000003,12.61502,return,1.806401199894026,,,,,,,,,,,,,,,,,p304,21,female,up_down_width,2025-11-18_14h35.14.992,exp1,2023.1.0,60.033450627824585,
,,,,,,,,,,,,,,,,5,8.65,9.325,10,10.675,11.35,0.675,0.42500000000000004,0.25,2.95,10,match,36.05,312,336,361,385,409,9,9,9,9,9,,,,,,,1,0,1,0,0,28,28,31,,,,,,,,,,,,,,5,1.4160609999671578,5,0.4,0.20000000000000007,7.20859,return,1.9977032999740914,,,,,,,,,,,,,,,,,p304,21,female,up_down_width,2025-11-18_14h35.14.992,exp1,2023.1.0,60.033450627824585,
,,,,,,,,,,,,,,,,4,8.9,9.633333333333333,10.366666666666667,11.1,0,0.7333333333333333,0.18333333333333326,0.55,2.75,10,match,36.05,321,347,374,400,0,9,9,9,9,0,,,,,,,1,0,1,0,0,29,29,1,,,,,,,,,,,,,,3,0.9669996999436989,3,0.35,0.39999999999999997,14.41717,return,0.9762361999601126,,,,,,,,,,,,,,,,,p304,21,female,up_down_width,2025-11-18_14h35.14.992,exp1,2023.1.0,60.033450627824585,
,,,,,,,,,,,,,,,,5,8.6,9.3,10,10.7,11.4,0.7,0.29999999999999993,0.4,3.1999999999999997,10,initial,36.05,310,335,361,386,411,9,9,9,9,9,,,,,,,1,0,1,0,0,30,30,44,,,,,,,,,,,,,,4,0.9869661000557244,4,0.3,0.25,9.01073,return,1.1228398999664932,,,,,,,,,,,,,,,,,p304,21,female,up_down_width,2025-11-18_14h35.14.992,exp1,2023.1.0,60.033450627824585,
,,,,,,,,,,,,,,,,4,8.35,9.45,10.55,11.65,0,1.1,0.55,0.55,3.8500000000000005,10,initial,36.05,301,341,380,420,0,9,9,9,9,0,,,,,,,1,0,1,0,0,31,31,17,,,,,,,,,,,,,,4,1.199175599962473,4,0.3,0.25,9.01073,return,1.0701670000562444,,,,,,,,,,,,,,,,,p304,21,female,up_down_width,2025-11-18_14h35.14.992,exp1,2023.1.0,60.033450627824585,
,,,,,,,,,,,,,,,,5,8.65,9.325,10,10.675,11.35,0.675,0.275,0.4,3.1,10,match,36.05,312,336,361,385,409,9,9,9,9,9,,,,,,,1,0,1,0,0,32,32,33,,,,,,,,,,,,,,5,1.1678073999937624,5,0.25,0.25,9.01073,return,1.3127300000051036,,,,,,,,,,,,,,,,,p304,21,female,up_down_width,2025-11-18_14h35.14.992,exp1,2023.1.0,60.033450627824585,
,,,,,,,,,,,,,,,,5,8.95,9.475,10,10.525,11.05,0.525,0.275,0.25,2.35,10,match,36.05,323,342,361,379,398,9,9,9,9,9,,,,,,,1,0,1,0,0,33,33,25,,,,,,,,,,,,,,5,1.4275694999378175,5,0.25,0.10000000000000002,3.60429,return,1.673069900018163,,,,,,,,,,,,,,,,,p304,21,female,up_down_width,2025-11-18_14h35.14.992,exp1,2023.1.0,60.033450627824585,
,,,,,,,,,,,,,,,,3,9.3,10,10.7,0,0,0.7,0.29999999999999993,0.4,1.8,10,initial,36.05,335,361,386,0,0,9,9,9,0,0,,,,,,,1,0,1,0,0,34,34,9,,,,,,,,,,,,,,3,0.9112004999769852,3,0.4,0.35000000000000003,12.61502,return,1.3212429999839514,,,,,,,,,,,,,,,,,p304,21,female,up_down_width,2025-11-18_14h35.14.992,exp1,2023.1.0,60.033450627824585,
,,,,,,,,,,,,,,,,4,8.9,9.633333333333333,10.366666666666667,11.1,0,0.7333333333333334,0.4833333333333334,0.25,2.45,10,match,36.05,321,347,374,400,0,9,9,9,9,0,,,,,,,1,0,1,0,0,35,35,3,,,,,,,,,,,,,,3,1.3341103000566363,3,0.3,0.15000000000000002,5.40644,return,1.599240200011991,,,,,,,,,,,,,,,,,p304,21,female,up_down_width,2025-11-18_14h35.14.992,exp1,2023.1.0,60.033450627824585,
,,,,,,,,,,,,,,,,4,9.3,9.766666666666667,10.233333333333333,10.7,0,0.4666666666666667,0.06666666666666665,0.4,1.8,10,match,36.05,335,352,369,386,0,9,9,9,9,0,,,,,,,1,0,1,0,0,36,36,10,,,,,,,,,,,,,,3,1.1969299000920728,3,0.25,0.35,12.61502,return,1.4848298999713734,,,,,,,,,,,,,,,,,p304,21,female,up_down_width,2025-11-18_14h35.14.992,exp1,2023.1.0,60.033450627824585,
,,,,,,,,,,,,,,,,4,8.35,9.45,10.55,11.65,0,1.1,0.8500000000000001,0.25,3.5500000000000003,10,initial,36.05,301,341,380,420,0,9,9,9,9,0,,,,,,,1,0,1,0,0,37,37,19,,,,,,,,,,,,,,4,1.7782876000273973,4,0.45,0.25000000000000006,9.01073,return,2.3791093000909314,,,,,,,,,,,,,,,,,p304,21,female,up_down_width,2025-11-18_14h35.14.992,exp1,2023.1.0,60.033450627824585,
,,,,,,,,,,,,,,,,5,7.8,8.9,10,11.1,12.2,1.1,0.7000000000000001,0.4,4.800000000000001,10,initial,36.05,281,321,361,400,440,9,9,9,9,9,,,,,,,1,0,1,0,0,38,38,38,,,,,,,,,,,,,,5,0.9159971000626683,5,0.25,0.3,10.81288,return,1.4855090000201017,,,,,,,,,,,,,,,,,p304,21,female,up_down_width,2025-11-18_14h35.14.992,exp1,2023.1.0,60.033450627824585,
,,,,,,,,,,,,,,,,3,9.3,10,10.7,0,0,0.7,0.44999999999999996,0.25,1.65,10,initial,36.05,335,361,386,0,0,9,9,9,0,0,,,,,,,1,0,1,0,0,39,39,7,,,,,,,,,,,,,,3,0.9173794999951497,3,0.5,0.15000000000000008,5.40644,return,2.639069200027734,,,,,,,,,,,,,,,,,p304,21,female,up_down_width,2025-11-18_14h35.14.992,exp1,2023.1.0,60.033450627824585,
,,,,,,,,,,,,,,,,3,9.1,10,10.9,0,0,0.9,0.5,0.4,2.2,10,initial,36.05,328,361,393,0,0,9,9,9,0,0,,,,,,,1,0,1,0,0,40,40,15,,,,,,,,,,,,,,3,1.100216899998486,3,0.3,0.35,12.61502,return,1.2160740999970585,,,,,,,,,,,,,,,,,p304,21,female,up_down_width,2025-11-18_14h35.14.992,exp1,2023.1.0,60.033450627824585,
,,,,,,,,,,,,,,,,5,7.8,8.9,10,11.1,12.2,1.1,0.55,0.55,4.95,10,initial,36.05,281,321,361,400,440,9,9,9,9,9,,,,,,,1,0,1,0,0,41,41,34,,,,,,,,,,,,,,5,1.2571395999984816,5,0.5,0.35000000000000003,12.61502,return,3.429478899925016,,,,,,,,,,,,,,,,,p304,21,female,up_down_width,2025-11-18_14h35.14.992,exp1,2023.1.0,60.033450627824585,
,,,,,,,,,,,,,,,,4,8.35,9.45,10.55,11.65,0,1.1,0.7000000000000001,0.4,3.7,10,initial,36.05,301,341,380,420,0,9,9,9,9,0,,,,,,,1,0,1,0,0,42,42,21,,,,,,,,,,,,,,4,1.0079698999179527,4,0.2,0.35,12.61502,return,2.3415717999450862,,,,,,,,,,,,,,,,,p304,21,female,up_down_width,2025-11-18_14h35.14.992,exp1,2023.1.0,60.033450627824585,
,,,,,,,,,,,,,,,,3,9.1,10,10.9,0,0,0.9,0.35,0.55,2.35,10,initial,36.05,328,361,393,0,0,9,9,9,0,0,,,,,,,1,0,1,0,0,43,43,11,,,,,,,,,,,,,,3,0.939798399922438,3,0.4,0.5,18.02146,return,1.7491790000349283,,,,,,,,,,,,,,,,,p304,21,female,up_down_width,2025-11-18_14h35.14.992,exp1,2023.1.0,60.033450627824585,
,,,,,,,,,,,,,,,,4,8.95,9.65,10.35,11.05,0,0.7,0.29999999999999993,0.4,2.5,10,initial,36.05,323,348,373,398,0,9,9,9,9,0,,,,,,,1,0,1,0,0,44,44,26,,,,,,,,,,,,,,4,1.192273800028488,4,0.4,0.35000000000000003,12.61502,return,1.2551230000099167,,,,,,,,,,,,,,,,,p304,21,female,up_down_width,2025-11-18_14h35.14.992,exp1,2023.1.0,60.033450627824585,
,,,,,,,,,,,,,,,,5,8.35,9.175,10,10.825,11.65,0.825,0.575,0.25,3.55,10,match,36.05,301,331,361,390,420,9,9,9,9,9,,,,,,,1,0,1,0,0,45,45,20,,,,,,,,,,,,,,5,1.4684890999924392,5,0.25,0.15000000000000002,5.40644,return,1.2636198999825865,,,,,,,,,,,,,,,,,p304,21,female,up_down_width,2025-11-18_14h35.14.992,exp1,2023.1.0,60.033450627824585,
,,,,,,,,,,,,,,,,5,8.2,9.1,10,10.9,11.8,0.9,0.5,0.4,4,10,initial,36.05,296,328,361,393,425,9,9,9,9,9,,,,,,,1,0,1,0,0,46,46,50,,,,,,,,,,,,,,5,0.8849797999719158,5,0.5,0.30000000000000004,10.81288,return,1.7283413000404835,,,,,,,,,,,,,,,,,p304,21,female,up_down_width,2025-11-18_14h35.14.992,exp1,2023.1.0,60.033450627824585,
,,,,,,,,,,,,,,,,4,9.3,9.766666666666667,10.233333333333333,10.7,0,0.4666666666666667,0.21666666666666665,0.25,1.65,10,match,36.05,335,352,369,386,0,9,9,9,9,0,,,,,,,1,0,1,0,0,47,47,8,,,,,,,,,,,,,,4,1.1381120999576524,4,0.4,0.25000000000000006,9.01073,return,2.802915300009772,,,,,,,,,,,,,,,,,p304,21,female,up_down_width,2025-11-18_14h35.14.992,exp1,2023.1.0,60.033450627824585,
,,,,,,,,,,,,,,,,3,8.2,10,11.8,0,0,1.8,1.25,0.55,4.15,10,match,36.05,296,361,425,0,0,9,9,9,0,0,,,,,,,1,0,1,0,0,48,48,47,,,,,,,,,,,,,,3,1.2643928999314085,3,0.5,0.5,18.02146,return,1.9328964999876916,,,,,,,,,,,,,,,,,p304,21,female,up_down_width,2025-11-18_14h35.14.992,exp1,2023.1.0,60.033450627824585,
,,,,,,,,,,,,,,,,3,8.2,10,11.8,0,0,1.8,1.55,0.25,3.85,10,match,36.05,296,361,425,0,0,9,9,9,0,0,,,,,,,1,0,1,0,0,49,49,49,,,,,,,,,,,,,,3,0.9556591999717057,3,0.25,0.10000000000000002,3.60429,return,1.732938400004059,,,,,,,,,,,,,,,,,p304,21,female,up_down_width,2025-11-18_14h35.14.992,exp1,2023.1.0,60.033450627824585,
,,,,,,,,,,,,,,,,3,8.525,10,11.475,0,0,1.475,1.225,0.25,3.2,10,match,36.05,307,361,414,0,0,9,9,9,0,0,,,,,,,1,0,1,0,0,50,50,45,,,,,,,,,,,,,,2,1.0492243999615312,2,0.45,0.20000000000000007,7.20859,return,3.918091299943626,,,,,,,,,,,,,,,,,p304,21,female,up_down_width,2025-11-18_14h35.14.992,exp1,2023.1.0,60.033450627824585,
,,,,,,,,,,,,,,,,4,8.95,9.65,10.35,11.05,0,0.7,0.44999999999999996,0.25,2.3499999999999996,10,initial,36.05,323,348,373,398,0,9,9,9,9,0,,,,,,,1,0,1,0,0,51,51,24,,,,,,,,,,,,,,3,1.6258198000723496,3,0.55,0.15000000000000008,5.40644,return,3.3513835000339895,,,,,,,,,,,,,,,,,p304,21,female,up_down_width,2025-11-18_14h35.14.992,exp1,2023.1.0,60.033450627824585,
,,,,,,,,,,,,,,,,,,,,,,,,,,,,,,,,,,,,,,,,,,,,,1,0,1,0,,,,,,,,,,,,,,,,,,,,,,,,,,,,1058.1710802000016,1058.1710802000016,1058.1710802000016,,,,,,,,,,,,p304,21,female,up_down_width,2025-11-18_14h35.14.992,exp1,2023.1.0,60.033450627824585,
,,,,,,,,,,,,,,,,4,8.825,9.608333333333333,10.391666666666667,11.175,0,0.7833333333333333,0.5333333333333333,0.25,2.6,10,match,36.05,318,346,375,403,0,9,9,9,9,0,,,,,,,2,0,2,0,0,0,0,5,,,,,,,,,,,,,,3,1.2857286999933422,3,0.2,0.15000000000000002,5.40644,return,1.4097521000076085,,,,,,,,,,,,,,,,,p304,21,female,up_down_width,2025-11-18_14h35.14.992,exp1,2023.1.0,60.033450627824585,
,,,,,,,,,,,,,,,,5,8.95,9.475,10,10.525,11.05,0.525,0.275,0.25,2.35,10,match,36.05,323,342,361,379,398,9,9,9,9,9,,,,,,,2,0,2,0,0,1,1,25,,,,,,,,,,,,,,4,1.019560500048101,4,0.35,0.15000000000000002,5.40644,return,1.9225268999580294,,,,,,,,,,,,,,,,,p304,21,female,up_down_width,2025-11-18_14h35.14.992,exp1,2023.1.0,60.033450627824585,
,,,,,,,,,,,,,,,,5,7.8,8.9,10,11.1,12.2,1.1,0.55,0.55,4.95,10,initial,36.05,281,321,361,400,440,9,9,9,9,9,,,,,,,2,0,2,0,0,2,2,34,,,,,,,,,,,,,,5,1.3396609000628814,5,0.55,0.35000000000000003,12.61502,return,3.157801999943331,,,,,,,,,,,,,,,,,p304,21,female,up_down_width,2025-11-18_14h35.14.992,exp1,2023.1.0,60.033450627824585,
,,,,,,,,,,,,,,,,3,8.9,10,11.1,0,0,1.1,0.8500000000000001,0.25,2.45,10,initial,36.05,321,361,400,0,0,9,9,9,0,0,,,,,,,2,0,2,0,0,3,3,2,,,,,,,,,,,,,,2,1.0769548000534996,2,0.4,0.25000000000000006,9.01073,return,1.5289244999876246,,,,,,,,,,,,,,,,,p304,21,female,up_down_width,2025-11-18_14h35.14.992,exp1,2023.1.0,60.033450627824585,
,,,,,,,,,,,,,,,,4,9.1,9.7,10.3,10.9,0,0.6000000000000001,0.20000000000000004,0.4,2.2,10,match,36.05,328,350,371,393,0,9,9,9,9,0,,,,,,,2,0,2,0,0,4,4,16,,,,,,,,,,,,,,3,1.156095299986191,3,0.25,0.3,10.81288,return,1.2523882000241429,,,,,,,,,,,,,,,,,p304,21,female,up_down_width,2025-11-18_14h35.14.992,exp1,2023.1.0,60.033450627824585,
,,,,,,,,,,,,,,,,3,8.2,10,11.8,0,0,1.8,1.25,0.55,4.15,10,match,36.05,296,361,425,0,0,9,9,9,0,0,,,,,,,2,0,2,0,0,5,5,47,,,,,,,,,,,,,,3,1.807943299994804,3,0.4,0.35000000000000003,12.61502,return,1.2698068999452516,,,,,,,,,,,,,,,,,p304,21,female,up_down_width,2025-11-18_14h35.14.992,exp1,2023.1.0,60.033450627824585,
,,,,,,,,,,,,,,,,3,9.1,10,10.9,0,0,0.9,0.65,0.25,2.05,10,initial,36.05,328,361,393,0,0,9,9,9,0,0,,,,,,,2,0,2,0,0,6,6,13,,,,,,,,,,,,,,2,0.8968198000220582,2,0.55,0.15000000000000008,5.40644,return,2.7638302999548614,,,,,,,,,,,,,,,,,p304,21,female,up_down_width,2025-11-18_14h35.14.992,exp1,2023.1.0,60.033450627824585,
,,,,,,,,,,,,,,,,4,8.35,9.45,10.55,11.65,0,1.1,0.55,0.55,3.8500000000000005,10,initial,36.05,301,341,380,420,0,9,9,9,9,0,,,,,,,2,0,2,0,0,7,7,17,,,,,,,,,,,,,,3,1.22028120001778,3,0.3,0.35,12.61502,return,1.169747699983418,,,,,,,,,,,,,,,,,p304,21,female,up_down_width,2025-11-18_14h35.14.992,exp1,2023.1.0,60.033450627824585,
,,,,,,,,,,,,,,,,4,9.1,9.7,10.3,10.9,0,0.6,0.04999999999999997,0.55,2.35,10,match,36.05,328,350,371,393,0,9,9,9,9,0,,,,,,,2,0,2,0,0,8,8,12,,,,,,,,,,,,,,3,1.241745200008154,3,0.2,0.39999999999999997,14.41717,return,2.919009600067511,,,,,,,,,,,,,,,,,p304,21,female,up_down_width,2025-11-18_14h35.14.992,exp1,2023.1.0,60.033450627824585,
,,,,,,,,,,,,,,,,5,8.65,9.325,10,10.675,11.35,0.675,0.42500000000000004,0.25,2.95,10,match,36.05,312,336,361,385,409,9,9,9,9,9,,,,,,,2,0,2,0,0,9,9,31,,,,,,,,,,,,,,4,1.011753399972804,4,0.3,0.15000000000000002,5.40644,return,1.578434000024572,,,,,,,,,,,,,,,,,p304,21,female,up_down_width,2025-11-18_14h35.14.992,exp1,2023.1.0,60.033450627824585,
,,,,,,,,,,,,,,,,5,8.275,9.1375,10,10.8625,11.725,0.8625,0.6125,0.25,3.7,10,match,36.05,298,329,361,392,423,9,9,9,9,9,,,,,,,2,0,2,0,0,10,10,22,,,,,,,,,,,,,,4,0.9268329000333324,4,0.5,0.20000000000000007,7.20859,return,2.487572400015779,,,,,,,,,,,,,,,,,p304,21,female,up_down_width,2025-11-18_14h35.14.992,exp1,2023.1.0,60.033450627824585,
,,,,,,,,,,,,,,,,4,8.9,9.633333333333333,10.366666666666667,11.1,0,0.7333333333333334,0.4833333333333334,0.25,2.45,10,match,36.05,321,347,374,400,0,9,9,9,9,0,,,,,,,2,0,2,0,0,11,11,3,,,,,,,,,,,,,,3,1.885043799993582,3,0.3,0.2,7.20859,return,1.2977839999366552,,,,,,,,,,,,,,,,,p304,21,female,up_down_width,2025-11-18_14h35.14.992,exp1,2023.1.0,60.033450627824585,
,,,,,,,,,,,,,,,,4,9.3,9.766666666666667,10.233333333333333,10.7,0,0.4666666666666667,0.06666666666666665,0.4,1.8,10,match,36.05,335,352,369,386,0,9,9,9,9,0,,,,,,,2,0,2,0,0,12,12,10,,,,,,,,,,,,,,3,1.0916983000934124,3,0.45,0.25000000000000006,9.01073,return,2.8086244999431074,,,,,,,,,,,,,,,,,p304,21,female,up_down_width,2025-11-18_14h35.14.992,exp1,2023.1.0,60.033450627824585,
,,,,,,,,,,,,,,,,3,8.6,10,11.4,0,0,1.4,1.15,0.25,3.05,10,match,36.05,310,361,411,0,0,9,9,9,0,0,,,,,,,2,0,2,0,0,13,13,43,,,,,,,,,,,,,,2,1.3840474999742582,2,0.55,0.20000000000000007,7.20859,return,3.440139700076543,,,,,,,,,,,,,,,,,p304,21,female,up_down_width,2025-11-18_14h35.14.992,exp1,2023.1.0,60.033450627824585,
,,,,,,,,,,,,,,,,3,8.9,10,11.1,0,0,1.1,0.55,0.55,2.75,10,initial,36.05,321,361,400,0,0,9,9,9,0,0,,,,,,,2,0,2,0,0,14,14,0,,,,,,,,,,,,,,2,1.2032165999989957,2,0.55,0.35000000000000003,12.61502,return,2.6901685000630096,,,,,,,,,,,,,,,,,p304,21,female,up_down_width,2025-11-18_14h35.14.992,exp1,2023.1.0,60.033450627824585,
,,,,,,,,,,,,,,,,3,9.3,10,10.7,0,0,0.7,0.1499999999999999,0.55,1.95,10,initial,36.05,335,361,386,0,0,9,9,9,0,0,,,,,,,2,0,2,0,0,15,15,6,,,,,,,,,,,,,,2,1.2454887999920174,2,0.35,0.39999999999999997,14.41717,return,1.3225537999533117,,,,,,,,,,,,,,,,,p304,21,female,up_down_width,2025-11-18_14h35.14.992,exp1,2023.1.0,60.033450627824585,
,,,,,,,,,,,,,,,,4,9.3,9.766666666666667,10.233333333333333,10.7,0,0.4666666666666667,0.21666666666666665,0.25,1.65,10,match,36.05,335,352,369,386,0,9,9,9,9,0,,,,,,,2,0,2,0,0,16,16,8,,,,,,,,,,,,,,3,0.8826523000607267,3,0.25,0.2,7.20859,return,1.1821484999964014,,,,,,,,,,,,,,,,,p304,21,female,up_down_width,2025-11-18_14h35.14.992,exp1,2023.1.0,60.033450627824585,
,,,,,,,,,,,,,,,,5,7.8,8.9,10,11.1,12.2,1.1,0.7000000000000001,0.4,4.800000000000001,10,initial,36.05,281,321,361,400,440,9,9,9,9,9,,,,,,,2,0,2,0,0,17,17,38,,,,,,,,,,,,,,5,1.1007670999970287,5,0.55,0.35000000000000003,12.61502,return,1.9516942999325693,,,,,,,,,,,,,,,,,p304,21,female,up_down_width,2025-11-18_14h35.14.992,exp1,2023.1.0,60.033450627824585,
,,,,,,,,,,,,,,,,3,7.800000000000001,10,12.2,0,0,2.1999999999999997,1.7999999999999998,0.4,4.8,10,match,36.05,281,361,440,0,0,9,9,9,0,0,,,,,,,2,0,2,0,0,18,18,39,,,,,,,,,,,,,,3,1.0345392000162974,3,0.35,0.3,10.81288,return,1.278879199991934,,,,,,,,,,,,,,,,,p304,21,female,up_down_width,2025-11-18_14h35.14.992,exp1,2023.1.0,60.033450627824585,
,,,,,,,,,,,,,,,,5,8.65,9.325,10,10.675,11.35,0.675,0.125,0.55,3.25,10,match,36.05,312,336,361,385,409,9,9,9,9,9,,,,,,,2,0,2,0,0,19,19,29,,,,,,,,,,,,,,4,1.0552481999620795,4,0.2,0.35,12.61502,return,1.6676147000398487,,,,,,,,,,,,,,,,,p304,21,female,up_down_width,2025-11-18_14h35.14.992,exp1,2023.1.0,60.033450627824585,
,,,,,,,,,,,,,,,,3,8.2,10,11.8,0,0,1.8,1.55,0.25,3.85,10,match,36.05,296,361,425,0,0,9,9,9,0,0,,,,,,,2,0,2,0,0,20,20,49,,,,,,,,,,,,,,3,1.0447887000627816,3,0.5,0.20000000000000007,7.20859,return,2.52242729999125,,,,,,,,,,,,,,,,,p304,21,female,up_down_width,2025-11-18_14h35.14.992,exp1,2023.1.0,60.033450627824585,
,,,,,,,,,,,,,,,,5,8.6,9.3,10,10.7,11.4,0.7,0.29999999999999993,0.4,3.1999999999999997,10,initial,36.05,310,335,361,386,411,9,9,9,9,9,,,,,,,2,0,2,0,0,21,21,44,,,,,,,,,,,,,,4,1.3449951000511646,4,0.35,0.3,10.81288,return,2.090843199985102,,,,,,,,,,,,,,,,,p304,21,female,up_down_width,2025-11-18_14h35.14.992,exp1,2023.1.0,60.033450627824585,
,,,,,,,,,,,,,,,,3,9.1,10,10.9,0,0,0.9,0.35,0.55,2.35,10,initial,36.05,328,361,393,0,0,9,9,9,0,0,,,,,,,2,0,2,0,0,22,22,11,,,,,,,,,,,,,,2,1.3517198000336066,2,0.5,0.4,14.41717,return,2.2724012999096885,,,,,,,,,,,,,,,,,p304,21,female,up_down_width,2025-11-18_14h35.14.992,exp1,2023.1.0,60.033450627824585,
,,,,,,,,,,,,,,,,4,8.95,9.65,10.35,11.05,0,0.7,0.29999999999999993,0.4,2.5,10,initial,36.05,323,348,373,398,0,9,9,9,9,0,,,,,,,2,0,2,0,0,23,23,26,,,,,,,,,,,,,,3,1.07486809999682,3,0.35,0.35,12.61502,return,1.1115028000203893,,,,,,,,,,,,,,,,,p304,21,female,up_down_width,2025-11-18_14h35.14.992,exp1,2023.1.0,60.033450627824585,
,,,,,,,,,,,,,,,,5,8.2,9.1,10,10.9,11.8,0.9,0.35,0.55,4.15,10,initial,36.05,296,328,361,393,425,9,9,9,9,9,,,,,,,2,0,2,0,0,24,24,46,,,,,,,,,,,,,,4,1.063762899953872,4,0.2,0.39999999999999997,14.41717,return,2.7156756999902427,,,,,,,,,,,,,,,,,p304,21,female,up_down_width,2025-11-18_14h35.14.992,exp1,2023.1.0,60.033450627824585,
,,,,,,,,,,,,,,,,5,8.6,9.3,10,10.7,11.4,0.7,0.1499999999999999,0.55,3.3499999999999996,10,initial,36.05,310,335,361,386,411,9,9,9,9,9,,,,,,,2,0,2,0,0,25,25,40,,,,,,,,,,,,,,3,1.4658069000579417,3,0.2,0.44999999999999996,16.21932,return,2.3653652999782935,,,,,,,,,,,,,,,,,p304,21,female,up_down_width,2025-11-18_14h35.14.992,exp1,2023.1.0,60.033450627824585,
,,,,,,,,,,,,,,,,4,8.95,9.65,10.35,11.05,0,0.7,0.1499999999999999,0.55,2.65,10,initial,36.05,323,348,373,398,0,9,9,9,9,0,,,,,,,2,0,2,0,0,26,26,23,,,,,,,,,,,,,,3,1.1385880999732763,3,0.3,0.39999999999999997,14.41717,return,1.779991399962455,,,,,,,,,,,,,,,,,p304,21,female,up_down_width,2025-11-18_14h35.14.992,exp1,2023.1.0,60.033450627824585,
,,,,,,,,,,,,,,,,5,8.2,9.1,10,10.9,11.8,0.9,0.5,0.4,4,10,initial,36.05,296,328,361,393,425,9,9,9,9,9,,,,,,,2,0,2,0,0,27,27,50,,,,,,,,,,,,,,5,1.0874748000642285,5,0.55,0.30000000000000004,10.81288,return,3.1223048999672756,,,,,,,,,,,,,,,,,p304,21,female,up_down_width,2025-11-18_14h35.14.992,exp1,2023.1.0,60.033450627824585,
,,,,,,,,,,,,,,,,5,8.6,9.3,10,10.7,11.4,0.7,0.44999999999999996,0.25,3.05,10,initial,36.05,310,335,361,386,411,9,9,9,9,9,,,,,,,2,0,2,0,0,28,28,42,,,,,,,,,,,,,,4,1.0494053000584245,4,0.25,0.15000000000000002,5.40644,return,1.7589051999384537,,,,,,,,,,,,,,,,,p304,21,female,up_down_width,2025-11-18_14h35.14.992,exp1,2023.1.0,60.033450627824585,
,,,,,,,,,,,,,,,,5,8.65,9.325,10,10.675,11.35,0.675,0.275,0.4,3.1,10,match,36.05,312,336,361,385,409,9,9,9,9,9,,,,,,,2,0,2,0,0,29,29,33,,,,,,,,,,,,,,4,1.2331069000065327,4,0.5,0.30000000000000004,10.81288,return,1.9191462999442592,,,,,,,,,,,,,,,,,p304,21,female,up_down_width,2025-11-18_14h35.14.992,exp1,2023.1.0,60.033450627824585,
,,,,,,,,,,,,,,,,3,9.3,10,10.7,0,0,0.7,0.29999999999999993,0.4,1.8,10,initial,36.05,335,361,386,0,0,9,9,9,0,0,,,,,,,2,0,2,0,0,30,30,9,,,,,,,,,,,,,,3,1.1347234999993816,3,0.3,0.3,10.81288,return,1.0248254999751225,,,,,,,,,,,,,,,,,p304,21,female,up_down_width,2025-11-18_14h35.14.992,exp1,2023.1.0,60.033450627824585,
,,,,,,,,,,,,,,,,4,8.9,9.633333333333333,10.366666666666667,11.1,0,0.7333333333333333,0.18333333333333326,0.55,2.75,10,match,36.05,321,347,374,400,0,9,9,9,9,0,,,,,,,2,0,2,0,0,31,31,1,,,,,,,,,,,,,,3,0.9908097999868914,3,0.3,0.35,12.61502,return,3.7342176999663934,,,,,,,,,,,,,,,,,p304,21,female,up_down_width,2025-11-18_14h35.14.992,exp1,2023.1.0,60.033450627824585,
,,,,,,,,,,,,,,,,4,8.95,9.65,10.35,11.05,0,0.7,0.44999999999999996,0.25,2.3499999999999996,10,initial,36.05,323,348,373,398,0,9,9,9,9,0,,,,,,,2,0,2,0,0,32,32,24,,,,,,,,,,,,,,3,1.2620044000213966,3,0.5,0.15000000000000008,5.40644,return,2.7629265999421477,,,,,,,,,,,,,,,,,p304,21,female,up_down_width,2025-11-18_14h35.14.992,exp1,2023.1.0,60.033450627824585,
,,,,,,,,,,,,,,,,5,8.95,9.475,10,10.525,11.05,0.525,0.125,0.4,2.5,10,match,36.05,323,342,361,379,398,9,9,9,9,9,,,,,,,2,0,2,0,0,33,33,27,,,,,,,,,,,,,,4,1.2519553999882191,4,0.3,0.25,9.01073,return,1.2162661999464035,,,,,,,,,,,,,,,,,p304,21,female,up_down_width,2025-11-18_14h35.14.992,exp1,2023.1.0,60.033450627824585,
,,,,,,,,,,,,,,,,3,7.8,10,12.2,0,0,2.2,1.65,0.55,4.95,10,match,36.05,281,361,440,0,0,9,9,9,0,0,,,,,,,2,0,2,0,0,34,34,35,,,,,,,,,,,,,,3,1.336348699987866,3,0.25,0.35,12.61502,return,1.5690734999952838,,,,,,,,,,,,,,,,,p304,21,female,up_down_width,2025-11-18_14h35.14.992,exp1,2023.1.0,60.033450627824585,
,,,,,,,,,,,,,,,,4,8.65,9.55,10.45,11.35,0,0.9,0.35,0.55,3.25,10,initial,36.05,312,344,377,409,0,9,9,9,9,0,,,,,,,2,0,2,0,0,35,35,28,,,,,,,,,,,,,,3,1.0456797999795526,3,0.5,0.45,16.21932,return,1.0994075000053272,,,,,,,,,,,,,,,,,p304,21,female,up_down_width,2025-11-18_14h35.14.992,exp1,2023.1.0,60.033450627824585,
,,,,,,,,,,,,,,,,5,8.2,9.1,10,10.9,11.8,0.9,0.65,0.25,3.85,10,initial,36.05,296,328,361,393,425,9,9,9,9,9,,,,,,,2,0,2,0,0,36,36,48,,,,,,,,,,,,,,5,1.5590823999373242,5,0.5,0.20000000000000007,7.20859,return,2.518329600105062,,,,,,,,,,,,,,,,,p304,21,female,up_down_width,2025-11-18_14h35.14.992,exp1,2023.1.0,60.033450627824585,
,,,,,,,,,,,,,,,,3,9.3,10,10.7,0,0,0.7,0.44999999999999996,0.25,1.65,10,initial,36.05,335,361,386,0,0,9,9,9,0,0,,,,,,,2,0,2,0,0,37,37,7,,,,,,,,,,,,,,3,0.953520099981688,3,0.5,0.20000000000000007,7.20859,return,2.7068553999997675,,,,,,,,,,,,,,,,,p304,21,female,up_down_width,2025-11-18_14h35.14.992,exp1,2023.1.0,60.033450627824585,
,,,,,,,,,,,,,,,,4,8.35,9.45,10.55,11.65,0,1.1,0.8500000000000001,0.25,3.5500000000000003,10,initial,36.05,301,341,380,420,0,9,9,9,9,0,,,,,,,2,0,2,0,0,38,38,19,,,,,,,,,,,,,,3,1.1424222000641748,3,0.55,0.20000000000000007,7.20859,return,3.047758199973032,,,,,,,,,,,,,,,,,p304,21,female,up_down_width,2025-11-18_14h35.14.992,exp1,2023.1.0,60.033450627824585,
,,,,,,,,,,,,,,,,3,8.2,10,11.8,0,0,1.7999999999999998,1.4,0.4,4,10,match,36.05,296,361,425,0,0,9,9,9,0,0,,,,,,,2,0,2,0,0,39,39,51,,,,,,,,,,,,,,3,1.0242899999720976,3,0.45,0.35000000000000003,12.61502,return,1.717590200016275,,,,,,,,,,,,,,,,,p304,21,female,up_down_width,2025-11-18_14h35.14.992,exp1,2023.1.0,60.033450627824585,
,,,,,,,,,,,,,,,,3,8.9,10,11.1,0,0,1.1,0.7000000000000001,0.4,2.6000000000000005,10,initial,36.05,321,361,400,0,0,9,9,9,0,0,,,,,,,2,0,2,0,0,40,40,4,,,,,,,,,,,,,,3,1.8287256999174133,3,0.25,0.3,10.81288,return,1.5948102999245748,,,,,,,,,,,,,,,,,p304,21,female,up_down_width,2025-11-18_14h35.14.992,exp1,2023.1.0,60.033450627824585,
,,,,,,,,,,,,,,,,3,8.525,10,11.475,0,0,1.475,1.225,0.25,3.2,10,match,36.05,307,361,414,0,0,9,9,9,0,0,,,,,,,2,0,2,0,0,41,41,45,,,,,,,,,,,,,,2,1.0903500000713393,2,0.3,0.2,7.20859,return,1.2205183999612927,,,,,,,,,,,,,,,,,p304,21,female,up_down_width,2025-11-18_14h35.14.992,exp1,2023.1.0,60.033450627824585,
,,,,,,,,,,,,,,,,3,8.6,10,11.4,0,0,1.4,0.85,0.55,3.35,10,match,36.05,310,361,411,0,0,9,9,9,0,0,,,,,,,2,0,2,0,0,42,42,41,,,,,,,,,,,,,,2,0.90292640007101,2,0.25,0.39999999999999997,14.41717,return,2.6897313999943435,,,,,,,,,,,,,,,,,p304,21,female,up_down_width,2025-11-18_14h35.14.992,exp1,2023.1.0,60.033450627824585,
,,,,,,,,,,,,,,,,4,9.1,9.7,10.3,10.9,0,0.5999999999999999,0.3499999999999999,0.25,2.05,10,match,36.05,328,350,371,393,0,9,9,9,9,0,,,,,,,2,0,2,0,0,43,43,14,,,,,,,,,,,,,,3,0.8892761999741197,3,0.45,0.20000000000000007,7.20859,return,2.0523495000088587,,,,,,,,,,,,,,,,,p304,21,female,up_down_width,2025-11-18_14h35.14.992,exp1,2023.1.0,60.033450627824585,
,,,,,,,,,,,,,,,,5,8.35,9.175,10,10.825,11.65,0.8250000000000001,0.275,0.55,3.85,10,match,36.05,301,331,361,390,420,9,9,9,9,9,,,,,,,2,0,2,0,0,44,44,18,,,,,,,,,,,,,,4,1.2688371000112966,4,0.3,0.44999999999999996,16.21932,return,1.7448965000221506,,,,,,,,,,,,,,,,,p304,21,female,up_down_width,2025-11-18_14h35.14.992,exp1,2023.1.0,60.033450627824585,
,,,,,,,,,,,,,,,,4,8.35,9.45,10.55,11.65,0,1.1,0.7000000000000001,0.4,3.7,10,initial,36.05,301,341,380,420,0,9,9,9,9,0,,,,,,,2,0,2,0,0,45,45,21,,,,,,,,,,,,,,4,1.070399299962446,4,0.5,0.35000000000000003,12.61502,return,2.034465300035663,,,,,,,,,,,,,,,,,p304,21,female,up_down_width,2025-11-18_14h35.14.992,exp1,2023.1.0,60.033450627824585,
,,,,,,,,,,,,,,,,3,9.1,10,10.9,0,0,0.9,0.5,0.4,2.2,10,initial,36.05,328,361,393,0,0,9,9,9,0,0,,,,,,,2,0,2,0,0,46,46,15,,,,,,,,,,,,,,2,1.1792890999931842,2,0.45,0.35000000000000003,12.61502,return,1.4508291999809444,,,,,,,,,,,,,,,,,p304,21,female,up_down_width,2025-11-18_14h35.14.992,exp1,2023.1.0,60.033450627824585,
,,,,,,,,,,,,,,,,5,7.8,8.9,10,11.1,12.2,1.1,0.8500000000000001,0.25,4.65,10,initial,36.05,281,321,361,400,440,9,9,9,9,9,,,,,,,2,0,2,0,0,47,47,36,,,,,,,,,,,,,,5,1.0346799000399187,5,0.5,0.15000000000000008,5.40644,return,2.8313988000154495,,,,,,,,,,,,,,,,,p304,21,female,up_down_width,2025-11-18_14h35.14.992,exp1,2023.1.0,60.033450627824585,
,,,,,,,,,,,,,,,,5,8.35,9.175,10,10.825,11.65,0.825,0.575,0.25,3.55,10,match,36.05,301,331,361,390,420,9,9,9,9,9,,,,,,,2,0,2,0,0,48,48,20,,,,,,,,,,,,,,5,0.9492260999977589,5,0.35,0.15000000000000002,5.40644,return,1.6783616999164224,,,,,,,,,,,,,,,,,p304,21,female,up_down_width,2025-11-18_14h35.14.992,exp1,2023.1.0,60.033450627824585,
,,,,,,,,,,,,,,,,4,8.65,9.55,10.45,11.35,0,0.9,0.65,0.25,2.95,10,initial,36.05,312,344,377,409,0,9,9,9,9,0,,,,,,,2,0,2,0,0,49,49,30,,,,,,,,,,,,,,3,0.8629092000192031,3,0.2,0.15000000000000002,5.40644,return,1.5788987999549136,,,,,,,,,,,,,,,,,p304,21,female,up_down_width,2025-11-18_14h35.14.992,exp1,2023.1.0,60.033450627824585,
,,,,,,,,,,,,,,,,4,8.65,9.55,10.45,11.35,0,0.9,0.5,0.4,3.1,10,initial,36.05,312,344,377,409,0,9,9,9,9,0,,,,,,,2,0,2,0,0,50,50,32,,,,,,,,,,,,,,4,1.4815101000713184,4,0.25,0.3,10.81288,return,1.3247868999605998,,,,,,,,,,,,,,,,,p304,21,female,up_down_width,2025-11-18_14h35.14.992,exp1,2023.1.0,60.033450627824585,
,,,,,,,,,,,,,,,,3,7.8,10,12.2,0,0,2.2,1.9500000000000002,0.25,4.65,10,match,36.05,281,361,440,0,0,9,9,9,0,0,,,,,,,2,0,2,0,0,51,51,37,,,,,,,,,,,,,,3,2.1395169000606984,3,0.5,0.15000000000000008,5.40644,return,2.9487311000702903,,,,,,,,,,,,,,,,,p304,21,female,up_down_width,2025-11-18_14h35.14.992,exp1,2023.1.0,60.033450627824585,
,,,,,,,,,,,,,,,,,,,,,,,,,,,,,,,,,,,,,,,,,,,,,2,0,2,0,,,,,,,,,,,,,,,,,,,,,,,,,,,,1337.820883700042,1337.820883700042,1337.820883700042,,,,,,,,,,,,p304,21,female,up_down_width,2025-11-18_14h35.14.992,exp1,2023.1.0,60.033450627824585,
,,,,,,,,,,,,,,,,3,8.2,10,11.8,0,0,1.8,1.55,0.25,3.85,10,match,36.05,296,361,425,0,0,9,9,9,0,0,,,,,,,3,0,3,0,0,0,0,49,,,,,,,,,,,,,,2,1.104065600084141,2,0.3,0.2,7.20859,return,1.4103530999273062,,,,,,,,,,,,,,,,,p304,21,female,up_down_width,2025-11-18_14h35.14.992,exp1,2023.1.0,60.033450627824585,
,,,,,,,,,,,,,,,,4,8.65,9.55,10.45,11.35,0,0.9,0.5,0.4,3.1,10,initial,36.05,312,344,377,409,0,9,9,9,9,0,,,,,,,3,0,3,0,0,1,1,32,,,,,,,,,,,,,,3,1.0507154000224546,3,0.5,0.30000000000000004,10.81288,return,2.319274799898267,,,,,,,,,,,,,,,,,p304,21,female,up_down_width,2025-11-18_14h35.14.992,exp1,2023.1.0,60.033450627824585,
,,,,,,,,,,,,,,,,3,9.3,10,10.7,0,0,0.7,0.44999999999999996,0.25,1.65,10,initial,36.05,335,361,386,0,0,9,9,9,0,0,,,,,,,3,0,3,0,0,2,2,7,,,,,,,,,,,,,,2,1.3237835000036284,2,0.4,0.15000000000000008,5.40644,return,1.9730362999252975,,,,,,,,,,,,,,,,,p304,21,female,up_down_width,2025-11-18_14h35.14.992,exp1,2023.1.0,60.033450627824585,
,,,,,,,,,,,,,,,,3,7.8,10,12.2,0,0,2.2,1.65,0.55,4.95,10,match,36.05,281,361,440,0,0,9,9,9,0,0,,,,,,,3,0,3,0,0,3,3,35,,,,,,,,,,,,,,3,1.0391428999137133,3,0.5,0.35000000000000003,12.61502,return,1.765341900056228,,,,,,,,,,,,,,,,,p304,21,female,up_down_width,2025-11-18_14h35.14.992,exp1,2023.1.0,60.033450627824585,
,,,,,,,,,,,,,,,,5,8.95,9.475,10,10.525,11.05,0.525,0.275,0.25,2.35,10,match,36.05,323,342,361,379,398,9,9,9,9,9,,,,,,,3,0,3,0,0,4,4,25,,,,,,,,,,,,,,4,0.9012534000212327,4,0.45,0.20000000000000007,7.20859,return,1.888436199980788,,,,,,,,,,,,,,,,,p304,21,female,up_down_width,2025-11-18_14h35.14.992,exp1,2023.1.0,60.033450627824585,
,,,,,,,,,,,,,,,,5,8.6,9.3,10,10.7,11.4,0.7,0.44999999999999996,0.25,3.05,10,initial,36.05,310,335,361,386,411,9,9,9,9,9,,,,,,,3,0,3,0,0,5,5,42,,,,,,,,,,,,,,4,1.3190816999413073,4,0.2,0.2,7.20859,return,1.7783523999387398,,,,,,,,,,,,,,,,,p304,21,female,up_down_width,2025-11-18_14h35.14.992,exp1,2023.1.0,60.033450627824585,
,,,,,,,,,,,,,,,,3,8.2,10,11.8,0,0,1.8,1.25,0.55,4.15,10,match,36.05,296,361,425,0,0,9,9,9,0,0,,,,,,,3,0,3,0,0,6,6,47,,,,,,,,,,,,,,3,1.0636142999865115,3,0.3,0.39999999999999997,14.41717,return,1.5325373000232503,,,,,,,,,,,,,,,,,p304,21,female,up_down_width,2025-11-18_14h35.14.992,exp1,2023.1.0,60.033450627824585,
,,,,,,,,,,,,,,,,3,9.3,10,10.7,0,0,0.7,0.1499999999999999,0.55,1.95,10,initial,36.05,335,361,386,0,0,9,9,9,0,0,,,,,,,3,0,3,0,0,7,7,6,,,,,,,,,,,,,,2,1.9649531999602914,2,0.25,0.39999999999999997,14.41717,return,2.8294421000173315,,,,,,,,,,,,,,,,,p304,21,female,up_down_width,2025-11-18_14h35.14.992,exp1,2023.1.0,60.033450627824585,
,,,,,,,,,,,,,,,,5,8.2,9.1,10,10.9,11.8,0.9,0.65,0.25,3.85,10,initial,36.05,296,328,361,393,425,9,9,9,9,9,,,,,,,3,0,3,0,0,8,8,48,,,,,,,,,,,,,,5,1.4817116999765858,5,0.3,0.2,7.20859,return,1.8363640999887139,,,,,,,,,,,,,,,,,p304,21,female,up_down_width,2025-11-18_14h35.14.992,exp1,2023.1.0,60.033450627824585,
,,,,,,,,,,,,,,,,4,8.9,9.633333333333333,10.366666666666667,11.1,0,0.7333333333333333,0.18333333333333326,0.55,2.75,10,match,36.05,321,347,374,400,0,9,9,9,9,0,,,,,,,3,0,3,0,0,9,9,1,,,,,,,,,,,,,,3,1.3327548999805003,3,0.2,0.39999999999999997,14.41717,return,1.9987575000850484,,,,,,,,,,,,,,,,,p304,21,female,up_down_width,2025-11-18_14h35.14.992,exp1,2023.1.0,60.033450627824585,
,,,,,,,,,,,,,,,,5,8.2,9.1,10,10.9,11.8,0.9,0.35,0.55,4.15,10,initial,36.05,296,328,361,393,425,9,9,9,9,9,,,,,,,3,0,3,0,0,10,10,46,,,,,,,,,,,,,,5,1.1104751999955624,5,0.55,0.4,14.41717,return,1.9916886000428349,,,,,,,,,,,,,,,,,p304,21,female,up_down_width,2025-11-18_14h35.14.992,exp1,2023.1.0,60.033450627824585,
,,,,,,,,,,,,,,,,4,8.95,9.65,10.35,11.05,0,0.7,0.44999999999999996,0.25,2.3499999999999996,10,initial,36.05,323,348,373,398,0,9,9,9,9,0,,,,,,,3,0,3,0,0,11,11,24,,,,,,,,,,,,,,3,0.9600161999696866,3,0.4,0.20000000000000007,7.20859,return,1.7201256999978796,,,,,,,,,,,,,,,,,p304,21,female,up_down_width,2025-11-18_14h35.14.992,exp1,2023.1.0,60.033450627824585,
,,,,,,,,,,,,,,,,4,9.3,9.766666666666667,10.233333333333333,10.7,0,0.4666666666666667,0.06666666666666665,0.4,1.8,10,match,36.05,335,352,369,386,0,9,9,9,9,0,,,,,,,3,0,3,0,0,12,12,10,,,,,,,,,,,,,,3,1.3828857000917196,3,0.55,0.35000000000000003,12.61502,return,2.253993400023319,,,,,,,,,,,,,,,,,p304,21,female,up_down_width,2025-11-18_14h35.14.992,exp1,2023.1.0,60.033450627824585,
,,,,,,,,,,,,,,,,3,8.9,10,11.1,0,0,1.1,0.55,0.55,2.75,10,initial,36.05,321,361,400,0,0,9,9,9,0,0,,,,,,,3,0,3,0,0,13,13,0,,,,,,,,,,,,,,2,0.9778446999844164,2,0.5,0.45,16.21932,return,1.7211356000043452,,,,,,,,,,,,,,,,,p304,21,female,up_down_width,2025-11-18_14h35.14.992,exp1,2023.1.0,60.033450627824585,
,,,,,,,,,,,,,,,,5,8.6,9.3,10,10.7,11.4,0.7,0.29999999999999993,0.4,3.1999999999999997,10,initial,36.05,310,335,361,386,411,9,9,9,9,9,,,,,,,3,0,3,0,0,14,14,44,,,,,,,,,,,,,,4,0.865615600021556,4,0.55,0.4,14.41717,return,1.6782294999575242,,,,,,,,,,,,,,,,,p304,21,female,up_down_width,2025-11-18_14h35.14.992,exp1,2023.1.0,60.033450627824585,
,,,,,,,,,,,,,,,,4,8.95,9.65,10.35,11.05,0,0.7,0.1499999999999999,0.55,2.65,10,initial,36.05,323,348,373,398,0,9,9,9,9,0,,,,,,,3,0,3,0,0,15,15,23,,,,,,,,,,,,,,3,1.1158973999554291,3,0.3,0.44999999999999996,16.21932,return,2.9417503000004217,,,,,,,,,,,,,,,,,p304,21,female,up_down_width,2025-11-18_14h35.14.992,exp1,2023.1.0,60.033450627824585,
,,,,,,,,,,,,,,,,3,8.525,10,11.475,0,0,1.475,1.225,0.25,3.2,10,match,36.05,307,361,414,0,0,9,9,9,0,0,,,,,,,3,0,3,0,0,16,16,45,,,,,,,,,,,,,,2,0.8757708000484854,2,0.35,0.2,7.20859,return,1.542970099952072,,,,,,,,,,,,,,,,,p304,21,female,up_down_width,2025-11-18_14h35.14.992,exp1,2023.1.0,60.033450627824585,
,,,,,,,,,,,,,,,,4,8.65,9.55,10.45,11.35,0,0.9,0.65,0.25,2.95,10,initial,36.05,312,344,377,409,0,9,9,9,9,0,,,,,,,3,0,3,0,0,17,17,30,,,,,,,,,,,,,,3,0.9185437000123784,3,0.5,0.20000000000000007,7.20859,return,3.1056338999187574,,,,,,,,,,,,,,,,,p304,21,female,up_down_width,2025-11-18_14h35.14.992,exp1,2023.1.0,60.033450627824585,
,,,,,,,,,,,,,,,,5,7.8,8.9,10,11.1,12.2,1.1,0.7000000000000001,0.4,4.800000000000001,10,initial,36.05,281,321,361,400,440,9,9,9,9,9,,,,,,,3,0,3,0,0,18,18,38,,,,,,,,,,,,,,5,1.165801199967973,5,0.3,0.25,9.01073,return,1.6622208000626415,,,,,,,,,,,,,,,,,p304,21,female,up_down_width,2025-11-18_14h35.14.992,exp1,2023.1.0,60.033450627824585,
,,,,,,,,,,,,,,,,3,8.6,10,11.4,0,0,1.4,1.15,0.25,3.05,10,match,36.05,310,361,411,0,0,9,9,9,0,0,,,,,,,3,0,3,0,0,19,19,43,,,,,,,,,,,,,,2,1.0804156000958756,2,0.55,0.20000000000000007,7.20859,return,3.3730724999913946,,,,,,,,,,,,,,,,,p304,21,female,up_down_width,2025-11-18_14h35.14.992,exp1,2023.1.0,60.033450627824585,
,,,,,,,,,,,,,,,,5,8.275,9.1375,10,10.8625,11.725,0.8625,0.6125,0.25,3.7,10,match,36.05,298,329,361,392,423,9,9,9,9,9,,,,,,,3,0,3,0,0,20,20,22,,,,,,,,,,,,,,4,1.2191997999325395,4,0.4,0.20000000000000007,7.20859,return,2.113621099968441,,,,,,,,,,,,,,,,,p304,21,female,up_down_width,2025-11-18_14h35.14.992,exp1,2023.1.0,60.033450627824585,
,,,,,,,,,,,,,,,,4,9.1,9.7,10.3,10.9,0,0.6000000000000001,0.20000000000000004,0.4,2.2,10,match,36.05,328,350,371,393,0,9,9,9,9,0,,,,,,,3,0,3,0,0,21,21,16,,,,,,,,,,,,,,3,0.982956999912858,3,0.5,0.25000000000000006,9.01073,return,3.4698077000211924,,,,,,,,,,,,,,,,,p304,21,female,up_down_width,2025-11-18_14h35.14.992,exp1,2023.1.0,60.033450627824585,
,,,,,,,,,,,,,,,,3,7.800000000000001,10,12.2,0,0,2.1999999999999997,1.7999999999999998,0.4,4.8,10,match,36.05,281,361,440,0,0,9,9,9,0,0,,,,,,,3,0,3,0,0,22,22,39,,,,,,,,,,,,,,3,1.2903151999926195,3,0.25,0.3,10.81288,return,1.557805999997072,,,,,,,,,,,,,,,,,p304,21,female,up_down_width,2025-11-18_14h35.14.992,exp1,2023.1.0,60.033450627824585,
,,,,,,,,,,,,,,,,4,9.1,9.7,10.3,10.9,0,0.6,0.04999999999999997,0.55,2.35,10,match,36.05,328,350,371,393,0,9,9,9,9,0,,,,,,,3,0,3,0,0,23,23,12,,,,,,,,,,,,,,3,1.0161045000422746,3,0.5,0.4,14.41717,return,3.5507019999204203,,,,,,,,,,,,,,,,,p304,21,female,up_down_width,2025-11-18_14h35.14.992,exp1,2023.1.0,60.033450627824585,
,,,,,,,,,,,,,,,,5,7.8,8.9,10,11.1,12.2,1.1,0.8500000000000001,0.25,4.65,10,initial,36.05,281,321,361,400,440,9,9,9,9,9,,,,,,,3,0,3,0,0,24,24,36,,,,,,,,,,,,,,4,1.0157865999499336,4,0.35,0.25,9.01073,return,1.7897359000053257,,,,,,,,,,,,,,,,,p304,21,female,up_down_width,2025-11-18_14h35.14.992,exp1,2023.1.0,60.033450627824585,
,,,,,,,,,,,,,,,,4,8.35,9.45,10.55,11.65,0,1.1,0.8500000000000001,0.25,3.5500000000000003,10,initial,36.05,301,341,380,420,0,9,9,9,9,0,,,,,,,3,0,3,0,0,25,25,19,,,,,,,,,,,,,,4,1.6575413999380544,4,0.2,0.25,9.01073,return,1.2385145999724045,,,,,,,,,,,,,,,,,p304,21,female,up_down_width,2025-11-18_14h35.14.992,exp1,2023.1.0,60.033450627824585,
,,,,,,,,,,,,,,,,5,8.6,9.3,10,10.7,11.4,0.7,0.1499999999999999,0.55,3.3499999999999996,10,initial,36.05,310,335,361,386,411,9,9,9,9,9,,,,,,,3,0,3,0,0,26,26,40,,,,,,,,,,,,,,4,1.0836097999708727,4,0.55,0.30000000000000004,10.81288,return,2.3841392000904307,,,,,,,,,,,,,,,,,p304,21,female,up_down_width,2025-11-18_14h35.14.992,exp1,2023.1.0,60.033450627824585,
,,,,,,,,,,,,,,,,5,7.8,8.9,10,11.1,12.2,1.1,0.55,0.55,4.95,10,initial,36.05,281,321,361,400,440,9,9,9,9,9,,,,,,,3,0,3,0,0,27,27,34,,,,,,,,,,,,,,5,0.9897194999502972,5,0.45,0.35000000000000003,12.61502,return,1.620824999990873,,,,,,,,,,,,,,,,,p304,21,female,up_down_width,2025-11-18_14h35.14.992,exp1,2023.1.0,60.033450627824585,
,,,,,,,,,,,,,,,,3,8.9,10,11.1,0,0,1.1,0.8500000000000001,0.25,2.45,10,initial,36.05,321,361,400,0,0,9,9,9,0,0,,,,,,,3,0,3,0,0,28,28,2,,,,,,,,,,,,,,2,0.9876733999699354,2,0.55,0.25000000000000006,9.01073,return,2.1305732999462634,,,,,,,,,,,,,,,,,p304,21,female,up_down_width,2025-11-18_14h35.14.992,exp1,2023.1.0,60.033450627824585,
,,,,,,,,,,,,,,,,3,8.9,10,11.1,0,0,1.1,0.7000000000000001,0.4,2.6000000000000005,10,initial,36.05,321,361,400,0,0,9,9,9,0,0,,,,,,,3,0,3,0,0,29,29,4,,,,,,,,,,,,,,3,1.156924800015986,3,0.3,0.3,10.81288,return,1.5570374999660999,,,,,,,,,,,,,,,,,p304,21,female,up_down_width,2025-11-18_14h35.14.992,exp1,2023.1.0,60.033450627824585,
,,,,,,,,,,,,,,,,5,8.65,9.325,10,10.675,11.35,0.675,0.275,0.4,3.1,10,match,36.05,312,336,361,385,409,9,9,9,9,9,,,,,,,3,0,3,0,0,30,30,33,,,,,,,,,,,,,,4,0.8745189000619575,4,0.25,0.3,10.81288,return,1.1901533999480307,,,,,,,,,,,,,,,,,p304,21,female,up_down_width,2025-11-18_14h35.14.992,exp1,2023.1.0,60.033450627824585,
,,,,,,,,,,,,,,,,3,7.8,10,12.2,0,0,2.2,1.9500000000000002,0.25,4.65,10,match,36.05,281,361,440,0,0,9,9,9,0,0,,,,,,,3,0,3,0,0,31,31,37,,,,,,,,,,,,,,2,1.1296093000564724,2,0.25,0.2,7.20859,return,1.1144149999599904,,,,,,,,,,,,,,,,,p304,21,female,up_down_width,2025-11-18_14h35.14.992,exp1,2023.1.0,60.033450627824585,
,,,,,,,,,,,,,,,,5,8.35,9.175,10,10.825,11.65,0.825,0.575,0.25,3.55,10,match,36.05,301,331,361,390,420,9,9,9,9,9,,,,,,,3,0,3,0,0,32,32,20,,,,,,,,,,,,,,4,1.0642006999114528,4,0.4,0.25000000000000006,9.01073,return,2.2849470000946894,,,,,,,,,,,,,,,,,p304,21,female,up_down_width,2025-11-18_14h35.14.992,exp1,2023.1.0,60.033450627824585,
,,,,,,,,,,,,,,,,3,8.6,10,11.4,0,0,1.4,0.85,0.55,3.35,10,match,36.05,310,361,411,0,0,9,9,9,0,0,,,,,,,3,0,3,0,0,33,33,41,,,,,,,,,,,,,,3,1.153944700025022,3,0.3,0.35,12.61502,return,1.7469511999515817,,,,,,,,,,,,,,,,,p304,21,female,up_down_width,2025-11-18_14h35.14.992,exp1,2023.1.0,60.033450627824585,
,,,,,,,,,,,,,,,,4,8.825,9.608333333333333,10.391666666666667,11.175,0,0.7833333333333333,0.5333333333333333,0.25,2.6,10,match,36.05,318,346,375,403,0,9,9,9,9,0,,,,,,,3,0,3,0,0,34,34,5,,,,,,,,,,,,,,3,0.9330365000059828,3,0.25,0.2,7.20859,return,1.0377097999444231,,,,,,,,,,,,,,,,,p304,21,female,up_down_width,2025-11-18_14h35.14.992,exp1,2023.1.0,60.033450627824585,
,,,,,,,,,,,,,,,,4,9.1,9.7,10.3,10.9,0,0.5999999999999999,0.3499999999999999,0.25,2.05,10,match,36.05,328,350,371,393,0,9,9,9,9,0,,,,,,,3,0,3,0,0,35,35,14,,,,,,,,,,,,,,3,0.7794554999563843,3,0.25,0.2,7.20859,return,1.0510926999850199,,,,,,,,,,,,,,,,,p304,21,female,up_down_width,2025-11-18_14h35.14.992,exp1,2023.1.0,60.033450627824585,
,,,,,,,,,,,,,,,,4,8.35,9.45,10.55,11.65,0,1.1,0.55,0.55,3.8500000000000005,10,initial,36.05,301,341,380,420,0,9,9,9,9,0,,,,,,,3,0,3,0,0,36,36,17,,,,,,,,,,,,,,4,1.1217137000057846,4,0.2,0.35,12.61502,return,1.8130469999741763,,,,,,,,,,,,,,,,,p304,21,female,up_down_width,2025-11-18_14h35.14.992,exp1,2023.1.0,60.033450627824585,
,,,,,,,,,,,,,,,,5,8.65,9.325,10,10.675,11.35,0.675,0.42500000000000004,0.25,2.95,10,match,36.05,312,336,361,385,409,9,9,9,9,9,,,,,,,3,0,3,0,0,37,37,31,,,,,,,,,,,,,,4,0.9948456999845803,4,0.5,0.15000000000000008,5.40644,return,2.538830399978906,,,,,,,,,,,,,,,,,p304,21,female,up_down_width,2025-11-18_14h35.14.992,exp1,2023.1.0,60.033450627824585,
,,,,,,,,,,,,,,,,4,8.9,9.633333333333333,10.366666666666667,11.1,0,0.7333333333333334,0.4833333333333334,0.25,2.45,10,match,36.05,321,347,374,400,0,9,9,9,9,0,,,,,,,3,0,3,0,0,38,38,3,,,,,,,,,,,,,,3,1.1575572999427095,3,0.2,0.25,9.01073,return,1.830769499996677,,,,,,,,,,,,,,,,,p304,21,female,up_down_width,2025-11-18_14h35.14.992,exp1,2023.1.0,60.033450627824585,
,,,,,,,,,,,,,,,,4,8.65,9.55,10.45,11.35,0,0.9,0.35,0.55,3.25,10,initial,36.05,312,344,377,409,0,9,9,9,9,0,,,,,,,3,0,3,0,0,39,39,28,,,,,,,,,,,,,,3,2.0069871000014246,3,0.25,0.39999999999999997,14.41717,return,1.7811819000635296,,,,,,,,,,,,,,,,,p304,21,female,up_down_width,2025-11-18_14h35.14.992,exp1,2023.1.0,60.033450627824585,
,,,,,,,,,,,,,,,,3,8.2,10,11.8,0,0,1.7999999999999998,1.4,0.4,4,10,match,36.05,296,361,425,0,0,9,9,9,0,0,,,,,,,3,0,3,0,0,40,40,51,,,,,,,,,,,,,,2,1.2685725999763235,2,0.2,0.39999999999999997,14.41717,return,2.673196899937466,,,,,,,,,,,,,,,,,p304,21,female,up_down_width,2025-11-18_14h35.14.992,exp1,2023.1.0,60.033450627824585,
,,,,,,,,,,,,,,,,3,9.3,10,10.7,0,0,0.7,0.29999999999999993,0.4,1.8,10,initial,36.05,335,361,386,0,0,9,9,9,0,0,,,,,,,3,0,3,0,0,41,41,9,,,,,,,,,,,,,,2,1.1072078000288457,2,0.2,0.39999999999999997,14.41717,return,2.0550590999191627,,,,,,,,,,,,,,,,,p304,21,female,up_down_width,2025-11-18_14h35.14.992,exp1,2023.1.0,60.033450627824585,
,,,,,,,,,,,,,,,,3,9.1,10,10.9,0,0,0.9,0.35,0.55,2.35,10,initial,36.05,328,361,393,0,0,9,9,9,0,0,,,,,,,3,0,3,0,0,42,42,11,,,,,,,,,,,,,,2,0.9706155000021681,2,0.4,0.45,16.21932,return,1.0427987000439316,,,,,,,,,,,,,,,,,p304,21,female,up_down_width,2025-11-18_14h35.14.992,exp1,2023.1.0,60.033450627824585,
,,,,,,,,,,,,,,,,4,8.95,9.65,10.35,11.05,0,0.7,0.29999999999999993,0.4,2.5,10,initial,36.05,323,348,373,398,0,9,9,9,9,0,,,,,,,3,0,3,0,0,43,43,26,,,,,,,,,,,,,,3,0.998288800008595,3,0.45,0.35000000000000003,12.61502,return,2.9416178999235854,,,,,,,,,,,,,,,,,p304,21,female,up_down_width,2025-11-18_14h35.14.992,exp1,2023.1.0,60.033450627824585,
,,,,,,,,,,,,,,,,4,9.3,9.766666666666667,10.233333333333333,10.7,0,0.4666666666666667,0.21666666666666665,0.25,1.65,10,match,36.05,335,352,369,386,0,9,9,9,9,0,,,,,,,3,0,3,0,0,44,44,8,,,,,,,,,,,,,,3,0.9904400000814348,3,0.2,0.2,7.20859,return,1.5422929000342265,,,,,,,,,,,,,,,,,p304,21,female,up_down_width,2025-11-18_14h35.14.992,exp1,2023.1.0,60.033450627824585,
,,,,,,,,,,,,,,,,5,8.2,9.1,10,10.9,11.8,0.9,0.5,0.4,4,10,initial,36.05,296,328,361,393,425,9,9,9,9,9,,,,,,,3,0,3,0,0,45,45,50,,,,,,,,,,,,,,5,2.725896899937652,5,0.3,0.35,12.61502,return,1.4470577000174671,,,,,,,,,,,,,,,,,p304,21,female,up_down_width,2025-11-18_14h35.14.992,exp1,2023.1.0,60.033450627824585,
,,,,,,,,,,,,,,,,4,8.35,9.45,10.55,11.65,0,1.1,0.7000000000000001,0.4,3.7,10,initial,36.05,301,341,380,420,0,9,9,9,9,0,,,,,,,3,0,3,0,0,46,46,21,,,,,,,,,,,,,,4,0.9586987000657246,4,0.55,0.30000000000000004,10.81288,return,2.2315361000364646,,,,,,,,,,,,,,,,,p304,21,female,up_down_width,2025-11-18_14h35.14.992,exp1,2023.1.0,60.033450627824585,
,,,,,,,,,,,,,,,,5,8.95,9.475,10,10.525,11.05,0.525,0.125,0.4,2.5,10,match,36.05,323,342,361,379,398,9,9,9,9,9,,,,,,,3,0,3,0,0,47,47,27,,,,,,,,,,,,,,4,1.1630578000331298,4,0.5,0.25000000000000006,9.01073,return,2.2678816000698134,,,,,,,,,,,,,,,,,p304,21,female,up_down_width,2025-11-18_14h35.14.992,exp1,2023.1.0,60.033450627824585,
,,,,,,,,,,,,,,,,3,9.1,10,10.9,0,0,0.9,0.65,0.25,2.05,10,initial,36.05,328,361,393,0,0,9,9,9,0,0,,,,,,,3,0,3,0,0,48,48,13,,,,,,,,,,,,,,2,1.143851300003007,2,0.55,0.20000000000000007,7.20859,return,2.6489915000274777,,,,,,,,,,,,,,,,,p304,21,female,up_down_width,2025-11-18_14h35.14.992,exp1,2023.1.0,60.033450627824585,
,,,,,,,,,,,,,,,,3,9.1,10,10.9,0,0,0.9,0.5,0.4,2.2,10,initial,36.05,328,361,393,0,0,9,9,9,0,0,,,,,,,3,0,3,0,0,49,49,15,,,,,,,,,,,,,,2,1.7571257000090554,2,0.5,0.25000000000000006,9.01073,return,2.5660213000373915,,,,,,,,,,,,,,,,,p304,21,female,up_down_width,2025-11-18_14h35.14.992,exp1,2023.1.0,60.033450627824585,
,,,,,,,,,,,,,,,,5,8.65,9.325,10,10.675,11.35,0.675,0.125,0.55,3.25,10,match,36.05,312,336,361,385,409,9,9,9,9,9,,,,,,,3,0,3,0,0,50,50,29,,,,,,,,,,,,,,3,1.1382229999871925,3,0.2,0.39999999999999997,14.41717,return,2.227773299906403,,,,,,,,,,,,,,,,,p304,21,female,up_down_width,2025-11-18_14h35.14.992,exp1,2023.1.0,60.033450627824585,
,,,,,,,,,,,,,,,,5,8.35,9.175,10,10.825,11.65,0.8250000000000001,0.275,0.55,3.85,10,match,36.05,301,331,361,390,420,9,9,9,9,9,,,,,,,3,0,3,0,0,51,51,18,,,,,,,,,,,,,,4,1.0829550999915227,4,0.3,0.39999999999999997,14.41717,return,2.079235599958338,,,,,,,,,,,,,,,,,p304,21,female,up_down_width,2025-11-18_14h35.14.992,exp1,2023.1.0,60.033450627824585,
,,,,,,,,,,,,,,,,,,,,,,,,,,,,,,,,,,,,,,,,,,,,,3,0,3,0,,,,,,,,,,,,,,,,,,,,,,,,,,,,1639.087388199987,1639.087388199987,1639.087388199987,,,,,,,,,,,,p304,21,female,up_down_width,2025-11-18_14h35.14.992,exp1,2023.1.0,60.033450627824585,
,,,,,,,,,,,,,,,,5,7.8,8.9,10,11.1,12.2,1.1,0.55,0.55,4.95,10,initial,36.05,281,321,361,400,440,9,9,9,9,9,,,,,,,4,0,4,0,0,0,0,34,,,,,,,,,,,,,,5,1.3191070000175387,5,0.5,0.45,16.21932,return,1.2342359999893233,,,,,,,,,,,,,,,,,p304,21,female,up_down_width,2025-11-18_14h35.14.992,exp1,2023.1.0,60.033450627824585,
,,,,,,,,,,,,,,,,5,8.6,9.3,10,10.7,11.4,0.7,0.1499999999999999,0.55,3.3499999999999996,10,initial,36.05,310,335,361,386,411,9,9,9,9,9,,,,,,,4,0,4,0,0,1,1,40,,,,,,,,,,,,,,3,1.1563824999611825,3,0.25,0.3,10.81288,return,1.6196306000929326,,,,,,,,,,,,,,,,,p304,21,female,up_down_width,2025-11-18_14h35.14.992,exp1,2023.1.0,60.033450627824585,
,,,,,,,,,,,,,,,,3,8.2,10,11.8,0,0,1.7999999999999998,1.4,0.4,4,10,match,36.05,296,361,425,0,0,9,9,9,0,0,,,,,,,4,0,4,0,0,2,2,51,,,,,,,,,,,,,,2,1.1011957000009716,2,0.55,0.35000000000000003,12.61502,return,2.2707407000707462,,,,,,,,,,,,,,,,,p304,21,female,up_down_width,2025-11-18_14h35.14.992,exp1,2023.1.0,60.033450627824585,
,,,,,,,,,,,,,,,,3,7.8,10,12.2,0,0,2.2,1.9500000000000002,0.25,4.65,10,match,36.05,281,361,440,0,0,9,9,9,0,0,,,,,,,4,0,4,0,0,3,3,37,,,,,,,,,,,,,,2,1.2684858000138775,2,0.4,0.20000000000000007,7.20859,return,1.6488211000105366,,,,,,,,,,,,,,,,,p304,21,female,up_down_width,2025-11-18_14h35.14.992,exp1,2023.1.0,60.033450627824585,
,,,,,,,,,,,,,,,,4,8.35,9.45,10.55,11.65,0,1.1,0.8500000000000001,0.25,3.5500000000000003,10,initial,36.05,301,341,380,420,0,9,9,9,9,0,,,,,,,4,0,4,0,0,4,4,19,,,,,,,,,,,,,,3,1.4427856999682263,3,0.35,0.2,7.20859,return,1.6717258000280708,,,,,,,,,,,,,,,,,p304,21,female,up_down_width,2025-11-18_14h35.14.992,exp1,2023.1.0,60.033450627824585,
,,,,,,,,,,,,,,,,4,8.35,9.45,10.55,11.65,0,1.1,0.7000000000000001,0.4,3.7,10,initial,36.05,301,341,380,420,0,9,9,9,9,0,,,,,,,4,0,4,0,0,5,5,21,,,,,,,,,,,,,,3,1.1590078000444919,3,0.35,0.3,10.81288,return,1.3045341999968514,,,,,,,,,,,,,,,,,p304,21,female,up_down_width,2025-11-18_14h35.14.992,exp1,2023.1.0,60.033450627824585,
,,,,,,,,,,,,,,,,3,8.6,10,11.4,0,0,1.4,0.85,0.55,3.35,10,match,36.05,310,361,411,0,0,9,9,9,0,0,,,,,,,4,0,4,0,0,6,6,41,,,,,,,,,,,,,,2,0.957060500048101,2,0.4,0.45,16.21932,return,1.3179134000092745,,,,,,,,,,,,,,,,,p304,21,female,up_down_width,2025-11-18_14h35.14.992,exp1,2023.1.0,60.033450627824585,
,,,,,,,,,,,,,,,,3,9.1,10,10.9,0,0,0.9,0.65,0.25,2.05,10,initial,36.05,328,361,393,0,0,9,9,9,0,0,,,,,,,4,0,4,0,0,7,7,13,,,,,,,,,,,,,,2,0.9797383999684826,2,0.25,0.2,7.20859,return,1.0830619999906048,,,,,,,,,,,,,,,,,p304,21,female,up_down_width,2025-11-18_14h35.14.992,exp1,2023.1.0,60.033450627824585,
,,,,,,,,,,,,,,,,3,9.1,10,10.9,0,0,0.9,0.5,0.4,2.2,10,initial,36.05,328,361,393,0,0,9,9,9,0,0,,,,,,,4,0,4,0,0,8,8,15,,,,,,,,,,,,,,2,0.9688303999137133,2,0.55,0.30000000000000004,10.81288,return,2.767669399967417,,,,,,,,,,,,,,,,,p304,21,female,up_down_width,2025-11-18_14h35.14.992,exp1,2023.1.0,60.033450627824585,
,,,,,,,,,,,,,,,,5,8.2,9.1,10,10.9,11.8,0.9,0.65,0.25,3.85,10,initial,36.05,296,328,361,393,425,9,9,9,9,9,,,,,,,4,0,4,0,0,9,9,48,,,,,,,,,,,,,,4,1.1309281999710947,4,0.5,0.20000000000000007,7.20859,return,2.349235099973157,,,,,,,,,,,,,,,,,p304,21,female,up_down_width,2025-11-18_14h35.14.992,exp1,2023.1.0,60.033450627824585,
,,,,,,,,,,,,,,,,3,7.800000000000001,10,12.2,0,0,2.1999999999999997,1.7999999999999998,0.4,4.8,10,match,36.05,281,361,440,0,0,9,9,9,0,0,,,,,,,4,0,4,0,0,10,10,39,,,,,,,,,,,,,,3,0.9943688000785187,3,0.25,0.3,10.81288,return,2.521400999976322,,,,,,,,,,,,,,,,,p304,21,female,up_down_width,2025-11-18_14h35.14.992,exp1,2023.1.0,60.033450627824585,
,,,,,,,,,,,,,,,,4,8.9,9.633333333333333,10.366666666666667,11.1,0,0.7333333333333333,0.18333333333333326,0.55,2.75,10,match,36.05,321,347,374,400,0,9,9,9,9,0,,,,,,,4,0,4,0,0,11,11,1,,,,,,,,,,,,,,3,1.2269669000525028,3,0.25,0.44999999999999996,16.21932,return,1.9605382999870926,,,,,,,,,,,,,,,,,p304,21,female,up_down_width,2025-11-18_14h35.14.992,exp1,2023.1.0,60.033450627824585,
,,,,,,,,,,,,,,,,3,8.525,10,11.475,0,0,1.475,1.225,0.25,3.2,10,match,36.05,307,361,414,0,0,9,9,9,0,0,,,,,,,4,0,4,0,0,12,12,45,,,,,,,,,,,,,,2,0.9570698000025004,2,0.2,0.2,7.20859,return,1.142894099932164,,,,,,,,,,,,,,,,,p304,21,female,up_down_width,2025-11-18_14h35.14.992,exp1,2023.1.0,60.033450627824585,
,,,,,,,,,,,,,,,,5,7.8,8.9,10,11.1,12.2,1.1,0.8500000000000001,0.25,4.65,10,initial,36.05,281,321,361,400,440,9,9,9,9,9,,,,,,,4,0,4,0,0,13,13,36,,,,,,,,,,,,,,4,0.9437325999606401,4,0.45,0.20000000000000007,7.20859,return,1.9776053000241518,,,,,,,,,,,,,,,,,p304,21,female,up_down_width,2025-11-18_14h35.14.992,exp1,2023.1.0,60.033450627824585,
,,,,,,,,,,,,,,,,4,8.35,9.45,10.55,11.65,0,1.1,0.55,0.55,3.8500000000000005,10,initial,36.05,301,341,380,420,0,9,9,9,9,0,,,,,,,4,0,4,0,0,14,14,17,,,,,,,,,,,,,,3,1.0959781999699771,3,0.4,0.45,16.21932,return,1.8342528999783099,,,,,,,,,,,,,,,,,p304,21,female,up_down_width,2025-11-18_14h35.14.992,exp1,2023.1.0,60.033450627824585,
,,,,,,,,,,,,,,,,4,9.3,9.766666666666667,10.233333333333333,10.7,0,0.4666666666666667,0.21666666666666665,0.25,1.65,10,match,36.05,335,352,369,386,0,9,9,9,9,0,,,,,,,4,0,4,0,0,15,15,8,,,,,,,,,,,,,,3,0.9197533999104053,3,0.55,0.20000000000000007,7.20859,return,2.6912534999428317,,,,,,,,,,,,,,,,,p304,21,female,up_down_width,2025-11-18_14h35.14.992,exp1,2023.1.0,60.033450627824585,
,,,,,,,,,,,,,,,,4,8.9,9.633333333333333,10.366666666666667,11.1,0,0.7333333333333334,0.4833333333333334,0.25,2.45,10,match,36.05,321,347,374,400,0,9,9,9,9,0,,,,,,,4,0,4,0,0,16,16,3,,,,,,,,,,,,,,3,1.2158940000226721,3,0.4,0.30000000000000004,10.81288,return,1.5184444999322295,,,,,,,,,,,,,,,,,p304,21,female,up_down_width,2025-11-18_14h35.14.992,exp1,2023.1.0,60.033450627824585,
,,,,,,,,,,,,,,,,3,9.1,10,10.9,0,0,0.9,0.35,0.55,2.35,10,initial,36.05,328,361,393,0,0,9,9,9,0,0,,,,,,,4,0,4,0,0,17,17,11,,,,,,,,,,,,,,2,0.942772600101307,2,0.35,0.39999999999999997,14.41717,return,1.7196040999842808,,,,,,,,,,,,,,,,,p304,21,female,up_down_width,2025-11-18_14h35.14.992,exp1,2023.1.0,60.033450627824585,
,,,,,,,,,,,,,,,,3,7.8,10,12.2,0,0,2.2,1.65,0.55,4.95,10,match,36.05,281,361,440,0,0,9,9,9,0,0,,,,,,,4,0,4,0,0,18,18,35,,,,,,,,,,,,,,2,1.0945000000065193,2,0.3,0.44999999999999996,16.21932,return,1.8963342000497505,,,,,,,,,,,,,,,,,p304,21,female,up_down_width,2025-11-18_14h35.14.992,exp1,2023.1.0,60.033450627824585,
,,,,,,,,,,,,,,,,5,8.35,9.175,10,10.825,11.65,0.8250000000000001,0.275,0.55,3.85,10,match,36.05,301,331,361,390,420,9,9,9,9,9,,,,,,,4,0,4,0,0,19,19,18,,,,,,,,,,,,,,4,1.3159420000156388,4,0.5,0.45,16.21932,return,1.2159805999835953,,,,,,,,,,,,,,,,,p304,21,female,up_down_width,2025-11-18_14h35.14.992,exp1,2023.1.0,60.033450627824585,
,,,,,,,,,,,,,,,,5,8.275,9.1375,10,10.8625,11.725,0.8625,0.6125,0.25,3.7,10,match,36.05,298,329,361,392,423,9,9,9,9,9,,,,,,,4,0,4,0,0,20,20,22,,,,,,,,,,,,,,4,1.9370835999725387,4,0.5,0.25000000000000006,9.01073,return,2.17984019999858,,,,,,,,,,,,,,,,,p304,21,female,up_down_width,2025-11-18_14h35.14.992,exp1,2023.1.0,60.033450627824585,
,,,,,,,,,,,,,,,,5,8.2,9.1,10,10.9,11.8,0.9,0.35,0.55,4.15,10,initial,36.05,296,328,361,393,425,9,9,9,9,9,,,,,,,4,0,4,0,0,21,21,46,,,,,,,,,,,,,,4,0.9470976999728009,4,0.3,0.44999999999999996,16.21932,return,1.6929147000191733,,,,,,,,,,,,,,,,,p304,21,female,up_down_width,2025-11-18_14h35.14.992,exp1,2023.1.0,60.033450627824585,
,,,,,,,,,,,,,,,,5,8.6,9.3,10,10.7,11.4,0.7,0.44999999999999996,0.25,3.05,10,initial,36.05,310,335,361,386,411,9,9,9,9,9,,,,,,,4,0,4,0,0,22,22,42,,,,,,,,,,,,,,4,1.0397434999467805,4,0.55,0.20000000000000007,7.20859,return,2.54881489998661,,,,,,,,,,,,,,,,,p304,21,female,up_down_width,2025-11-18_14h35.14.992,exp1,2023.1.0,60.033450627824585,
,,,,,,,,,,,,,,,,4,8.65,9.55,10.45,11.35,0,0.9,0.5,0.4,3.1,10,initial,36.05,312,344,377,409,0,9,9,9,9,0,,,,,,,4,0,4,0,0,23,23,32,,,,,,,,,,,,,,3,1.3502373000374064,3,0.45,0.25000000000000006,9.01073,return,1.5677978000603616,,,,,,,,,,,,,,,,,p304,21,female,up_down_width,2025-11-18_14h35.14.992,exp1,2023.1.0,60.033450627824585,
,,,,,,,,,,,,,,,,4,8.95,9.65,10.35,11.05,0,0.7,0.1499999999999999,0.55,2.65,10,initial,36.05,323,348,373,398,0,9,9,9,9,0,,,,,,,4,0,4,0,0,24,24,23,,,,,,,,,,,,,,3,0.990971100050956,3,0.45,0.5,18.02146,return,1.157582200015895,,,,,,,,,,,,,,,,,p304,21,female,up_down_width,2025-11-18_14h35.14.992,exp1,2023.1.0,60.033450627824585,
,,,,,,,,,,,,,,,,5,8.35,9.175,10,10.825,11.65,0.825,0.575,0.25,3.55,10,match,36.05,301,331,361,390,420,9,9,9,9,9,,,,,,,4,0,4,0,0,25,25,20,,,,,,,,,,,,,,5,1.2205468999454752,5,0.3,0.2,7.20859,return,1.3936680000042543,,,,,,,,,,,,,,,,,p304,21,female,up_down_width,2025-11-18_14h35.14.992,exp1,2023.1.0,60.033450627824585,
,,,,,,,,,,,,,,,,4,9.1,9.7,10.3,10.9,0,0.5999999999999999,0.3499999999999999,0.25,2.05,10,match,36.05,328,350,371,393,0,9,9,9,9,0,,,,,,,4,0,4,0,0,26,26,14,,,,,,,,,,,,,,4,1.4992604999570176,4,0.5,0.20000000000000007,7.20859,return,2.207756199990399,,,,,,,,,,,,,,,,,p304,21,female,up_down_width,2025-11-18_14h35.14.992,exp1,2023.1.0,60.033450627824585,
,,,,,,,,,,,,,,,,4,8.825,9.608333333333333,10.391666666666667,11.175,0,0.7833333333333333,0.5333333333333333,0.25,2.6,10,match,36.05,318,346,375,403,0,9,9,9,9,0,,,,,,,4,0,4,0,0,27,27,5,,,,,,,,,,,,,,3,0.8518584999255836,3,0.4,0.15000000000000008,5.40644,return,1.80916950001847,,,,,,,,,,,,,,,,,p304,21,female,up_down_width,2025-11-18_14h35.14.992,exp1,2023.1.0,60.033450627824585,
,,,,,,,,,,,,,,,,4,9.3,9.766666666666667,10.233333333333333,10.7,0,0.4666666666666667,0.06666666666666665,0.4,1.8,10,match,36.05,335,352,369,386,0,9,9,9,9,0,,,,,,,4,0,4,0,0,28,28,10,,,,,,,,,,,,,,3,1.044478099909611,3,0.45,0.30000000000000004,10.81288,return,1.7217873999616131,,,,,,,,,,,,,,,,,p304,21,female,up_down_width,2025-11-18_14h35.14.992,exp1,2023.1.0,60.033450627824585,
,,,,,,,,,,,,,,,,5,8.95,9.475,10,10.525,11.05,0.525,0.125,0.4,2.5,10,match,36.05,323,342,361,379,398,9,9,9,9,9,,,,,,,4,0,4,0,0,29,29,27,,,,,,,,,,,,,,4,0.8437876000534743,4,0.4,0.25000000000000006,9.01073,return,2.6495207000989467,,,,,,,,,,,,,,,,,p304,21,female,up_down_width,2025-11-18_14h35.14.992,exp1,2023.1.0,60.033450627824585,
,,,,,,,,,,,,,,,,5,8.65,9.325,10,10.675,11.35,0.675,0.42500000000000004,0.25,2.95,10,match,36.05,312,336,361,385,409,9,9,9,9,9,,,,,,,4,0,4,0,0,30,30,31,,,,,,,,,,,,,,4,0.9848821999039501,4,0.4,0.20000000000000007,7.20859,return,1.6488090000348166,,,,,,,,,,,,,,,,,p304,21,female,up_down_width,2025-11-18_14h35.14.992,exp1,2023.1.0,60.033450627824585,
,,,,,,,,,,,,,,,,5,8.2,9.1,10,10.9,11.8,0.9,0.5,0.4,4,10,initial,36.05,296,328,361,393,425,9,9,9,9,9,,,,,,,4,0,4,0,0,31,31,50,,,,,,,,,,,,,,4,1.048823400051333,4,0.3,0.35,12.61502,return,1.4053584999637678,,,,,,,,,,,,,,,,,p304,21,female,up_down_width,2025-11-18_14h35.14.992,exp1,2023.1.0,60.033450627824585,
,,,,,,,,,,,,,,,,5,8.65,9.325,10,10.675,11.35,0.675,0.275,0.4,3.1,10,match,36.05,312,336,361,385,409,9,9,9,9,9,,,,,,,4,0,4,0,0,32,32,33,,,,,,,,,,,,,,4,1.0470472000306472,4,0.5,0.30000000000000004,10.81288,return,2.0603634000290185,,,,,,,,,,,,,,,,,p304,21,female,up_down_width,2025-11-18_14h35.14.992,exp1,2023.1.0,60.033450627824585,
,,,,,,,,,,,,,,,,4,8.65,9.55,10.45,11.35,0,0.9,0.65,0.25,2.95,10,initial,36.05,312,344,377,409,0,9,9,9,9,0,,,,,,,4,0,4,0,0,33,33,30,,,,,,,,,,,,,,3,1.032324899919331,3,0.25,0.15000000000000002,5.40644,return,1.9657791999634355,,,,,,,,,,,,,,,,,p304,21,female,up_down_width,2025-11-18_14h35.14.992,exp1,2023.1.0,60.033450627824585,
,,,,,,,,,,,,,,,,3,8.2,10,11.8,0,0,1.8,1.55,0.25,3.85,10,match,36.05,296,361,425,0,0,9,9,9,0,0,,,,,,,4,0,4,0,0,34,34,49,,,,,,,,,,,,,,2,1.7444610999664292,2,0.45,0.15000000000000008,5.40644,return,2.4736142000183463,,,,,,,,,,,,,,,,,p304,21,female,up_down_width,2025-11-18_14h35.14.992,exp1,2023.1.0,60.033450627824585,
,,,,,,,,,,,,,,,,5,8.95,9.475,10,10.525,11.05,0.525,0.275,0.25,2.35,10,match,36.05,323,342,361,379,398,9,9,9,9,9,,,,,,,4,0,4,0,0,35,35,25,,,,,,,,,,,,,,3,1.027824699995108,3,0.25,0.2,7.20859,return,1.0829860999947414,,,,,,,,,,,,,,,,,p304,21,female,up_down_width,2025-11-18_14h35.14.992,exp1,2023.1.0,60.033450627824585,
,,,,,,,,,,,,,,,,4,9.1,9.7,10.3,10.9,0,0.6000000000000001,0.20000000000000004,0.4,2.2,10,match,36.05,328,350,371,393,0,9,9,9,9,0,,,,,,,4,0,4,0,0,36,36,16,,,,,,,,,,,,,,3,0.9199548999313265,3,0.35,0.3,10.81288,return,1.6013383999234065,,,,,,,,,,,,,,,,,p304,21,female,up_down_width,2025-11-18_14h35.14.992,exp1,2023.1.0,60.033450627824585,
,,,,,,,,,,,,,,,,5,8.6,9.3,10,10.7,11.4,0.7,0.29999999999999993,0.4,3.1999999999999997,10,initial,36.05,310,335,361,386,411,9,9,9,9,9,,,,,,,4,0,4,0,0,37,37,44,,,,,,,,,,,,,,4,0.843360299943015,4,0.55,0.35000000000000003,12.61502,return,1.8965739998966455,,,,,,,,,,,,,,,,,p304,21,female,up_down_width,2025-11-18_14h35.14.992,exp1,2023.1.0,60.033450627824585,
,,,,,,,,,,,,,,,,4,8.95,9.65,10.35,11.05,0,0.7,0.29999999999999993,0.4,2.5,10,initial,36.05,323,348,373,398,0,9,9,9,9,0,,,,,,,4,0,4,0,0,38,38,26,,,,,,,,,,,,,,3,0.9544426000211388,3,0.55,0.30000000000000004,10.81288,return,2.034329399932176,,,,,,,,,,,,,,,,,p304,21,female,up_down_width,2025-11-18_14h35.14.992,exp1,2023.1.0,60.033450627824585,
,,,,,,,,,,,,,,,,3,8.2,10,11.8,0,0,1.8,1.25,0.55,4.15,10,match,36.05,296,361,425,0,0,9,9,9,0,0,,,,,,,4,0,4,0,0,39,39,47,,,,,,,,,,,,,,2,1.2089498999994248,2,0.35,0.49999999999999994,18.02146,return,1.6396752999862656,,,,,,,,,,,,,,,,,p304,21,female,up_down_width,2025-11-18_14h35.14.992,exp1,2023.1.0,60.033450627824585,
,,,,,,,,,,,,,,,,4,9.1,9.7,10.3,10.9,0,0.6,0.04999999999999997,0.55,2.35,10,match,36.05,328,350,371,393,0,9,9,9,9,0,,,,,,,4,0,4,0,0,40,40,12,,,,,,,,,,,,,,3,1.001516499905847,3,0.55,0.5,18.02146,return,1.4074018000392243,,,,,,,,,,,,,,,,,p304,21,female,up_down_width,2025-11-18_14h35.14.992,exp1,2023.1.0,60.033450627824585,
,,,,,,,,,,,,,,,,5,8.65,9.325,10,10.675,11.35,0.675,0.125,0.55,3.25,10,match,36.05,312,336,361,385,409,9,9,9,9,9,,,,,,,4,0,4,0,0,41,41,29,,,,,,,,,,,,,,4,1.0431564000900835,4,0.2,0.44999999999999996,16.21932,return,2.536730300053023,,,,,,,,,,,,,,,,,p304,21,female,up_down_width,2025-11-18_14h35.14.992,exp1,2023.1.0,60.033450627824585,
,,,,,,,,,,,,,,,,5,7.8,8.9,10,11.1,12.2,1.1,0.7000000000000001,0.4,4.800000000000001,10,initial,36.05,281,321,361,400,440,9,9,9,9,9,,,,,,,4,0,4,0,0,42,42,38,,,,,,,,,,,,,,5,1.503991200006567,5,0.45,0.35000000000000003,12.61502,return,1.427209599991329,,,,,,,,,,,,,,,,,p304,21,female,up_down_width,2025-11-18_14h35.14.992,exp1,2023.1.0,60.033450627824585,
,,,,,,,,,,,,,,,,3,8.9,10,11.1,0,0,1.1,0.55,0.55,2.75,10,initial,36.05,321,361,400,0,0,9,9,9,0,0,,,,,,,4,0,4,0,0,43,43,0,,,,,,,,,,,,,,2,0.9508033000165597,2,0.4,0.45,16.21932,return,1.1684431000612676,,,,,,,,,,,,,,,,,p304,21,female,up_down_width,2025-11-18_14h35.14.992,exp1,2023.1.0,60.033450627824585,
,,,,,,,,,,,,,,,,3,9.3,10,10.7,0,0,0.7,0.1499999999999999,0.55,1.95,10,initial,36.05,335,361,386,0,0,9,9,9,0,0,,,,,,,4,0,4,0,0,44,44,6,,,,,,,,,,,,,,3,1.625066899927333,3,0.35,0.44999999999999996,16.21932,return,1.8160738000879064,,,,,,,,,,,,,,,,,p304,21,female,up_down_width,2025-11-18_14h35.14.992,exp1,2023.1.0,60.033450627824585,
,,,,,,,,,,,,,,,,3,9.3,10,10.7,0,0,0.7,0.29999999999999993,0.4,1.8,10,initial,36.05,335,361,386,0,0,9,9,9,0,0,,,,,,,4,0,4,0,0,45,45,9,,,,,,,,,,,,,,2,0.9045638999668881,2,0.5,0.30000000000000004,10.81288,return,1.5716931000351906,,,,,,,,,,,,,,,,,p304,21,female,up_down_width,2025-11-18_14h35.14.992,exp1,2023.1.0,60.033450627824585,
,,,,,,,,,,,,,,,,3,8.9,10,11.1,0,0,1.1,0.7000000000000001,0.4,2.6000000000000005,10,initial,36.05,321,361,400,0,0,9,9,9,0,0,,,,,,,4,0,4,0,0,46,46,4,,,,,,,,,,,,,,2,1.0315694999881089,2,0.35,0.3,10.81288,return,1.3250827000010759,,,,,,,,,,,,,,,,,p304,21,female,up_down_width,2025-11-18_14h35.14.992,exp1,2023.1.0,60.033450627824585,
,,,,,,,,,,,,,,,,4,8.65,9.55,10.45,11.35,0,0.9,0.35,0.55,3.25,10,initial,36.05,312,344,377,409,0,9,9,9,9,0,,,,,,,4,0,4,0,0,47,47,28,,,,,,,,,,,,,,3,0.8177412999793887,3,0.2,0.39999999999999997,14.41717,return,1.6953977999510244,,,,,,,,,,,,,,,,,p304,21,female,up_down_width,2025-11-18_14h35.14.992,exp1,2023.1.0,60.033450627824585,
,,,,,,,,,,,,,,,,3,8.9,10,11.1,0,0,1.1,0.8500000000000001,0.25,2.45,10,initial,36.05,321,361,400,0,0,9,9,9,0,0,,,,,,,4,0,4,0,0,48,48,2,,,,,,,,,,,,,,2,0.8197775000007823,2,0.5,0.20000000000000007,7.20859,return,2.275027499999851,,,,,,,,,,,,,,,,,p304,21,female,up_down_width,2025-11-18_14h35.14.992,exp1,2023.1.0,60.033450627824585,
,,,,,,,,,,,,,,,,3,8.6,10,11.4,0,0,1.4,1.15,0.25,3.05,10,match,36.05,310,361,411,0,0,9,9,9,0,0,,,,,,,4,0,4,0,0,49,49,43,,,,,,,,,,,,,,2,0.7945762000745162,2,0.35,0.15000000000000002,5.40644,return,1.689871700014919,,,,,,,,,,,,,,,,,p304,21,female,up_down_width,2025-11-18_14h35.14.992,exp1,2023.1.0,60.033450627824585,
,,,,,,,,,,,,,,,,4,8.95,9.65,10.35,11.05,0,0.7,0.44999999999999996,0.25,2.3499999999999996,10,initial,36.05,323,348,373,398,0,9,9,9,9,0,,,,,,,4,0,4,0,0,50,50,24,,,,,,,,,,,,,,3,1.063673699973151,3,0.25,0.15000000000000002,5.40644,return,1.5159174000145867,,,,,,,,,,,,,,,,,p304,21,female,up_down_width,2025-11-18_14h35.14.992,exp1,2023.1.0,60.033450627824585,
,,,,,,,,,,,,,,,,3,9.3,10,10.7,0,0,0.7,0.44999999999999996,0.25,1.65,10,initial,36.05,335,361,386,0,0,9,9,9,0,0,,,,,,,4,0,4,0,0,51,51,7,,,,,,,,,,,,,,2,0.8808597000315785,2,0.25,0.15000000000000002,5.40644,return,1.2932328999741003,,,,,,,,,,,,,,,,,p304,21,female,up_down_width,2025-11-18_14h35.14.992,exp1,2023.1.0,60.033450627824585,
,,,,,,,,,,,,,,,,,,,,,,,,,,,,,,,,,,,,,,,,,,,,,4,0,4,0,,,,,,,,,,,,,,,,,,,,,,,,,,,,1904.3706997999689,1904.3706997999689,1904.3706997999689,,,,,,,,,,,,p304,21,female,up_down_width,2025-11-18_14h35.14.992,exp1,2023.1.0,60.033450627824585,
,,,,,,,,,,,,,,,,5,8.65,9.325,10,10.675,11.35,0.675,0.42500000000000004,0.25,2.95,10,match,36.05,312,336,361,385,409,9,9,9,9,9,,,,,,,5,0,5,0,0,0,0,31,,,,,,,,,,,,,,4,0.9244257999816909,4,0.35,0.15000000000000002,5.40644,return,2.117652399931103,,,,,,,,,,,,,,,,,p304,21,female,up_down_width,2025-11-18_14h35.14.992,exp1,2023.1.0,60.033450627824585,
,,,,,,,,,,,,,,,,3,9.3,10,10.7,0,0,0.7,0.1499999999999999,0.55,1.95,10,initial,36.05,335,361,386,0,0,9,9,9,0,0,,,,,,,5,0,5,0,0,1,1,6,,,,,,,,,,,,,,2,1.1384638999588788,2,0.25,0.35,12.61502,return,1.3806272000074387,,,,,,,,,,,,,,,,,p304,21,female,up_down_width,2025-11-18_14h35.14.992,exp1,2023.1.0,60.033450627824585,
,,,,,,,,,,,,,,,,5,8.95,9.475,10,10.525,11.05,0.525,0.125,0.4,2.5,10,match,36.05,323,342,361,379,398,9,9,9,9,9,,,,,,,5,0,5,0,0,2,2,27,,,,,,,,,,,,,,4,0.9746174999745563,4,0.45,0.30000000000000004,10.81288,return,1.3829894000664353,,,,,,,,,,,,,,,,,p304,21,female,up_down_width,2025-11-18_14h35.14.992,exp1,2023.1.0,60.033450627824585,
,,,,,,,,,,,,,,,,3,9.1,10,10.9,0,0,0.9,0.5,0.4,2.2,10,initial,36.05,328,361,393,0,0,9,9,9,0,0,,,,,,,5,0,5,0,0,3,3,15,,,,,,,,,,,,,,2,0.9350791999604553,2,0.55,0.35000000000000003,12.61502,return,1.6965278000570834,,,,,,,,,,,,,,,,,p304,21,female,up_down_width,2025-11-18_14h35.14.992,exp1,2023.1.0,60.033450627824585,
,,,,,,,,,,,,,,,,5,7.8,8.9,10,11.1,12.2,1.1,0.55,0.55,4.95,10,initial,36.05,281,321,361,400,440,9,9,9,9,9,,,,,,,5,0,5,0,0,4,4,34,,,,,,,,,,,,,,5,1.165846100077033,5,0.5,0.35000000000000003,12.61502,return,1.7737370999529958,,,,,,,,,,,,,,,,,p304,21,female,up_down_width,2025-11-18_14h35.14.992,exp1,2023.1.0,60.033450627824585,
,,,,,,,,,,,,,,,,5,8.95,9.475,10,10.525,11.05,0.525,0.275,0.25,2.35,10,match,36.05,323,342,361,379,398,9,9,9,9,9,,,,,,,5,0,5,0,0,5,5,25,,,,,,,,,,,,,,3,0.9424156999448314,3,0.55,0.25000000000000006,9.01073,return,1.9592278000200167,,,,,,,,,,,,,,,,,p304,21,female,up_down_width,2025-11-18_14h35.14.992,exp1,2023.1.0,60.033450627824585,
,,,,,,,,,,,,,,,,4,8.65,9.55,10.45,11.35,0,0.9,0.35,0.55,3.25,10,initial,36.05,312,344,377,409,0,9,9,9,9,0,,,,,,,5,0,5,0,0,6,6,28,,,,,,,,,,,,,,3,0.9536578999832273,3,0.45,0.45,16.21932,return,1.410505999927409,,,,,,,,,,,,,,,,,p304,21,female,up_down_width,2025-11-18_14h35.14.992,exp1,2023.1.0,60.033450627824585,
,,,,,,,,,,,,,,,,5,8.65,9.325,10,10.675,11.35,0.675,0.125,0.55,3.25,10,match,36.05,312,336,361,385,409,9,9,9,9,9,,,,,,,5,0,5,0,0,7,7,29,,,,,,,,,,,,,,4,1.0756859000539407,4,0.35,0.44999999999999996,16.21932,return,1.8310356999281794,,,,,,,,,,,,,,,,,p304,21,female,up_down_width,2025-11-18_14h35.14.992,exp1,2023.1.0,60.033450627824585,
,,,,,,,,,,,,,,,,5,8.2,9.1,10,10.9,11.8,0.9,0.5,0.4,4,10,initial,36.05,296,328,361,393,425,9,9,9,9,9,,,,,,,5,0,5,0,0,8,8,50,,,,,,,,,,,,,,5,0.879123599966988,5,0.35,0.39999999999999997,14.41717,return,1.4028476000530645,,,,,,,,,,,,,,,,,p304,21,female,up_down_width,2025-11-18_14h35.14.992,exp1,2023.1.0,60.033450627824585,
,,,,,,,,,,,,,,,,5,8.275,9.1375,10,10.8625,11.725,0.8625,0.6125,0.25,3.7,10,match,36.05,298,329,361,392,423,9,9,9,9,9,,,,,,,5,0,5,0,0,9,9,22,,,,,,,,,,,,,,4,0.89604949997738,4,0.55,0.25000000000000006,9.01073,return,2.0270697000669315,,,,,,,,,,,,,,,,,p304,21,female,up_down_width,2025-11-18_14h35.14.992,exp1,2023.1.0,60.033450627824585,
,,,,,,,,,,,,,,,,3,7.8,10,12.2,0,0,2.2,1.9500000000000002,0.25,4.65,10,match,36.05,281,361,440,0,0,9,9,9,0,0,,,,,,,5,0,5,0,0,10,10,37,,,,,,,,,,,,,,2,2.1252822000533342,2,0.55,0.20000000000000007,7.20859,return,2.711213600006886,,,,,,,,,,,,,,,,,p304,21,female,up_down_width,2025-11-18_14h35.14.992,exp1,2023.1.0,60.033450627824585,
,,,,,,,,,,,,,,,,4,9.1,9.7,10.3,10.9,0,0.6,0.04999999999999997,0.55,2.35,10,match,36.05,328,350,371,393,0,9,9,9,9,0,,,,,,,5,0,5,0,0,11,11,12,,,,,,,,,,,,,,3,1.2999558999435976,3,0.5,0.55,19.82361,return,1.2785665999399498,,,,,,,,,,,,,,,,,p304,21,female,up_down_width,2025-11-18_14h35.14.992,exp1,2023.1.0,60.033450627824585,
,,,,,,,,,,,,,,,,5,8.6,9.3,10,10.7,11.4,0.7,0.1499999999999999,0.55,3.3499999999999996,10,initial,36.05,310,335,361,386,411,9,9,9,9,9,,,,,,,5,0,5,0,0,12,12,40,,,,,,,,,,,,,,4,1.1872629000572488,4,0.35,0.49999999999999994,18.02146,return,1.8580694999545813,,,,,,,,,,,,,,,,,p304,21,female,up_down_width,2025-11-18_14h35.14.992,exp1,2023.1.0,60.033450627824585,
,,,,,,,,,,,,,,,,3,9.3,10,10.7,0,0,0.7,0.44999999999999996,0.25,1.65,10,initial,36.05,335,361,386,0,0,9,9,9,0,0,,,,,,,5,0,5,0,0,13,13,7,,,,,,,,,,,,,,3,0.9424366999883205,3,0.45,0.20000000000000007,7.20859,return,1.815788900014013,,,,,,,,,,,,,,,,,p304,21,female,up_down_width,2025-11-18_14h35.14.992,exp1,2023.1.0,60.033450627824585,
,,,,,,,,,,,,,,,,4,9.1,9.7,10.3,10.9,0,0.5999999999999999,0.3499999999999999,0.25,2.05,10,match,36.05,328,350,371,393,0,9,9,9,9,0,,,,,,,5,0,5,0,0,14,14,14,,,,,,,,,,,,,,4,1.2815082999877632,4,0.55,0.20000000000000007,7.20859,return,2.7497249000007287,,,,,,,,,,,,,,,,,p304,21,female,up_down_width,2025-11-18_14h35.14.992,exp1,2023.1.0,60.033450627824585,
,,,,,,,,,,,,,,,,4,9.3,9.766666666666667,10.233333333333333,10.7,0,0.4666666666666667,0.06666666666666665,0.4,1.8,10,match,36.05,335,352,369,386,0,9,9,9,9,0,,,,,,,5,0,5,0,0,15,15,10,,,,,,,,,,,,,,3,1.175374099984765,3,0.3,0.39999999999999997,14.41717,return,1.3343871999531984,,,,,,,,,,,,,,,,,p304,21,female,up_down_width,2025-11-18_14h35.14.992,exp1,2023.1.0,60.033450627824585,
,,,,,,,,,,,,,,,,5,7.8,8.9,10,11.1,12.2,1.1,0.7000000000000001,0.4,4.800000000000001,10,initial,36.05,281,321,361,400,440,9,9,9,9,9,,,,,,,5,0,5,0,0,16,16,38,,,,,,,,,,,,,,5,0.9008627999573946,5,0.5,0.35000000000000003,12.61502,return,1.391470899921842,,,,,,,,,,,,,,,,,p304,21,female,up_down_width,2025-11-18_14h35.14.992,exp1,2023.1.0,60.033450627824585,
,,,,,,,,,,,,,,,,4,9.1,9.7,10.3,10.9,0,0.6000000000000001,0.20000000000000004,0.4,2.2,10,match,36.05,328,350,371,393,0,9,9,9,9,0,,,,,,,5,0,5,0,0,17,17,16,,,,,,,,,,,,,,3,0.9048199000535533,3,0.35,0.39999999999999997,14.41717,return,1.5714100999757648,,,,,,,,,,,,,,,,,p304,21,female,up_down_width,2025-11-18_14h35.14.992,exp1,2023.1.0,60.033450627824585,
,,,,,,,,,,,,,,,,3,9.1,10,10.9,0,0,0.9,0.35,0.55,2.35,10,initial,36.05,328,361,393,0,0,9,9,9,0,0,,,,,,,5,0,5,0,0,18,18,11,,,,,,,,,,,,,,2,1.0254310999298468,2,0.45,0.5,18.02146,return,1.0473245999310166,,,,,,,,,,,,,,,,,p304,21,female,up_down_width,2025-11-18_14h35.14.992,exp1,2023.1.0,60.033450627824585,
,,,,,,,,,,,,,,,,3,8.2,10,11.8,0,0,1.8,1.55,0.25,3.85,10,match,36.05,296,361,425,0,0,9,9,9,0,0,,,,,,,5,0,5,0,0,19,19,49,,,,,,,,,,,,,,2,0.8905727999517694,2,0.25,0.2,7.20859,return,1.525786399957724,,,,,,,,,,,,,,,,,p304,21,female,up_down_width,2025-11-18_14h35.14.992,exp1,2023.1.0,60.033450627824585,
,,,,,,,,,,,,,,,,4,8.9,9.633333333333333,10.366666666666667,11.1,0,0.7333333333333334,0.4833333333333334,0.25,2.45,10,match,36.05,321,347,374,400,0,9,9,9,9,0,,,,,,,5,0,5,0,0,20,20,3,,,,,,,,,,,,,,3,0.9602692000335082,3,0.35,0.2,7.20859,return,1.449181400006637,,,,,,,,,,,,,,,,,p304,21,female,up_down_width,2025-11-18_14h35.14.992,exp1,2023.1.0,60.033450627824585,
,,,,,,,,,,,,,,,,3,8.6,10,11.4,0,0,1.4,0.85,0.55,3.35,10,match,36.05,310,361,411,0,0,9,9,9,0,0,,,,,,,5,0,5,0,0,21,21,41,,,,,,,,,,,,,,2,0.9436560000758618,2,0.55,0.45,16.21932,return,2.136500999913551,,,,,,,,,,,,,,,,,p304,21,female,up_down_width,2025-11-18_14h35.14.992,exp1,2023.1.0,60.033450627824585,
,,,,,,,,,,,,,,,,5,8.65,9.325,10,10.675,11.35,0.675,0.275,0.4,3.1,10,match,36.05,312,336,361,385,409,9,9,9,9,9,,,,,,,5,0,5,0,0,22,22,33,,,,,,,,,,,,,,4,0.8679818999953568,4,0.3,0.35,12.61502,return,1.135852099978365,,,,,,,,,,,,,,,,,p304,21,female,up_down_width,2025-11-18_14h35.14.992,exp1,2023.1.0,60.033450627824585,
,,,,,,,,,,,,,,,,3,8.9,10,11.1,0,0,1.1,0.8500000000000001,0.25,2.45,10,initial,36.05,321,361,400,0,0,9,9,9,0,0,,,,,,,5,0,5,0,0,23,23,2,,,,,,,,,,,,,,2,0.8841611999087036,2,0.45,0.20000000000000007,7.20859,return,1.982809599954635,,,,,,,,,,,,,,,,,p304,21,female,up_down_width,2025-11-18_14h35.14.992,exp1,2023.1.0,60.033450627824585,
