amount_p,posx1_p,posx2_p,posx3_p,posx4_p,posx5_p,center_to_center_p,edge_to_edge_p,w_p,stim_lengt_p,eccentricity_p,line1_p,line2_p,line3_p,line4_p,line5_p,amount,posx1,posx2,posx3,posx4,posx5,center_to_center,edge_to_edge,w,stim_length,eccentricity,trial_type,deg_to_pix_index,posx1_in_pix,posx2_in_pix,posx3_in_pix,posx4_in_pix,posx5_in_pix,line1,line2,line3,line4,line5,posx,setsize_cobdi,trials.thisRepN,trials.thisTrialN,trials.thisN,trials.thisIndex,blocks.thisRepN,blocks.thisTrialN,blocks.thisN,blocks.thisIndex,loop.thisRepN,loop.thisTrialN,loop.thisN,loop.thisIndex,first.thisRepN,first.thisTrialN,first.thisN,first.thisIndex,second.thisRepN,second.thisTrialN,second.thisN,second.thisIndex,thisRow.t,notes,key_resp_3.started,key_resp_3.keys,key_resp_3.rt,key_resp.keys,key_resp.rt,response,starting_width_deg,response_width_degree,response_width_pixel,next_5.keys,next_5.rt,key_resp_4.keys,key_resp_4.rt,text_3.started,text_4.started,key_resp_2.started,text_2.started,key_resp_2.keys,key_resp_2.rt,adjusting.started,next.keys,next.rt,text_control2.started,key_resp.started,key_resp.corr,text_bye.started,text_bye.stopped,participant,age,gender,resp_group,date,expName,psychopyVersion,frameRate,
,,,,,,,,,,,,,,,,,,,,,,,,,,,,,,,,,,,,,,,,,,,,,,,,,,,,,,,,,,,,,,,339.8721258000005,c,110.63419449992944,,,,,,,,,,,,,,,,,,,,,,,,,p305,20,female,left_right_width,2025-11-25_11h34.32.467,exp1,2023.1.0,60.02790099914379,
5,9.25,9.625,10,10.375,10.75,0.375,0.125,0.25,1.75,10,9,9,9,9,9,,,,,,,,,,,,,,,,,,,,,,,,,,0,0,0,6,,,,,,,,,,,,,,,,,,,,,,3,2.6982337000081316,3,0.4,0.25000000000000006,9.01073,return,8.637549899984151,,,,,,,,,,,,,,,,,p305,20,female,left_right_width,2025-11-25_11h34.32.467,exp1,2023.1.0,60.02790099914379,
3,9,10,11,0,0,1,0.9,0.1,2.1,10,9,9,9,0,0,,,,,,,,,,,,,,,,,,,,,,,,,,0,1,1,1,,,,,,,,,,,,,,,,,,,,,,3,1.3808185999514535,3,0.3,0.10000000000000002,3.60429,return,3.949525999953039,,,,,,,,,,,,,,,,,p305,20,female,left_right_width,2025-11-25_11h34.32.467,exp1,2023.1.0,60.02790099914379,
4,9.25,9.75,10.25,10.75,0,0.5,0.25,0.25,1.75,10,9,9,9,9,0,,,,,,,,,,,,,,,,,,,,,,,,,,0,2,2,4,,,,,,,,,,,,,,,,,,,,,,3,1.2346049000043422,3,0.2,0.10000000000000002,3.60429,return,4.271452399902046,,,,,,,,,,,,,,,,,p305,20,female,left_right_width,2025-11-25_11h34.32.467,exp1,2023.1.0,60.02790099914379,
3,8.2,10,11.8,0,0,1.7999999999999998,1.4,0.4,4,10,9,9,9,0,0,,,,,,,,,,,,,,,,,,,,,,,,,,0,3,3,2,,,,,,,,,,,,,,,,,,,,,,3,1.5954921999946237,3,0.3,0.25,9.01073,return,3.2434109000023454,,,,,,,,,,,,,,,,,p305,20,female,left_right_width,2025-11-25_11h34.32.467,exp1,2023.1.0,60.02790099914379,
3,9.5,10,10.5,0,0,0.5,0.4,0.1,1.1,10,9,9,9,0,0,,,,,,,,,,,,,,,,,,,,,,,,,,0,4,4,0,,,,,,,,,,,,,,,,,,,,,,3,0.8347891999874264,3,0.4,0.10000000000000007,3.60429,return,5.615651799947955,,,,,,,,,,,,,,,,,p305,20,female,left_right_width,2025-11-25_11h34.32.467,exp1,2023.1.0,60.02790099914379,
5,8.6,9.3,10,10.7,11.4,0.7,0.29999999999999993,0.4,3.1999999999999997,10,9,9,9,9,9,,,,,,,,,,,,,,,,,,,,,,,,,,0,5,5,7,,,,,,,,,,,,,,,,,,,,,,3,1.1639221999794245,3,0.5,0.10000000000000007,3.60429,return,6.108787200064398,,,,,,,,,,,,,,,,,p305,20,female,left_right_width,2025-11-25_11h34.32.467,exp1,2023.1.0,60.02790099914379,
4,9.5,9.833333333333334,10.166666666666666,10.5,0,0.33333333333333337,0.23333333333333336,0.1,1.1,10,9,9,9,9,0,,,,,,,,,,,,,,,,,,,,,,,,,,0,6,6,3,,,,,,,,,,,,,,,,,,,,,,3,0.8278465999756008,3,0.5,0.10000000000000007,3.60429,return,5.5606514000101015,,,,,,,,,,,,,,,,,p305,20,female,left_right_width,2025-11-25_11h34.32.467,exp1,2023.1.0,60.02790099914379,
5,9,9.5,10,10.5,11,0.5,0.09999999999999998,0.4,2.4,10,9,9,9,9,9,,,,,,,,,,,,,,,,,,,,,,,,,,0,7,7,8,,,,,,,,,,,,,,,,,,,,,,3,1.5022114000748843,3,0.35,0.44999999999999996,16.21932,return,2.784969199914485,,,,,,,,,,,,,,,,,p305,20,female,left_right_width,2025-11-25_11h34.32.467,exp1,2023.1.0,60.02790099914379,
4,8.65,9.55,10.45,11.35,0,0.9,0.5,0.4,3.1,10,9,9,9,9,0,,,,,,,,,,,,,,,,,,,,,,,,,,0,8,8,5,,,,,,,,,,,,,,,,,,,,,,3,1.0446031999308616,3,0.2,0.25,9.01073,return,2.5366216000402346,,,,,,,,,,,,,,,,,p305,20,female,left_right_width,2025-11-25_11h34.32.467,exp1,2023.1.0,60.02790099914379,
,,,,,,,,,,,,,,,,,,,,,,,,,,,,,,,,,,,,,,,,,,,,,,,,,,,,,,,,,,,,,,,,,,,,,,,,,,c,108.49806070001796,,,,,,,,,,,,,,,p305,20,female,left_right_width,2025-11-25_11h34.32.467,exp1,2023.1.0,60.02790099914379,
,,,,,,,,,,,,,,,,4,9.3,9.766666666666667,10.233333333333333,10.7,0,0.4666666666666667,0.21666666666666665,0.25,1.65,10,match,36.05,335,352,369,386,0,9,9,9,9,0,,,,,,,0,0,0,0,0,0,0,8,,,,,,,,,,,,,,3,0.9606060000369325,3,0.4,0.20000000000000007,7.20859,return,3.0957998000085354,,,,,,,,,,,,,,,,,p305,20,female,left_right_width,2025-11-25_11h34.32.467,exp1,2023.1.0,60.02790099914379,
,,,,,,,,,,,,,,,,5,8.2,9.1,10,10.9,11.8,0.9,0.65,0.25,3.85,10,initial,36.05,296,328,361,393,425,9,9,9,9,9,,,,,,,0,0,0,0,0,1,1,48,,,,,,,,,,,,,,4,1.15618849999737,4,0.5,0.25000000000000006,9.01073,return,2.212487500044517,,,,,,,,,,,,,,,,,p305,20,female,left_right_width,2025-11-25_11h34.32.467,exp1,2023.1.0,60.02790099914379,
,,,,,,,,,,,,,,,,3,8.9,10,11.1,0,0,1.1,0.7000000000000001,0.4,2.6000000000000005,10,initial,36.05,321,361,400,0,0,9,9,9,0,0,,,,,,,0,0,0,0,0,2,2,4,,,,,,,,,,,,,,4,1.6207298999652267,4,0.55,0.35000000000000003,12.61502,return,4.947837799903937,,,,,,,,,,,,,,,,,p305,20,female,left_right_width,2025-11-25_11h34.32.467,exp1,2023.1.0,60.02790099914379,
,,,,,,,,,,,,,,,,5,8.95,9.475,10,10.525,11.05,0.525,0.125,0.4,2.5,10,match,36.05,323,342,361,379,398,9,9,9,9,9,,,,,,,0,0,0,0,0,3,3,27,,,,,,,,,,,,,,3,2.5865682000294328,3,0.5,0.35000000000000003,12.61502,return,4.48261960002128,,,,,,,,,,,,,,,,,p305,20,female,left_right_width,2025-11-25_11h34.32.467,exp1,2023.1.0,60.02790099914379,
,,,,,,,,,,,,,,,,3,9.3,10,10.7,0,0,0.7,0.29999999999999993,0.4,1.8,10,initial,36.05,335,361,386,0,0,9,9,9,0,0,,,,,,,0,0,0,0,0,4,4,9,,,,,,,,,,,,,,3,0.9087658999487758,3,0.25,0.35,12.61502,return,1.7994639000389725,,,,,,,,,,,,,,,,,p305,20,female,left_right_width,2025-11-25_11h34.32.467,exp1,2023.1.0,60.02790099914379,
,,,,,,,,,,,,,,,,4,8.825,9.608333333333333,10.391666666666667,11.175,0,0.7833333333333333,0.5333333333333333,0.25,2.6,10,match,36.05,318,346,375,403,0,9,9,9,9,0,,,,,,,0,0,0,0,0,5,5,5,,,,,,,,,,,,,,3,0.8073609999846667,3,0.35,0.25,9.01073,return,1.5753353999461979,,,,,,,,,,,,,,,,,p305,20,female,left_right_width,2025-11-25_11h34.32.467,exp1,2023.1.0,60.02790099914379,
,,,,,,,,,,,,,,,,3,7.8,10,12.2,0,0,2.2,1.9500000000000002,0.25,4.65,10,match,36.05,281,361,440,0,0,9,9,9,0,0,,,,,,,0,0,0,0,0,6,6,37,,,,,,,,,,,,,,3,1.9050088000949472,3,0.45,0.25000000000000006,9.01073,return,2.354637400014326,,,,,,,,,,,,,,,,,p305,20,female,left_right_width,2025-11-25_11h34.32.467,exp1,2023.1.0,60.02790099914379,
,,,,,,,,,,,,,,,,5,7.8,8.9,10,11.1,12.2,1.1,0.7000000000000001,0.4,4.800000000000001,10,initial,36.05,281,321,361,400,440,9,9,9,9,9,,,,,,,0,0,0,0,0,7,7,38,,,,,,,,,,,,,,4,1.1926375000039116,4,0.5,0.30000000000000004,10.81288,return,1.639163399930112,,,,,,,,,,,,,,,,,p305,20,female,left_right_width,2025-11-25_11h34.32.467,exp1,2023.1.0,60.02790099914379,
,,,,,,,,,,,,,,,,5,8.275,9.1375,10,10.8625,11.725,0.8625,0.6125,0.25,3.7,10,match,36.05,298,329,361,392,423,9,9,9,9,9,,,,,,,0,0,0,0,0,8,8,22,,,,,,,,,,,,,,4,1.1806696000276133,4,0.55,0.25000000000000006,9.01073,return,2.8772861999459565,,,,,,,,,,,,,,,,,p305,20,female,left_right_width,2025-11-25_11h34.32.467,exp1,2023.1.0,60.02790099914379,
,,,,,,,,,,,,,,,,5,8.35,9.175,10,10.825,11.65,0.825,0.575,0.25,3.55,10,match,36.05,301,331,361,390,420,9,9,9,9,9,,,,,,,0,0,0,0,0,9,9,20,,,,,,,,,,,,,,5,1.1846742000197992,5,0.25,0.25,9.01073,return,1.5194401000626385,,,,,,,,,,,,,,,,,p305,20,female,left_right_width,2025-11-25_11h34.32.467,exp1,2023.1.0,60.02790099914379,
,,,,,,,,,,,,,,,,5,8.6,9.3,10,10.7,11.4,0.7,0.1499999999999999,0.55,3.3499999999999996,10,initial,36.05,310,335,361,386,411,9,9,9,9,9,,,,,,,0,0,0,0,0,10,10,40,,,,,,,,,,,,,,5,1.1621063000056893,5,0.3,0.49999999999999994,18.02146,return,2.537863199948333,,,,,,,,,,,,,,,,,p305,20,female,left_right_width,2025-11-25_11h34.32.467,exp1,2023.1.0,60.02790099914379,
,,,,,,,,,,,,,,,,4,9.1,9.7,10.3,10.9,0,0.6000000000000001,0.20000000000000004,0.4,2.2,10,match,36.05,328,350,371,393,0,9,9,9,9,0,,,,,,,0,0,0,0,0,11,11,16,,,,,,,,,,,,,,4,1.3716083000181243,4,0.2,0.3,10.81288,return,1.780678900075145,,,,,,,,,,,,,,,,,p305,20,female,left_right_width,2025-11-25_11h34.32.467,exp1,2023.1.0,60.02790099914379,
,,,,,,,,,,,,,,,,4,8.65,9.55,10.45,11.35,0,0.9,0.5,0.4,3.1,10,initial,36.05,312,344,377,409,0,9,9,9,9,0,,,,,,,0,0,0,0,0,12,12,32,,,,,,,,,,,,,,4,2.0044845999218524,4,0.25,0.35,12.61502,return,3.907567400019616,,,,,,,,,,,,,,,,,p305,20,female,left_right_width,2025-11-25_11h34.32.467,exp1,2023.1.0,60.02790099914379,
,,,,,,,,,,,,,,,,3,8.6,10,11.4,0,0,1.4,1.15,0.25,3.05,10,match,36.05,310,361,411,0,0,9,9,9,0,0,,,,,,,0,0,0,0,0,13,13,43,,,,,,,,,,,,,,3,1.2036580999847502,3,0.35,0.25,9.01073,return,2.2428391000721604,,,,,,,,,,,,,,,,,p305,20,female,left_right_width,2025-11-25_11h34.32.467,exp1,2023.1.0,60.02790099914379,
,,,,,,,,,,,,,,,,4,8.35,9.45,10.55,11.65,0,1.1,0.8500000000000001,0.25,3.5500000000000003,10,initial,36.05,301,341,380,420,0,9,9,9,9,0,,,,,,,0,0,0,0,0,14,14,19,,,,,,,,,,,,,,3,0.8797808999661356,3,0.25,0.25,9.01073,return,1.2106131999753416,,,,,,,,,,,,,,,,,p305,20,female,left_right_width,2025-11-25_11h34.32.467,exp1,2023.1.0,60.02790099914379,
,,,,,,,,,,,,,,,,3,8.2,10,11.8,0,0,1.7999999999999998,1.4,0.4,4,10,match,36.05,296,361,425,0,0,9,9,9,0,0,,,,,,,0,0,0,0,0,15,15,51,,,,,,,,,,,,,,3,0.7346344999969006,3,0.55,0.30000000000000004,10.81288,return,3.5992249000119045,,,,,,,,,,,,,,,,,p305,20,female,left_right_width,2025-11-25_11h34.32.467,exp1,2023.1.0,60.02790099914379,
,,,,,,,,,,,,,,,,3,8.9,10,11.1,0,0,1.1,0.8500000000000001,0.25,2.45,10,initial,36.05,321,361,400,0,0,9,9,9,0,0,,,,,,,0,0,0,0,0,16,16,2,,,,,,,,,,,,,,3,1.2677381000248715,3,0.35,0.3,10.81288,return,24.766548299929127,,,,,,,,,,,,,,,,,p305,20,female,left_right_width,2025-11-25_11h34.32.467,exp1,2023.1.0,60.02790099914379,
,,,,,,,,,,,,,,,,5,8.2,9.1,10,10.9,11.8,0.9,0.35,0.55,4.15,10,initial,36.05,296,328,361,393,425,9,9,9,9,9,,,,,,,0,0,0,0,0,17,17,46,,,,,,,,,,,,,,5,1.1221550999907777,5,0.45,0.45,16.21932,return,1.8595643000444397,,,,,,,,,,,,,,,,,p305,20,female,left_right_width,2025-11-25_11h34.32.467,exp1,2023.1.0,60.02790099914379,
,,,,,,,,,,,,,,,,5,8.2,9.1,10,10.9,11.8,0.9,0.5,0.4,4,10,initial,36.05,296,328,361,393,425,9,9,9,9,9,,,,,,,0,0,0,0,0,18,18,50,,,,,,,,,,,,,,5,2.778543399996124,5,0.55,0.55,19.82361,return,1.5625208999263123,,,,,,,,,,,,,,,,,p305,20,female,left_right_width,2025-11-25_11h34.32.467,exp1,2023.1.0,60.02790099914379,
,,,,,,,,,,,,,,,,3,8.9,10,11.1,0,0,1.1,0.55,0.55,2.75,10,initial,36.05,321,361,400,0,0,9,9,9,0,0,,,,,,,0,0,0,0,0,19,19,0,,,,,,,,,,,,,,3,7.806804200052284,3,0.2,0.3,10.81288,return,9.013239399995655,,,,,,,,,,,,,,,,,p305,20,female,left_right_width,2025-11-25_11h34.32.467,exp1,2023.1.0,60.02790099914379,
,,,,,,,,,,,,,,,,5,8.95,9.475,10,10.525,11.05,0.525,0.275,0.25,2.35,10,match,36.05,323,342,361,379,398,9,9,9,9,9,,,,,,,0,0,0,0,0,20,20,25,,,,,,,,,,,,,,4,1.3805837000254542,4,0.5,0.25000000000000006,9.01073,return,2.44458350003697,,,,,,,,,,,,,,,,,p305,20,female,left_right_width,2025-11-25_11h34.32.467,exp1,2023.1.0,60.02790099914379,
,,,,,,,,,,,,,,,,4,8.35,9.45,10.55,11.65,0,1.1,0.7000000000000001,0.4,3.7,10,initial,36.05,301,341,380,420,0,9,9,9,9,0,,,,,,,0,0,0,0,0,21,21,21,,,,,,,,,,,,,,4,1.0262491999892518,4,0.3,0.3,10.81288,return,1.047932600020431,,,,,,,,,,,,,,,,,p305,20,female,left_right_width,2025-11-25_11h34.32.467,exp1,2023.1.0,60.02790099914379,
,,,,,,,,,,,,,,,,5,8.35,9.175,10,10.825,11.65,0.8250000000000001,0.275,0.55,3.85,10,match,36.05,301,331,361,390,420,9,9,9,9,9,,,,,,,0,0,0,0,0,22,22,18,,,,,,,,,,,,,,5,1.0348802999360487,5,0.5,0.45,16.21932,return,1.8720421000616625,,,,,,,,,,,,,,,,,p305,20,female,left_right_width,2025-11-25_11h34.32.467,exp1,2023.1.0,60.02790099914379,
,,,,,,,,,,,,,,,,5,7.8,8.9,10,11.1,12.2,1.1,0.8500000000000001,0.25,4.65,10,initial,36.05,281,321,361,400,440,9,9,9,9,9,,,,,,,0,0,0,0,0,23,23,36,,,,,,,,,,,,,,5,1.1372378000523895,5,0.2,0.2,7.20859,return,1.1877485000295565,,,,,,,,,,,,,,,,,p305,20,female,left_right_width,2025-11-25_11h34.32.467,exp1,2023.1.0,60.02790099914379,
,,,,,,,,,,,,,,,,3,7.8,10,12.2,0,0,2.2,1.65,0.55,4.95,10,match,36.05,281,361,440,0,0,9,9,9,0,0,,,,,,,0,0,0,0,0,24,24,35,,,,,,,,,,,,,,3,1.467883399920538,3,0.2,0.44999999999999996,16.21932,return,2.689422000083141,,,,,,,,,,,,,,,,,p305,20,female,left_right_width,2025-11-25_11h34.32.467,exp1,2023.1.0,60.02790099914379,
,,,,,,,,,,,,,,,,5,8.6,9.3,10,10.7,11.4,0.7,0.44999999999999996,0.25,3.05,10,initial,36.05,310,335,361,386,411,9,9,9,9,9,,,,,,,0,0,0,0,0,25,25,42,,,,,,,,,,,,,,4,0.9048416999867186,4,0.3,0.25,9.01073,return,1.5547526999143884,,,,,,,,,,,,,,,,,p305,20,female,left_right_width,2025-11-25_11h34.32.467,exp1,2023.1.0,60.02790099914379,
,,,,,,,,,,,,,,,,3,9.3,10,10.7,0,0,0.7,0.44999999999999996,0.25,1.65,10,initial,36.05,335,361,386,0,0,9,9,9,0,0,,,,,,,0,0,0,0,0,26,26,7,,,,,,,,,,,,,,3,0.8822130999760702,3,0.45,0.25000000000000006,9.01073,return,3.614162900019437,,,,,,,,,,,,,,,,,p305,20,female,left_right_width,2025-11-25_11h34.32.467,exp1,2023.1.0,60.02790099914379,
,,,,,,,,,,,,,,,,3,9.3,10,10.7,0,0,0.7,0.1499999999999999,0.55,1.95,10,initial,36.05,335,361,386,0,0,9,9,9,0,0,,,,,,,0,0,0,0,0,27,27,6,,,,,,,,,,,,,,3,1.5398624000372365,3,0.45,0.5,18.02146,return,1.252733499975875,,,,,,,,,,,,,,,,,p305,20,female,left_right_width,2025-11-25_11h34.32.467,exp1,2023.1.0,60.02790099914379,
,,,,,,,,,,,,,,,,3,9.1,10,10.9,0,0,0.9,0.65,0.25,2.05,10,initial,36.05,328,361,393,0,0,9,9,9,0,0,,,,,,,0,0,0,0,0,28,28,13,,,,,,,,,,,,,,3,0.8542775000678375,3,0.5,0.30000000000000004,10.81288,return,1.5700246000196785,,,,,,,,,,,,,,,,,p305,20,female,left_right_width,2025-11-25_11h34.32.467,exp1,2023.1.0,60.02790099914379,
,,,,,,,,,,,,,,,,4,8.95,9.65,10.35,11.05,0,0.7,0.29999999999999993,0.4,2.5,10,initial,36.05,323,348,373,398,0,9,9,9,9,0,,,,,,,0,0,0,0,0,29,29,26,,,,,,,,,,,,,,4,1.1432437000330538,4,0.5,0.5,18.02146,return,1.3038712000707164,,,,,,,,,,,,,,,,,p305,20,female,left_right_width,2025-11-25_11h34.32.467,exp1,2023.1.0,60.02790099914379,
,,,,,,,,,,,,,,,,3,8.2,10,11.8,0,0,1.8,1.25,0.55,4.15,10,match,36.05,296,361,425,0,0,9,9,9,0,0,,,,,,,0,0,0,0,0,30,30,47,,,,,,,,,,,,,,3,0.890826900023967,3,0.25,0.44999999999999996,16.21932,return,1.9261127000208944,,,,,,,,,,,,,,,,,p305,20,female,left_right_width,2025-11-25_11h34.32.467,exp1,2023.1.0,60.02790099914379,
,,,,,,,,,,,,,,,,4,9.1,9.7,10.3,10.9,0,0.6,0.04999999999999997,0.55,2.35,10,match,36.05,328,350,371,393,0,9,9,9,9,0,,,,,,,0,0,0,0,0,31,31,12,,,,,,,,,,,,,,3,1.516004899982363,3,0.3,0.7500000000000001,27.0322,return,3.615709300036542,,,,,,,,,,,,,,,,,p305,20,female,left_right_width,2025-11-25_11h34.32.467,exp1,2023.1.0,60.02790099914379,
,,,,,,,,,,,,,,,,4,9.3,9.766666666666667,10.233333333333333,10.7,0,0.4666666666666667,0.06666666666666665,0.4,1.8,10,match,36.05,335,352,369,386,0,9,9,9,9,0,,,,,,,0,0,0,0,0,32,32,10,,,,,,,,,,,,,,3,1.3460070000728592,3,0.45,0.5,18.02146,return,1.3067425000481308,,,,,,,,,,,,,,,,,p305,20,female,left_right_width,2025-11-25_11h34.32.467,exp1,2023.1.0,60.02790099914379,
,,,,,,,,,,,,,,,,4,8.95,9.65,10.35,11.05,0,0.7,0.1499999999999999,0.55,2.65,10,initial,36.05,323,348,373,398,0,9,9,9,9,0,,,,,,,0,0,0,0,0,33,33,23,,,,,,,,,,,,,,3,1.0661253000143915,3,0.5,0.55,19.82361,return,1.1493281000293791,,,,,,,,,,,,,,,,,p305,20,female,left_right_width,2025-11-25_11h34.32.467,exp1,2023.1.0,60.02790099914379,
,,,,,,,,,,,,,,,,4,8.9,9.633333333333333,10.366666666666667,11.1,0,0.7333333333333333,0.18333333333333326,0.55,2.75,10,match,36.05,321,347,374,400,0,9,9,9,9,0,,,,,,,0,0,0,0,0,34,34,1,,,,,,,,,,,,,,4,1.3691541999578476,4,0.2,0.44999999999999996,16.21932,return,3.6012549999868497,,,,,,,,,,,,,,,,,p305,20,female,left_right_width,2025-11-25_11h34.32.467,exp1,2023.1.0,60.02790099914379,
,,,,,,,,,,,,,,,,4,8.95,9.65,10.35,11.05,0,0.7,0.44999999999999996,0.25,2.3499999999999996,10,initial,36.05,323,348,373,398,0,9,9,9,9,0,,,,,,,0,0,0,0,0,35,35,24,,,,,,,,,,,,,,4,0.9658724999753758,4,0.35,0.25,9.01073,return,1.9494581000180915,,,,,,,,,,,,,,,,,p305,20,female,left_right_width,2025-11-25_11h34.32.467,exp1,2023.1.0,60.02790099914379,
,,,,,,,,,,,,,,,,5,8.65,9.325,10,10.675,11.35,0.675,0.275,0.4,3.1,10,match,36.05,312,336,361,385,409,9,9,9,9,9,,,,,,,0,0,0,0,0,36,36,33,,,,,,,,,,,,,,4,0.9413733999244869,4,0.5,0.4,14.41717,return,1.574055999983102,,,,,,,,,,,,,,,,,p305,20,female,left_right_width,2025-11-25_11h34.32.467,exp1,2023.1.0,60.02790099914379,
,,,,,,,,,,,,,,,,5,7.8,8.9,10,11.1,12.2,1.1,0.55,0.55,4.95,10,initial,36.05,281,321,361,400,440,9,9,9,9,9,,,,,,,0,0,0,0,0,37,37,34,,,,,,,,,,,,,,5,1.0830488000065088,5,0.55,0.45,16.21932,return,2.4465985998976976,,,,,,,,,,,,,,,,,p305,20,female,left_right_width,2025-11-25_11h34.32.467,exp1,2023.1.0,60.02790099914379,
,,,,,,,,,,,,,,,,5,8.6,9.3,10,10.7,11.4,0.7,0.29999999999999993,0.4,3.1999999999999997,10,initial,36.05,310,335,361,386,411,9,9,9,9,9,,,,,,,0,0,0,0,0,38,38,44,,,,,,,,,,,,,,4,1.1458101000171155,4,0.5,0.45,16.21932,return,1.4031036000233144,,,,,,,,,,,,,,,,,p305,20,female,left_right_width,2025-11-25_11h34.32.467,exp1,2023.1.0,60.02790099914379,
,,,,,,,,,,,,,,,,3,9.1,10,10.9,0,0,0.9,0.5,0.4,2.2,10,initial,36.05,328,361,393,0,0,9,9,9,0,0,,,,,,,0,0,0,0,0,39,39,15,,,,,,,,,,,,,,3,0.9958415000000969,3,0.55,0.45,16.21932,return,1.4822776999790221,,,,,,,,,,,,,,,,,p305,20,female,left_right_width,2025-11-25_11h34.32.467,exp1,2023.1.0,60.02790099914379,
,,,,,,,,,,,,,,,,3,8.2,10,11.8,0,0,1.8,1.55,0.25,3.85,10,match,36.05,296,361,425,0,0,9,9,9,0,0,,,,,,,0,0,0,0,0,40,40,49,,,,,,,,,,,,,,3,1.1448328000260517,3,0.4,0.30000000000000004,10.81288,return,1.3863445000024512,,,,,,,,,,,,,,,,,p305,20,female,left_right_width,2025-11-25_11h34.32.467,exp1,2023.1.0,60.02790099914379,
,,,,,,,,,,,,,,,,3,8.525,10,11.475,0,0,1.475,1.225,0.25,3.2,10,match,36.05,307,361,414,0,0,9,9,9,0,0,,,,,,,0,0,0,0,0,41,41,45,,,,,,,,,,,,,,3,1.2216059000929818,3,0.5,0.25000000000000006,9.01073,return,1.7321228999644518,,,,,,,,,,,,,,,,,p305,20,female,left_right_width,2025-11-25_11h34.32.467,exp1,2023.1.0,60.02790099914379,
,,,,,,,,,,,,,,,,5,8.65,9.325,10,10.675,11.35,0.675,0.42500000000000004,0.25,2.95,10,match,36.05,312,336,361,385,409,9,9,9,9,9,,,,,,,0,0,0,0,0,42,42,31,,,,,,,,,,,,,,4,0.8552496000193059,4,0.35,0.2,7.20859,return,1.6677905999822542,,,,,,,,,,,,,,,,,p305,20,female,left_right_width,2025-11-25_11h34.32.467,exp1,2023.1.0,60.02790099914379,
,,,,,,,,,,,,,,,,4,9.1,9.7,10.3,10.9,0,0.5999999999999999,0.3499999999999999,0.25,2.05,10,match,36.05,328,350,371,393,0,9,9,9,9,0,,,,,,,0,0,0,0,0,43,43,14,,,,,,,,,,,,,,4,1.4119938999647275,4,0.35,0.25,9.01073,return,1.3884193999692798,,,,,,,,,,,,,,,,,p305,20,female,left_right_width,2025-11-25_11h34.32.467,exp1,2023.1.0,60.02790099914379,
,,,,,,,,,,,,,,,,4,8.35,9.45,10.55,11.65,0,1.1,0.55,0.55,3.8500000000000005,10,initial,36.05,301,341,380,420,0,9,9,9,9,0,,,,,,,0,0,0,0,0,44,44,17,,,,,,,,,,,,,,4,0.7629651000024751,4,0.45,0.55,19.82361,return,1.2599516999907792,,,,,,,,,,,,,,,,,p305,20,female,left_right_width,2025-11-25_11h34.32.467,exp1,2023.1.0,60.02790099914379,
,,,,,,,,,,,,,,,,4,8.65,9.55,10.45,11.35,0,0.9,0.35,0.55,3.25,10,initial,36.05,312,344,377,409,0,9,9,9,9,0,,,,,,,0,0,0,0,0,45,45,28,,,,,,,,,,,,,,4,1.0820667000953108,4,0.25,0.49999999999999994,18.02146,return,1.917623499990441,,,,,,,,,,,,,,,,,p305,20,female,left_right_width,2025-11-25_11h34.32.467,exp1,2023.1.0,60.02790099914379,
,,,,,,,,,,,,,,,,3,7.800000000000001,10,12.2,0,0,2.1999999999999997,1.7999999999999998,0.4,4.8,10,match,36.05,281,361,440,0,0,9,9,9,0,0,,,,,,,0,0,0,0,0,46,46,39,,,,,,,,,,,,,,3,0.9157169000245631,3,0.45,0.45,16.21932,return,1.2292455999413505,,,,,,,,,,,,,,,,,p305,20,female,left_right_width,2025-11-25_11h34.32.467,exp1,2023.1.0,60.02790099914379,
,,,,,,,,,,,,,,,,4,8.65,9.55,10.45,11.35,0,0.9,0.65,0.25,2.95,10,initial,36.05,312,344,377,409,0,9,9,9,9,0,,,,,,,0,0,0,0,0,47,47,30,,,,,,,,,,,,,,3,1.0010725000174716,3,0.3,0.3,10.81288,return,2.8326529999030754,,,,,,,,,,,,,,,,,p305,20,female,left_right_width,2025-11-25_11h34.32.467,exp1,2023.1.0,60.02790099914379,
,,,,,,,,,,,,,,,,3,9.1,10,10.9,0,0,0.9,0.35,0.55,2.35,10,initial,36.05,328,361,393,0,0,9,9,9,0,0,,,,,,,0,0,0,0,0,48,48,11,,,,,,,,,,,,,,3,1.4885945999994874,3,0.3,0.39999999999999997,14.41717,return,2.163967299973592,,,,,,,,,,,,,,,,,p305,20,female,left_right_width,2025-11-25_11h34.32.467,exp1,2023.1.0,60.02790099914379,
,,,,,,,,,,,,,,,,5,8.65,9.325,10,10.675,11.35,0.675,0.125,0.55,3.25,10,match,36.05,312,336,361,385,409,9,9,9,9,9,,,,,,,0,0,0,0,0,49,49,29,,,,,,,,,,,,,,5,1.2624939000234008,5,0.55,0.45,16.21932,return,1.9633109000278637,,,,,,,,,,,,,,,,,p305,20,female,left_right_width,2025-11-25_11h34.32.467,exp1,2023.1.0,60.02790099914379,
,,,,,,,,,,,,,,,,4,8.9,9.633333333333333,10.366666666666667,11.1,0,0.7333333333333334,0.4833333333333334,0.25,2.45,10,match,36.05,321,347,374,400,0,9,9,9,9,0,,,,,,,0,0,0,0,0,50,50,3,,,,,,,,,,,,,,4,0.9018518999218941,4,0.2,0.3,10.81288,return,2.1282727000070736,,,,,,,,,,,,,,,,,p305,20,female,left_right_width,2025-11-25_11h34.32.467,exp1,2023.1.0,60.02790099914379,
,,,,,,,,,,,,,,,,3,8.6,10,11.4,0,0,1.4,0.85,0.55,3.35,10,match,36.05,310,361,411,0,0,9,9,9,0,0,,,,,,,0,0,0,0,0,51,51,41,,,,,,,,,,,,,,3,1.0966273000231013,3,0.4,0.4,14.41717,return,1.3553507999749854,,,,,,,,,,,,,,,,,p305,20,female,left_right_width,2025-11-25_11h34.32.467,exp1,2023.1.0,60.02790099914379,
,,,,,,,,,,,,,,,,,,,,,,,,,,,,,,,,,,,,,,,,,,,,,0,0,0,0,,,,,,,,,,,,,,,,,,,,,,,,,,,,928.2618683000328,928.2618683000328,928.2618683000328,,,,,,,,,,,,p305,20,female,left_right_width,2025-11-25_11h34.32.467,exp1,2023.1.0,60.02790099914379,
,,,,,,,,,,,,,,,,4,9.1,9.7,10.3,10.9,0,0.6000000000000001,0.20000000000000004,0.4,2.2,10,match,36.05,328,350,371,393,0,9,9,9,9,0,,,,,,,1,0,1,0,0,0,0,16,,,,,,,,,,,,,,4,1.2829042000230402,4,0.5,0.4,14.41717,return,1.9333945999387652,,,,,,,,,,,,,,,,,p305,20,female,left_right_width,2025-11-25_11h34.32.467,exp1,2023.1.0,60.02790099914379,
,,,,,,,,,,,,,,,,4,8.65,9.55,10.45,11.35,0,0.9,0.5,0.4,3.1,10,initial,36.05,312,344,377,409,0,9,9,9,9,0,,,,,,,1,0,1,0,0,1,1,32,,,,,,,,,,,,,,4,0.8562446999130771,4,0.4,0.35000000000000003,12.61502,return,1.2847344999900088,,,,,,,,,,,,,,,,,p305,20,female,left_right_width,2025-11-25_11h34.32.467,exp1,2023.1.0,60.02790099914379,
,,,,,,,,,,,,,,,,4,8.35,9.45,10.55,11.65,0,1.1,0.7000000000000001,0.4,3.7,10,initial,36.05,301,341,380,420,0,9,9,9,9,0,,,,,,,1,0,1,0,0,2,2,21,,,,,,,,,,,,,,4,0.7659303999971598,4,0.2,0.35,12.61502,return,1.758907499955967,,,,,,,,,,,,,,,,,p305,20,female,left_right_width,2025-11-25_11h34.32.467,exp1,2023.1.0,60.02790099914379,
,,,,,,,,,,,,,,,,3,8.9,10,11.1,0,0,1.1,0.8500000000000001,0.25,2.45,10,initial,36.05,321,361,400,0,0,9,9,9,0,0,,,,,,,1,0,1,0,0,3,3,2,,,,,,,,,,,,,,3,0.9234701000386849,3,0.3,0.35,12.61502,return,1.8136531999334693,,,,,,,,,,,,,,,,,p305,20,female,left_right_width,2025-11-25_11h34.32.467,exp1,2023.1.0,60.02790099914379,
,,,,,,,,,,,,,,,,5,8.6,9.3,10,10.7,11.4,0.7,0.29999999999999993,0.4,3.1999999999999997,10,initial,36.05,310,335,361,386,411,9,9,9,9,9,,,,,,,1,0,1,0,0,4,4,44,,,,,,,,,,,,,,3,2.0785930000711232,3,0.35,0.44999999999999996,16.21932,return,1.2261578000616282,,,,,,,,,,,,,,,,,p305,20,female,left_right_width,2025-11-25_11h34.32.467,exp1,2023.1.0,60.02790099914379,
,,,,,,,,,,,,,,,,4,8.9,9.633333333333333,10.366666666666667,11.1,0,0.7333333333333333,0.18333333333333326,0.55,2.75,10,match,36.05,321,347,374,400,0,9,9,9,9,0,,,,,,,1,0,1,0,0,5,5,1,,,,,,,,,,,,,,4,0.9280452000675723,4,0.25,0.44999999999999996,16.21932,return,1.5625330000184476,,,,,,,,,,,,,,,,,p305,20,female,left_right_width,2025-11-25_11h34.32.467,exp1,2023.1.0,60.02790099914379,
,,,,,,,,,,,,,,,,4,9.3,9.766666666666667,10.233333333333333,10.7,0,0.4666666666666667,0.06666666666666665,0.4,1.8,10,match,36.05,335,352,369,386,0,9,9,9,9,0,,,,,,,1,0,1,0,0,6,6,10,,,,,,,,,,,,,,3,0.8414083999814466,3,0.35,0.65,23.4279,return,1.8142196999397129,,,,,,,,,,,,,,,,,p305,20,female,left_right_width,2025-11-25_11h34.32.467,exp1,2023.1.0,60.02790099914379,
,,,,,,,,,,,,,,,,3,8.9,10,11.1,0,0,1.1,0.55,0.55,2.75,10,initial,36.05,321,361,400,0,0,9,9,9,0,0,,,,,,,1,0,1,0,0,7,7,0,,,,,,,,,,,,,,2,1.0701119999866933,2,0.4,0.6500000000000001,23.4279,return,2.322702799923718,,,,,,,,,,,,,,,,,p305,20,female,left_right_width,2025-11-25_11h34.32.467,exp1,2023.1.0,60.02790099914379,
,,,,,,,,,,,,,,,,3,7.800000000000001,10,12.2,0,0,2.1999999999999997,1.7999999999999998,0.4,4.8,10,match,36.05,281,361,440,0,0,9,9,9,0,0,,,,,,,1,0,1,0,0,8,8,39,,,,,,,,,,,,,,3,1.3745752999093384,3,0.2,0.35,12.61502,return,3.478896199958399,,,,,,,,,,,,,,,,,p305,20,female,left_right_width,2025-11-25_11h34.32.467,exp1,2023.1.0,60.02790099914379,
,,,,,,,,,,,,,,,,3,9.3,10,10.7,0,0,0.7,0.1499999999999999,0.55,1.95,10,initial,36.05,335,361,386,0,0,9,9,9,0,0,,,,,,,1,0,1,0,0,9,9,6,,,,,,,,,,,,,,3,1.347182699944824,3,0.3,0.5499999999999999,19.82361,return,1.5487614000448957,,,,,,,,,,,,,,,,,p305,20,female,left_right_width,2025-11-25_11h34.32.467,exp1,2023.1.0,60.02790099914379,
,,,,,,,,,,,,,,,,3,8.2,10,11.8,0,0,1.8,1.55,0.25,3.85,10,match,36.05,296,361,425,0,0,9,9,9,0,0,,,,,,,1,0,1,0,0,10,10,49,,,,,,,,,,,,,,2,1.1800629999488592,2,0.3,0.35,12.61502,return,1.259595699957572,,,,,,,,,,,,,,,,,p305,20,female,left_right_width,2025-11-25_11h34.32.467,exp1,2023.1.0,60.02790099914379,
,,,,,,,,,,,,,,,,5,8.65,9.325,10,10.675,11.35,0.675,0.275,0.4,3.1,10,match,36.05,312,336,361,385,409,9,9,9,9,9,,,,,,,1,0,1,0,0,11,11,33,,,,,,,,,,,,,,4,1.0733634000644088,4,0.5,0.4,14.41717,return,1.6858336000004783,,,,,,,,,,,,,,,,,p305,20,female,left_right_width,2025-11-25_11h34.32.467,exp1,2023.1.0,60.02790099914379,
,,,,,,,,,,,,,,,,3,8.6,10,11.4,0,0,1.4,1.15,0.25,3.05,10,match,36.05,310,361,411,0,0,9,9,9,0,0,,,,,,,1,0,1,0,0,12,12,43,,,,,,,,,,,,,,3,1.1088116000173613,3,0.3,0.35,12.61502,return,2.406655199942179,,,,,,,,,,,,,,,,,p305,20,female,left_right_width,2025-11-25_11h34.32.467,exp1,2023.1.0,60.02790099914379,
,,,,,,,,,,,,,,,,5,8.2,9.1,10,10.9,11.8,0.9,0.5,0.4,4,10,initial,36.05,296,328,361,393,425,9,9,9,9,9,,,,,,,1,0,1,0,0,13,13,50,,,,,,,,,,,,,,5,1.1141357000451535,5,0.55,0.45,16.21932,return,1.9799833999713883,,,,,,,,,,,,,,,,,p305,20,female,left_right_width,2025-11-25_11h34.32.467,exp1,2023.1.0,60.02790099914379,
,,,,,,,,,,,,,,,,4,8.9,9.633333333333333,10.366666666666667,11.1,0,0.7333333333333334,0.4833333333333334,0.25,2.45,10,match,36.05,321,347,374,400,0,9,9,9,9,0,,,,,,,1,0,1,0,0,14,14,3,,,,,,,,,,,,,,5,1.1745955999940634,5,0.4,0.45,16.21932,return,2.3426162999821827,,,,,,,,,,,,,,,,,p305,20,female,left_right_width,2025-11-25_11h34.32.467,exp1,2023.1.0,60.02790099914379,
,,,,,,,,,,,,,,,,4,8.95,9.65,10.35,11.05,0,0.7,0.29999999999999993,0.4,2.5,10,initial,36.05,323,348,373,398,0,9,9,9,9,0,,,,,,,1,0,1,0,0,15,15,26,,,,,,,,,,,,,,4,0.8466771999374032,4,0.3,0.39999999999999997,14.41717,return,1.628849899978377,,,,,,,,,,,,,,,,,p305,20,female,left_right_width,2025-11-25_11h34.32.467,exp1,2023.1.0,60.02790099914379,
,,,,,,,,,,,,,,,,5,8.275,9.1375,10,10.8625,11.725,0.8625,0.6125,0.25,3.7,10,match,36.05,298,329,361,392,423,9,9,9,9,9,,,,,,,1,0,1,0,0,16,16,22,,,,,,,,,,,,,,4,0.8931833000387996,4,0.3,0.3,10.81288,return,1.0327271000714973,,,,,,,,,,,,,,,,,p305,20,female,left_right_width,2025-11-25_11h34.32.467,exp1,2023.1.0,60.02790099914379,
,,,,,,,,,,,,,,,,3,8.6,10,11.4,0,0,1.4,0.85,0.55,3.35,10,match,36.05,310,361,411,0,0,9,9,9,0,0,,,,,,,1,0,1,0,0,17,17,41,,,,,,,,,,,,,,2,1.1600225999718532,2,0.25,0.6,21.62576,return,2.5680953999981284,,,,,,,,,,,,,,,,,p305,20,female,left_right_width,2025-11-25_11h34.32.467,exp1,2023.1.0,60.02790099914379,
,,,,,,,,,,,,,,,,5,8.6,9.3,10,10.7,11.4,0.7,0.1499999999999999,0.55,3.3499999999999996,10,initial,36.05,310,335,361,386,411,9,9,9,9,9,,,,,,,1,0,1,0,0,18,18,40,,,,,,,,,,,,,,4,1.2193767999997362,4,0.3,0.65,23.4279,return,2.0329386999364942,,,,,,,,,,,,,,,,,p305,20,female,left_right_width,2025-11-25_11h34.32.467,exp1,2023.1.0,60.02790099914379,
,,,,,,,,,,,,,,,,5,8.35,9.175,10,10.825,11.65,0.8250000000000001,0.275,0.55,3.85,10,match,36.05,301,331,361,390,420,9,9,9,9,9,,,,,,,1,0,1,0,0,19,19,18,,,,,,,,,,,,,,4,2.0735381999984384,4,0.5,0.5,18.02146,return,1.9740440000314265,,,,,,,,,,,,,,,,,p305,20,female,left_right_width,2025-11-25_11h34.32.467,exp1,2023.1.0,60.02790099914379,
,,,,,,,,,,,,,,,,3,9.3,10,10.7,0,0,0.7,0.44999999999999996,0.25,1.65,10,initial,36.05,335,361,386,0,0,9,9,9,0,0,,,,,,,1,0,1,0,0,20,20,7,,,,,,,,,,,,,,2,1.1868617000291124,2,0.5,0.45,16.21932,return,1.60285359993577,,,,,,,,,,,,,,,,,p305,20,female,left_right_width,2025-11-25_11h34.32.467,exp1,2023.1.0,60.02790099914379,
,,,,,,,,,,,,,,,,4,8.95,9.65,10.35,11.05,0,0.7,0.1499999999999999,0.55,2.65,10,initial,36.05,323,348,373,398,0,9,9,9,9,0,,,,,,,1,0,1,0,0,21,21,23,,,,,,,,,,,,,,3,1.2953730000881478,3,0.3,0.44999999999999996,16.21932,return,1.4994518000166863,,,,,,,,,,,,,,,,,p305,20,female,left_right_width,2025-11-25_11h34.32.467,exp1,2023.1.0,60.02790099914379,
,,,,,,,,,,,,,,,,3,8.2,10,11.8,0,0,1.8,1.25,0.55,4.15,10,match,36.05,296,361,425,0,0,9,9,9,0,0,,,,,,,1,0,1,0,0,22,22,47,,,,,,,,,,,,,,2,1.0789068000158295,2,0.5,0.55,19.82361,return,2.7624001000076532,,,,,,,,,,,,,,,,,p305,20,female,left_right_width,2025-11-25_11h34.32.467,exp1,2023.1.0,60.02790099914379,
,,,,,,,,,,,,,,,,3,7.8,10,12.2,0,0,2.2,1.9500000000000002,0.25,4.65,10,match,36.05,281,361,440,0,0,9,9,9,0,0,,,,,,,1,0,1,0,0,23,23,37,,,,,,,,,,,,,,2,1.5810870000859722,2,0.25,0.44999999999999996,16.21932,return,1.5653905998915434,,,,,,,,,,,,,,,,,p305,20,female,left_right_width,2025-11-25_11h34.32.467,exp1,2023.1.0,60.02790099914379,
,,,,,,,,,,,,,,,,5,8.6,9.3,10,10.7,11.4,0.7,0.44999999999999996,0.25,3.05,10,initial,36.05,310,335,361,386,411,9,9,9,9,9,,,,,,,1,0,1,0,0,24,24,42,,,,,,,,,,,,,,4,0.9356712999287993,4,0.2,0.3,10.81288,return,1.1681099999696016,,,,,,,,,,,,,,,,,p305,20,female,left_right_width,2025-11-25_11h34.32.467,exp1,2023.1.0,60.02790099914379,
,,,,,,,,,,,,,,,,3,9.3,10,10.7,0,0,0.7,0.29999999999999993,0.4,1.8,10,initial,36.05,335,361,386,0,0,9,9,9,0,0,,,,,,,1,0,1,0,0,25,25,9,,,,,,,,,,,,,,2,1.354670999920927,2,0.35,0.35,12.61502,return,1.2364257000153884,,,,,,,,,,,,,,,,,p305,20,female,left_right_width,2025-11-25_11h34.32.467,exp1,2023.1.0,60.02790099914379,
,,,,,,,,,,,,,,,,5,7.8,8.9,10,11.1,12.2,1.1,0.55,0.55,4.95,10,initial,36.05,281,321,361,400,440,9,9,9,9,9,,,,,,,1,0,1,0,0,26,26,34,,,,,,,,,,,,,,4,1.9259548999834806,4,0.4,0.55,19.82361,return,1.303353000083007,,,,,,,,,,,,,,,,,p305,20,female,left_right_width,2025-11-25_11h34.32.467,exp1,2023.1.0,60.02790099914379,
,,,,,,,,,,,,,,,,4,8.65,9.55,10.45,11.35,0,0.9,0.65,0.25,2.95,10,initial,36.05,312,344,377,409,0,9,9,9,9,0,,,,,,,1,0,1,0,0,27,27,30,,,,,,,,,,,,,,3,0.8965238999808207,3,0.2,0.3,10.81288,return,1.8195523000322282,,,,,,,,,,,,,,,,,p305,20,female,left_right_width,2025-11-25_11h34.32.467,exp1,2023.1.0,60.02790099914379,
,,,,,,,,,,,,,,,,4,9.1,9.7,10.3,10.9,0,0.6,0.04999999999999997,0.55,2.35,10,match,36.05,328,350,371,393,0,9,9,9,9,0,,,,,,,1,0,1,0,0,28,28,12,,,,,,,,,,,,,,2,1.2325423998991027,2,0.4,0.8000000000000003,28.83434,return,2.2695664999773726,,,,,,,,,,,,,,,,,p305,20,female,left_right_width,2025-11-25_11h34.32.467,exp1,2023.1.0,60.02790099914379,
,,,,,,,,,,,,,,,,3,9.1,10,10.9,0,0,0.9,0.5,0.4,2.2,10,initial,36.05,328,361,393,0,0,9,9,9,0,0,,,,,,,1,0,1,0,0,29,29,15,,,,,,,,,,,,,,2,1.08440110005904,2,0.4,0.6000000000000001,21.62576,return,2.4152112000156194,,,,,,,,,,,,,,,,,p305,20,female,left_right_width,2025-11-25_11h34.32.467,exp1,2023.1.0,60.02790099914379,
,,,,,,,,,,,,,,,,5,8.65,9.325,10,10.675,11.35,0.675,0.42500000000000004,0.25,2.95,10,match,36.05,312,336,361,385,409,9,9,9,9,9,,,,,,,1,0,1,0,0,30,30,31,,,,,,,,,,,,,,3,1.3398909999523312,3,0.45,0.35000000000000003,12.61502,return,2.6129322999622673,,,,,,,,,,,,,,,,,p305,20,female,left_right_width,2025-11-25_11h34.32.467,exp1,2023.1.0,60.02790099914379,
,,,,,,,,,,,,,,,,3,9.1,10,10.9,0,0,0.9,0.35,0.55,2.35,10,initial,36.05,328,361,393,0,0,9,9,9,0,0,,,,,,,1,0,1,0,0,31,31,11,,,,,,,,,,,,,,3,1.347834200016223,3,0.3,0.39999999999999997,14.41717,return,1.7408581000054255,,,,,,,,,,,,,,,,,p305,20,female,left_right_width,2025-11-25_11h34.32.467,exp1,2023.1.0,60.02790099914379,
,,,,,,,,,,,,,,,,5,8.95,9.475,10,10.525,11.05,0.525,0.275,0.25,2.35,10,match,36.05,323,342,361,379,398,9,9,9,9,9,,,,,,,1,0,1,0,0,32,32,25,,,,,,,,,,,,,,3,1.626241400022991,3,0.55,0.45,16.21932,return,1.496346200001426,,,,,,,,,,,,,,,,,p305,20,female,left_right_width,2025-11-25_11h34.32.467,exp1,2023.1.0,60.02790099914379,
,,,,,,,,,,,,,,,,4,8.35,9.45,10.55,11.65,0,1.1,0.55,0.55,3.8500000000000005,10,initial,36.05,301,341,380,420,0,9,9,9,9,0,,,,,,,1,0,1,0,0,33,33,17,,,,,,,,,,,,,,4,1.1187867999542505,4,0.45,0.45,16.21932,return,0.9620974999852479,,,,,,,,,,,,,,,,,p305,20,female,left_right_width,2025-11-25_11h34.32.467,exp1,2023.1.0,60.02790099914379,
,,,,,,,,,,,,,,,,4,8.35,9.45,10.55,11.65,0,1.1,0.8500000000000001,0.25,3.5500000000000003,10,initial,36.05,301,341,380,420,0,9,9,9,9,0,,,,,,,1,0,1,0,0,34,34,19,,,,,,,,,,,,,,4,1.52882399992086,4,0.2,0.35,12.61502,return,1.8493504000362009,,,,,,,,,,,,,,,,,p305,20,female,left_right_width,2025-11-25_11h34.32.467,exp1,2023.1.0,60.02790099914379,
,,,,,,,,,,,,,,,,4,9.1,9.7,10.3,10.9,0,0.5999999999999999,0.3499999999999999,0.25,2.05,10,match,36.05,328,350,371,393,0,9,9,9,9,0,,,,,,,1,0,1,0,0,35,35,14,,,,,,,,,,,,,,3,2.9796243999153376,3,0.35,0.35,12.61502,return,1.4675250999862328,,,,,,,,,,,,,,,,,p305,20,female,left_right_width,2025-11-25_11h34.32.467,exp1,2023.1.0,60.02790099914379,
,,,,,,,,,,,,,,,,5,8.65,9.325,10,10.675,11.35,0.675,0.125,0.55,3.25,10,match,36.05,312,336,361,385,409,9,9,9,9,9,,,,,,,1,0,1,0,0,36,36,29,,,,,,,,,,,,,,4,1.201693500042893,4,0.4,0.45,16.21932,return,1.7772421999834478,,,,,,,,,,,,,,,,,p305,20,female,left_right_width,2025-11-25_11h34.32.467,exp1,2023.1.0,60.02790099914379,
,,,,,,,,,,,,,,,,5,7.8,8.9,10,11.1,12.2,1.1,0.8500000000000001,0.25,4.65,10,initial,36.05,281,321,361,400,440,9,9,9,9,9,,,,,,,1,0,1,0,0,37,37,36,,,,,,,,,,,,,,4,1.0112665999913588,4,0.25,0.35,12.61502,return,1.7208400999661535,,,,,,,,,,,,,,,,,p305,20,female,left_right_width,2025-11-25_11h34.32.467,exp1,2023.1.0,60.02790099914379,
,,,,,,,,,,,,,,,,3,8.2,10,11.8,0,0,1.7999999999999998,1.4,0.4,4,10,match,36.05,296,361,425,0,0,9,9,9,0,0,,,,,,,1,0,1,0,0,38,38,51,,,,,,,,,,,,,,2,1.313646399998106,2,0.5,0.55,19.82361,return,1.8353841000935063,,,,,,,,,,,,,,,,,p305,20,female,left_right_width,2025-11-25_11h34.32.467,exp1,2023.1.0,60.02790099914379,
,,,,,,,,,,,,,,,,3,8.525,10,11.475,0,0,1.475,1.225,0.25,3.2,10,match,36.05,307,361,414,0,0,9,9,9,0,0,,,,,,,1,0,1,0,0,39,39,45,,,,,,,,,,,,,,3,1.007969200029038,3,0.5,0.30000000000000004,10.81288,return,2.18250979995355,,,,,,,,,,,,,,,,,p305,20,female,left_right_width,2025-11-25_11h34.32.467,exp1,2023.1.0,60.02790099914379,
,,,,,,,,,,,,,,,,3,9.1,10,10.9,0,0,0.9,0.65,0.25,2.05,10,initial,36.05,328,361,393,0,0,9,9,9,0,0,,,,,,,1,0,1,0,0,40,40,13,,,,,,,,,,,,,,2,1.036866100039333,2,0.3,0.25,9.01073,return,1.249480600003153,,,,,,,,,,,,,,,,,p305,20,female,left_right_width,2025-11-25_11h34.32.467,exp1,2023.1.0,60.02790099914379,
,,,,,,,,,,,,,,,,3,7.8,10,12.2,0,0,2.2,1.65,0.55,4.95,10,match,36.05,281,361,440,0,0,9,9,9,0,0,,,,,,,1,0,1,0,0,41,41,35,,,,,,,,,,,,,,3,1.0149344000965357,3,0.25,0.35,12.61502,return,1.8369018000084907,,,,,,,,,,,,,,,,,p305,20,female,left_right_width,2025-11-25_11h34.32.467,exp1,2023.1.0,60.02790099914379,
,,,,,,,,,,,,,,,,4,8.825,9.608333333333333,10.391666666666667,11.175,0,0.7833333333333333,0.5333333333333333,0.25,2.6,10,match,36.05,318,346,375,403,0,9,9,9,9,0,,,,,,,1,0,1,0,0,42,42,5,,,,,,,,,,,,,,3,1.0307777000125498,3,0.45,0.30000000000000004,10.81288,return,2.0929071999853477,,,,,,,,,,,,,,,,,p305,20,female,left_right_width,2025-11-25_11h34.32.467,exp1,2023.1.0,60.02790099914379,
,,,,,,,,,,,,,,,,4,8.65,9.55,10.45,11.35,0,0.9,0.35,0.55,3.25,10,initial,36.05,312,344,377,409,0,9,9,9,9,0,,,,,,,1,0,1,0,0,43,43,28,,,,,,,,,,,,,,4,1.1862339999061078,4,0.4,0.45,16.21932,return,1.5209875999717042,,,,,,,,,,,,,,,,,p305,20,female,left_right_width,2025-11-25_11h34.32.467,exp1,2023.1.0,60.02790099914379,
,,,,,,,,,,,,,,,,5,8.35,9.175,10,10.825,11.65,0.825,0.575,0.25,3.55,10,match,36.05,301,331,361,390,420,9,9,9,9,9,,,,,,,1,0,1,0,0,44,44,20,,,,,,,,,,,,,,4,0.8533994000172243,4,0.55,0.30000000000000004,10.81288,return,1.8259233999997377,,,,,,,,,,,,,,,,,p305,20,female,left_right_width,2025-11-25_11h34.32.467,exp1,2023.1.0,60.02790099914379,
,,,,,,,,,,,,,,,,4,8.95,9.65,10.35,11.05,0,0.7,0.44999999999999996,0.25,2.3499999999999996,10,initial,36.05,323,348,373,398,0,9,9,9,9,0,,,,,,,1,0,1,0,0,45,45,24,,,,,,,,,,,,,,4,2.2683001999976113,4,0.2,0.25,9.01073,return,2.5113988999510184,,,,,,,,,,,,,,,,,p305,20,female,left_right_width,2025-11-25_11h34.32.467,exp1,2023.1.0,60.02790099914379,
,,,,,,,,,,,,,,,,4,9.3,9.766666666666667,10.233333333333333,10.7,0,0.4666666666666667,0.21666666666666665,0.25,1.65,10,match,36.05,335,352,369,386,0,9,9,9,9,0,,,,,,,1,0,1,0,0,46,46,8,,,,,,,,,,,,,,4,0.9640896000200883,4,0.35,0.2,7.20859,return,1.9820749999489635,,,,,,,,,,,,,,,,,p305,20,female,left_right_width,2025-11-25_11h34.32.467,exp1,2023.1.0,60.02790099914379,
,,,,,,,,,,,,,,,,3,8.9,10,11.1,0,0,1.1,0.7000000000000001,0.4,2.6000000000000005,10,initial,36.05,321,361,400,0,0,9,9,9,0,0,,,,,,,1,0,1,0,0,47,47,4,,,,,,,,,,,,,,2,1.2124113000463694,2,0.25,0.39999999999999997,14.41717,return,1.6583018000237644,,,,,,,,,,,,,,,,,p305,20,female,left_right_width,2025-11-25_11h34.32.467,exp1,2023.1.0,60.02790099914379,
,,,,,,,,,,,,,,,,5,7.8,8.9,10,11.1,12.2,1.1,0.7000000000000001,0.4,4.800000000000001,10,initial,36.05,281,321,361,400,440,9,9,9,9,9,,,,,,,1,0,1,0,0,48,48,38,,,,,,,,,,,,,,4,0.9701601000269875,4,0.25,0.3,10.81288,return,1.218396299984306,,,,,,,,,,,,,,,,,p305,20,female,left_right_width,2025-11-25_11h34.32.467,exp1,2023.1.0,60.02790099914379,
,,,,,,,,,,,,,,,,5,8.2,9.1,10,10.9,11.8,0.9,0.65,0.25,3.85,10,initial,36.05,296,328,361,393,425,9,9,9,9,9,,,,,,,1,0,1,0,0,49,49,48,,,,,,,,,,,,,,4,1.0509986999677494,4,0.25,0.3,10.81288,return,1.135086499969475,,,,,,,,,,,,,,,,,p305,20,female,left_right_width,2025-11-25_11h34.32.467,exp1,2023.1.0,60.02790099914379,
,,,,,,,,,,,,,,,,5,8.2,9.1,10,10.9,11.8,0.9,0.35,0.55,4.15,10,initial,36.05,296,328,361,393,425,9,9,9,9,9,,,,,,,1,0,1,0,0,50,50,46,,,,,,,,,,,,,,4,2.008771299966611,4,0.35,0.35,12.61502,return,1.1113531000446528,,,,,,,,,,,,,,,,,p305,20,female,left_right_width,2025-11-25_11h34.32.467,exp1,2023.1.0,60.02790099914379,
,,,,,,,,,,,,,,,,5,8.95,9.475,10,10.525,11.05,0.525,0.125,0.4,2.5,10,match,36.05,323,342,361,379,398,9,9,9,9,9,,,,,,,1,0,1,0,0,51,51,27,,,,,,,,,,,,,,4,0.9788408000022173,4,0.4,0.4,14.41717,return,1.5144920999882743,,,,,,,,,,,,,,,,,p305,20,female,left_right_width,2025-11-25_11h34.32.467,exp1,2023.1.0,60.02790099914379,
,,,,,,,,,,,,,,,,,,,,,,,,,,,,,,,,,,,,,,,,,,,,,1,0,1,0,,,,,,,,,,,,,,,,,,,,,,,,,,,,1181.2451480000746,1181.2451480000746,1181.2451480000746,,,,,,,,,,,,p305,20,female,left_right_width,2025-11-25_11h34.32.467,exp1,2023.1.0,60.02790099914379,
,,,,,,,,,,,,,,,,4,8.95,9.65,10.35,11.05,0,0.7,0.44999999999999996,0.25,2.3499999999999996,10,initial,36.05,323,348,373,398,0,9,9,9,9,0,,,,,,,2,0,2,0,0,0,0,24,,,,,,,,,,,,,,4,1.687486600014381,4,0.55,0.4,14.41717,return,2.884117899928242,,,,,,,,,,,,,,,,,p305,20,female,left_right_width,2025-11-25_11h34.32.467,exp1,2023.1.0,60.02790099914379,
,,,,,,,,,,,,,,,,3,8.6,10,11.4,0,0,1.4,1.15,0.25,3.05,10,match,36.05,310,361,411,0,0,9,9,9,0,0,,,,,,,2,0,2,0,0,1,1,43,,,,,,,,,,,,,,2,1.4639663000125438,2,0.2,0.3,10.81288,return,1.787827800028026,,,,,,,,,,,,,,,,,p305,20,female,left_right_width,2025-11-25_11h34.32.467,exp1,2023.1.0,60.02790099914379,
,,,,,,,,,,,,,,,,3,8.9,10,11.1,0,0,1.1,0.55,0.55,2.75,10,initial,36.05,321,361,400,0,0,9,9,9,0,0,,,,,,,2,0,2,0,0,2,2,0,,,,,,,,,,,,,,3,0.8718157999683172,3,0.3,0.39999999999999997,14.41717,return,1.1073843999765813,,,,,,,,,,,,,,,,,p305,20,female,left_right_width,2025-11-25_11h34.32.467,exp1,2023.1.0,60.02790099914379,
,,,,,,,,,,,,,,,,5,8.6,9.3,10,10.7,11.4,0.7,0.1499999999999999,0.55,3.3499999999999996,10,initial,36.05,310,335,361,386,411,9,9,9,9,9,,,,,,,2,0,2,0,0,3,3,40,,,,,,,,,,,,,,5,1.2297978999558836,5,0.35,0.44999999999999996,16.21932,return,1.2445245999842882,,,,,,,,,,,,,,,,,p305,20,female,left_right_width,2025-11-25_11h34.32.467,exp1,2023.1.0,60.02790099914379,
,,,,,,,,,,,,,,,,5,8.65,9.325,10,10.675,11.35,0.675,0.125,0.55,3.25,10,match,36.05,312,336,361,385,409,9,9,9,9,9,,,,,,,2,0,2,0,0,4,4,29,,,,,,,,,,,,,,4,0.8658815999515355,4,0.4,0.45,16.21932,return,1.1028267000801861,,,,,,,,,,,,,,,,,p305,20,female,left_right_width,2025-11-25_11h34.32.467,exp1,2023.1.0,60.02790099914379,
,,,,,,,,,,,,,,,,3,8.9,10,11.1,0,0,1.1,0.8500000000000001,0.25,2.45,10,initial,36.05,321,361,400,0,0,9,9,9,0,0,,,,,,,2,0,2,0,0,5,5,2,,,,,,,,,,,,,,2,0.9708833999466151,2,0.2,0.25,9.01073,return,1.8591316000092775,,,,,,,,,,,,,,,,,p305,20,female,left_right_width,2025-11-25_11h34.32.467,exp1,2023.1.0,60.02790099914379,
,,,,,,,,,,,,,,,,4,8.35,9.45,10.55,11.65,0,1.1,0.8500000000000001,0.25,3.5500000000000003,10,initial,36.05,301,341,380,420,0,9,9,9,9,0,,,,,,,2,0,2,0,0,6,6,19,,,,,,,,,,,,,,4,0.97811719996389,4,0.5,0.30000000000000004,10.81288,return,2.138720399932936,,,,,,,,,,,,,,,,,p305,20,female,left_right_width,2025-11-25_11h34.32.467,exp1,2023.1.0,60.02790099914379,
,,,,,,,,,,,,,,,,3,8.2,10,11.8,0,0,1.8,1.55,0.25,3.85,10,match,36.05,296,361,425,0,0,9,9,9,0,0,,,,,,,2,0,2,0,0,7,7,49,,,,,,,,,,,,,,3,1.7868655000347644,3,0.3,0.3,10.81288,return,1.5062465000664815,,,,,,,,,,,,,,,,,p305,20,female,left_right_width,2025-11-25_11h34.32.467,exp1,2023.1.0,60.02790099914379,
,,,,,,,,,,,,,,,,3,9.3,10,10.7,0,0,0.7,0.1499999999999999,0.55,1.95,10,initial,36.05,335,361,386,0,0,9,9,9,0,0,,,,,,,2,0,2,0,0,8,8,6,,,,,,,,,,,,,,2,0.9155191999161616,2,0.35,0.5499999999999999,19.82361,return,1.181783500011079,,,,,,,,,,,,,,,,,p305,20,female,left_right_width,2025-11-25_11h34.32.467,exp1,2023.1.0,60.02790099914379,
,,,,,,,,,,,,,,,,4,8.65,9.55,10.45,11.35,0,0.9,0.65,0.25,2.95,10,initial,36.05,312,344,377,409,0,9,9,9,9,0,,,,,,,2,0,2,0,0,9,9,30,,,,,,,,,,,,,,4,0.9599628000287339,4,0.5,0.30000000000000004,10.81288,return,2.0394558999687433,,,,,,,,,,,,,,,,,p305,20,female,left_right_width,2025-11-25_11h34.32.467,exp1,2023.1.0,60.02790099914379,
,,,,,,,,,,,,,,,,5,7.8,8.9,10,11.1,12.2,1.1,0.7000000000000001,0.4,4.800000000000001,10,initial,36.05,281,321,361,400,440,9,9,9,9,9,,,,,,,2,0,2,0,0,10,10,38,,,,,,,,,,,,,,4,1.1841201999923214,4,0.45,0.4,14.41717,return,1.4703716000076383,,,,,,,,,,,,,,,,,p305,20,female,left_right_width,2025-11-25_11h34.32.467,exp1,2023.1.0,60.02790099914379,
,,,,,,,,,,,,,,,,5,8.65,9.325,10,10.675,11.35,0.675,0.42500000000000004,0.25,2.95,10,match,36.05,312,336,361,385,409,9,9,9,9,9,,,,,,,2,0,2,0,0,11,11,31,,,,,,,,,,,,,,4,1.4527524000732228,4,0.25,0.3,10.81288,return,1.601749200024642,,,,,,,,,,,,,,,,,p305,20,female,left_right_width,2025-11-25_11h34.32.467,exp1,2023.1.0,60.02790099914379,
,,,,,,,,,,,,,,,,3,8.6,10,11.4,0,0,1.4,0.85,0.55,3.35,10,match,36.05,310,361,411,0,0,9,9,9,0,0,,,,,,,2,0,2,0,0,12,12,41,,,,,,,,,,,,,,3,0.9855296000605449,3,0.55,0.55,19.82361,return,1.6333119999617338,,,,,,,,,,,,,,,,,p305,20,female,left_right_width,2025-11-25_11h34.32.467,exp1,2023.1.0,60.02790099914379,
,,,,,,,,,,,,,,,,3,7.8,10,12.2,0,0,2.2,1.65,0.55,4.95,10,match,36.05,281,361,440,0,0,9,9,9,0,0,,,,,,,2,0,2,0,0,13,13,35,,,,,,,,,,,,,,2,1.1227541000116616,2,0.3,0.49999999999999994,18.02146,return,1.3980183000676334,,,,,,,,,,,,,,,,,p305,20,female,left_right_width,2025-11-25_11h34.32.467,exp1,2023.1.0,60.02790099914379,
,,,,,,,,,,,,,,,,4,8.35,9.45,10.55,11.65,0,1.1,0.7000000000000001,0.4,3.7,10,initial,36.05,301,341,380,420,0,9,9,9,9,0,,,,,,,2,0,2,0,0,14,14,21,,,,,,,,,,,,,,4,0.9547155000036582,4,0.4,0.5,18.02146,return,1.3154786999803036,,,,,,,,,,,,,,,,,p305,20,female,left_right_width,2025-11-25_11h34.32.467,exp1,2023.1.0,60.02790099914379,
,,,,,,,,,,,,,,,,4,8.95,9.65,10.35,11.05,0,0.7,0.29999999999999993,0.4,2.5,10,initial,36.05,323,348,373,398,0,9,9,9,9,0,,,,,,,2,0,2,0,0,15,15,26,,,,,,,,,,,,,,4,1.392942599952221,4,0.35,0.44999999999999996,16.21932,return,1.6872850999934599,,,,,,,,,,,,,,,,,p305,20,female,left_right_width,2025-11-25_11h34.32.467,exp1,2023.1.0,60.02790099914379,
,,,,,,,,,,,,,,,,5,7.8,8.9,10,11.1,12.2,1.1,0.55,0.55,4.95,10,initial,36.05,281,321,361,400,440,9,9,9,9,9,,,,,,,2,0,2,0,0,16,16,34,,,,,,,,,,,,,,4,0.8215839999029413,4,0.25,0.44999999999999996,16.21932,return,1.3786310000577942,,,,,,,,,,,,,,,,,p305,20,female,left_right_width,2025-11-25_11h34.32.467,exp1,2023.1.0,60.02790099914379,
,,,,,,,,,,,,,,,,5,8.2,9.1,10,10.9,11.8,0.9,0.5,0.4,4,10,initial,36.05,296,328,361,393,425,9,9,9,9,9,,,,,,,2,0,2,0,0,17,17,50,,,,,,,,,,,,,,5,0.9493398000486195,5,0.25,0.39999999999999997,14.41717,return,1.2788574999431148,,,,,,,,,,,,,,,,,p305,20,female,left_right_width,2025-11-25_11h34.32.467,exp1,2023.1.0,60.02790099914379,
,,,,,,,,,,,,,,,,5,8.2,9.1,10,10.9,11.8,0.9,0.35,0.55,4.15,10,initial,36.05,296,328,361,393,425,9,9,9,9,9,,,,,,,2,0,2,0,0,18,18,46,,,,,,,,,,,,,,4,1.0513718000147492,4,0.45,0.55,19.82361,return,1.0561247000005096,,,,,,,,,,,,,,,,,p305,20,female,left_right_width,2025-11-25_11h34.32.467,exp1,2023.1.0,60.02790099914379,
,,,,,,,,,,,,,,,,4,8.9,9.633333333333333,10.366666666666667,11.1,0,0.7333333333333333,0.18333333333333326,0.55,2.75,10,match,36.05,321,347,374,400,0,9,9,9,9,0,,,,,,,2,0,2,0,0,19,19,1,,,,,,,,,,,,,,3,0.9697217999491841,3,0.2,0.44999999999999996,16.21932,return,3.504782099975273,,,,,,,,,,,,,,,,,p305,20,female,left_right_width,2025-11-25_11h34.32.467,exp1,2023.1.0,60.02790099914379,
,,,,,,,,,,,,,,,,4,8.35,9.45,10.55,11.65,0,1.1,0.55,0.55,3.8500000000000005,10,initial,36.05,301,341,380,420,0,9,9,9,9,0,,,,,,,2,0,2,0,0,20,20,17,,,,,,,,,,,,,,4,1.0522997000953183,4,0.2,0.44999999999999996,16.21932,return,1.7928425000282004,,,,,,,,,,,,,,,,,p305,20,female,left_right_width,2025-11-25_11h34.32.467,exp1,2023.1.0,60.02790099914379,
,,,,,,,,,,,,,,,,4,9.3,9.766666666666667,10.233333333333333,10.7,0,0.4666666666666667,0.06666666666666665,0.4,1.8,10,match,36.05,335,352,369,386,0,9,9,9,9,0,,,,,,,2,0,2,0,0,21,21,10,,,,,,,,,,,,,,3,2.038270399905741,3,0.4,0.6000000000000001,21.62576,return,1.3159521999768913,,,,,,,,,,,,,,,,,p305,20,female,left_right_width,2025-11-25_11h34.32.467,exp1,2023.1.0,60.02790099914379,
,,,,,,,,,,,,,,,,3,8.9,10,11.1,0,0,1.1,0.7000000000000001,0.4,2.6000000000000005,10,initial,36.05,321,361,400,0,0,9,9,9,0,0,,,,,,,2,0,2,0,0,22,22,4,,,,,,,,,,,,,,2,0.972100600018166,2,0.2,0.35,12.61502,return,1.6513718999922276,,,,,,,,,,,,,,,,,p305,20,female,left_right_width,2025-11-25_11h34.32.467,exp1,2023.1.0,60.02790099914379,
,,,,,,,,,,,,,,,,5,8.6,9.3,10,10.7,11.4,0.7,0.29999999999999993,0.4,3.1999999999999997,10,initial,36.05,310,335,361,386,411,9,9,9,9,9,,,,,,,2,0,2,0,0,23,23,44,,,,,,,,,,,,,,5,1.1775989999296144,5,0.25,0.44999999999999996,16.21932,return,2.888774299994111,,,,,,,,,,,,,,,,,p305,20,female,left_right_width,2025-11-25_11h34.32.467,exp1,2023.1.0,60.02790099914379,
,,,,,,,,,,,,,,,,5,8.65,9.325,10,10.675,11.35,0.675,0.275,0.4,3.1,10,match,36.05,312,336,361,385,409,9,9,9,9,9,,,,,,,2,0,2,0,0,24,24,33,,,,,,,,,,,,,,5,1.3049656000221148,5,0.25,0.39999999999999997,14.41717,return,1.2675878999289125,,,,,,,,,,,,,,,,,p305,20,female,left_right_width,2025-11-25_11h34.32.467,exp1,2023.1.0,60.02790099914379,
,,,,,,,,,,,,,,,,3,8.2,10,11.8,0,0,1.7999999999999998,1.4,0.4,4,10,match,36.05,296,361,425,0,0,9,9,9,0,0,,,,,,,2,0,2,0,0,25,25,51,,,,,,,,,,,,,,3,1.0735260000219569,3,0.2,0.35,12.61502,return,1.7012930000200868,,,,,,,,,,,,,,,,,p305,20,female,left_right_width,2025-11-25_11h34.32.467,exp1,2023.1.0,60.02790099914379,
,,,,,,,,,,,,,,,,5,7.8,8.9,10,11.1,12.2,1.1,0.8500000000000001,0.25,4.65,10,initial,36.05,281,321,361,400,440,9,9,9,9,9,,,,,,,2,0,2,0,0,26,26,36,,,,,,,,,,,,,,4,1.2472512000240386,4,0.5,0.25000000000000006,9.01073,return,3.019960099947639,,,,,,,,,,,,,,,,,p305,20,female,left_right_width,2025-11-25_11h34.32.467,exp1,2023.1.0,60.02790099914379,
,,,,,,,,,,,,,,,,3,9.1,10,10.9,0,0,0.9,0.5,0.4,2.2,10,initial,36.05,328,361,393,0,0,9,9,9,0,0,,,,,,,2,0,2,0,0,27,27,15,,,,,,,,,,,,,,2,1.0613982999930158,2,0.4,0.45,16.21932,return,1.0828820000169799,,,,,,,,,,,,,,,,,p305,20,female,left_right_width,2025-11-25_11h34.32.467,exp1,2023.1.0,60.02790099914379,
,,,,,,,,,,,,,,,,4,9.1,9.7,10.3,10.9,0,0.5999999999999999,0.3499999999999999,0.25,2.05,10,match,36.05,328,350,371,393,0,9,9,9,9,0,,,,,,,2,0,2,0,0,28,28,14,,,,,,,,,,,,,,4,1.0810816999292001,4,0.5,0.30000000000000004,10.81288,return,2.0292905000969768,,,,,,,,,,,,,,,,,p305,20,female,left_right_width,2025-11-25_11h34.32.467,exp1,2023.1.0,60.02790099914379,
,,,,,,,,,,,,,,,,4,9.1,9.7,10.3,10.9,0,0.6,0.04999999999999997,0.55,2.35,10,match,36.05,328,350,371,393,0,9,9,9,9,0,,,,,,,2,0,2,0,0,29,29,12,,,,,,,,,,,,,,4,1.2996235000900924,4,0.2,0.44999999999999996,16.21932,return,1.662030900013633,,,,,,,,,,,,,,,,,p305,20,female,left_right_width,2025-11-25_11h34.32.467,exp1,2023.1.0,60.02790099914379,
,,,,,,,,,,,,,,,,4,8.9,9.633333333333333,10.366666666666667,11.1,0,0.7333333333333334,0.4833333333333334,0.25,2.45,10,match,36.05,321,347,374,400,0,9,9,9,9,0,,,,,,,2,0,2,0,0,30,30,3,,,,,,,,,,,,,,3,0.8795895000221208,3,0.55,0.30000000000000004,10.81288,return,2.379020999884233,,,,,,,,,,,,,,,,,p305,20,female,left_right_width,2025-11-25_11h34.32.467,exp1,2023.1.0,60.02790099914379,
,,,,,,,,,,,,,,,,4,8.65,9.55,10.45,11.35,0,0.9,0.5,0.4,3.1,10,initial,36.05,312,344,377,409,0,9,9,9,9,0,,,,,,,2,0,2,0,0,31,31,32,,,,,,,,,,,,,,4,1.0531559000955895,4,0.35,0.35,12.61502,return,1.4740246000001207,,,,,,,,,,,,,,,,,p305,20,female,left_right_width,2025-11-25_11h34.32.467,exp1,2023.1.0,60.02790099914379,
,,,,,,,,,,,,,,,,4,8.95,9.65,10.35,11.05,0,0.7,0.1499999999999999,0.55,2.65,10,initial,36.05,323,348,373,398,0,9,9,9,9,0,,,,,,,2,0,2,0,0,32,32,23,,,,,,,,,,,,,,3,0.9113894999027252,3,0.45,0.55,19.82361,return,1.1307002000976354,,,,,,,,,,,,,,,,,p305,20,female,left_right_width,2025-11-25_11h34.32.467,exp1,2023.1.0,60.02790099914379,
,,,,,,,,,,,,,,,,4,9.1,9.7,10.3,10.9,0,0.6000000000000001,0.20000000000000004,0.4,2.2,10,match,36.05,328,350,371,393,0,9,9,9,9,0,,,,,,,2,0,2,0,0,33,33,16,,,,,,,,,,,,,,4,0.8845173999434337,4,0.25,0.44999999999999996,16.21932,return,1.632192000048235,,,,,,,,,,,,,,,,,p305,20,female,left_right_width,2025-11-25_11h34.32.467,exp1,2023.1.0,60.02790099914379,
,,,,,,,,,,,,,,,,3,9.3,10,10.7,0,0,0.7,0.29999999999999993,0.4,1.8,10,initial,36.05,335,361,386,0,0,9,9,9,0,0,,,,,,,2,0,2,0,0,34,34,9,,,,,,,,,,,,,,3,0.9980025999248028,3,0.45,0.45,16.21932,return,1.2612732999259606,,,,,,,,,,,,,,,,,p305,20,female,left_right_width,2025-11-25_11h34.32.467,exp1,2023.1.0,60.02790099914379,
,,,,,,,,,,,,,,,,5,8.35,9.175,10,10.825,11.65,0.8250000000000001,0.275,0.55,3.85,10,match,36.05,301,331,361,390,420,9,9,9,9,9,,,,,,,2,0,2,0,0,35,35,18,,,,,,,,,,,,,,4,1.795546400011517,4,0.2,0.44999999999999996,16.21932,return,1.578988999943249,,,,,,,,,,,,,,,,,p305,20,female,left_right_width,2025-11-25_11h34.32.467,exp1,2023.1.0,60.02790099914379,
,,,,,,,,,,,,,,,,3,8.525,10,11.475,0,0,1.475,1.225,0.25,3.2,10,match,36.05,307,361,414,0,0,9,9,9,0,0,,,,,,,2,0,2,0,0,36,36,45,,,,,,,,,,,,,,3,1.4849241999909282,3,0.2,0.3,10.81288,return,1.248738000052981,,,,,,,,,,,,,,,,,p305,20,female,left_right_width,2025-11-25_11h34.32.467,exp1,2023.1.0,60.02790099914379,
,,,,,,,,,,,,,,,,3,7.800000000000001,10,12.2,0,0,2.1999999999999997,1.7999999999999998,0.4,4.8,10,match,36.05,281,361,440,0,0,9,9,9,0,0,,,,,,,2,0,2,0,0,37,37,39,,,,,,,,,,,,,,3,0.8953422999475151,3,0.4,0.5,18.02146,return,1.0666220999555662,,,,,,,,,,,,,,,,,p305,20,female,left_right_width,2025-11-25_11h34.32.467,exp1,2023.1.0,60.02790099914379,
,,,,,,,,,,,,,,,,3,9.1,10,10.9,0,0,0.9,0.65,0.25,2.05,10,initial,36.05,328,361,393,0,0,9,9,9,0,0,,,,,,,2,0,2,0,0,38,38,13,,,,,,,,,,,,,,2,1.0979000999359414,2,0.25,0.35,12.61502,return,1.036513900035061,,,,,,,,,,,,,,,,,p305,20,female,left_right_width,2025-11-25_11h34.32.467,exp1,2023.1.0,60.02790099914379,
,,,,,,,,,,,,,,,,3,9.1,10,10.9,0,0,0.9,0.35,0.55,2.35,10,initial,36.05,328,361,393,0,0,9,9,9,0,0,,,,,,,2,0,2,0,0,39,39,11,,,,,,,,,,,,,,3,1.2994948000414297,3,0.35,0.39999999999999997,14.41717,return,2.4325762999942526,,,,,,,,,,,,,,,,,p305,20,female,left_right_width,2025-11-25_11h34.32.467,exp1,2023.1.0,60.02790099914379,
,,,,,,,,,,,,,,,,4,8.65,9.55,10.45,11.35,0,0.9,0.35,0.55,3.25,10,initial,36.05,312,344,377,409,0,9,9,9,9,0,,,,,,,2,0,2,0,0,40,40,28,,,,,,,,,,,,,,4,0.7596213000360876,4,0.4,0.5,18.02146,return,1.4645345999160782,,,,,,,,,,,,,,,,,p305,20,female,left_right_width,2025-11-25_11h34.32.467,exp1,2023.1.0,60.02790099914379,
,,,,,,,,,,,,,,,,5,8.275,9.1375,10,10.8625,11.725,0.8625,0.6125,0.25,3.7,10,match,36.05,298,329,361,392,423,9,9,9,9,9,,,,,,,2,0,2,0,0,41,41,22,,,,,,,,,,,,,,4,1.8089677999960259,4,0.4,0.25000000000000006,9.01073,return,1.4161208000732586,,,,,,,,,,,,,,,,,p305,20,female,left_right_width,2025-11-25_11h34.32.467,exp1,2023.1.0,60.02790099914379,
,,,,,,,,,,,,,,,,5,8.2,9.1,10,10.9,11.8,0.9,0.65,0.25,3.85,10,initial,36.05,296,328,361,393,425,9,9,9,9,9,,,,,,,2,0,2,0,0,42,42,48,,,,,,,,,,,,,,4,1.0145498999627307,4,0.4,0.25000000000000006,9.01073,return,1.1968295000260696,,,,,,,,,,,,,,,,,p305,20,female,left_right_width,2025-11-25_11h34.32.467,exp1,2023.1.0,60.02790099914379,
,,,,,,,,,,,,,,,,3,7.8,10,12.2,0,0,2.2,1.9500000000000002,0.25,4.65,10,match,36.05,281,361,440,0,0,9,9,9,0,0,,,,,,,2,0,2,0,0,43,43,37,,,,,,,,,,,,,,3,0.9853714000200853,3,0.2,0.25,9.01073,return,1.6341210000682622,,,,,,,,,,,,,,,,,p305,20,female,left_right_width,2025-11-25_11h34.32.467,exp1,2023.1.0,60.02790099914379,
,,,,,,,,,,,,,,,,3,8.2,10,11.8,0,0,1.8,1.25,0.55,4.15,10,match,36.05,296,361,425,0,0,9,9,9,0,0,,,,,,,2,0,2,0,0,44,44,47,,,,,,,,,,,,,,3,1.4250620000530034,3,0.35,0.39999999999999997,14.41717,return,1.5106667999643832,,,,,,,,,,,,,,,,,p305,20,female,left_right_width,2025-11-25_11h34.32.467,exp1,2023.1.0,60.02790099914379,
,,,,,,,,,,,,,,,,3,9.3,10,10.7,0,0,0.7,0.44999999999999996,0.25,1.65,10,initial,36.05,335,361,386,0,0,9,9,9,0,0,,,,,,,2,0,2,0,0,45,45,7,,,,,,,,,,,,,,3,1.5480384998954833,3,0.5,0.35000000000000003,12.61502,return,2.2366059999912977,,,,,,,,,,,,,,,,,p305,20,female,left_right_width,2025-11-25_11h34.32.467,exp1,2023.1.0,60.02790099914379,
,,,,,,,,,,,,,,,,4,8.825,9.608333333333333,10.391666666666667,11.175,0,0.7833333333333333,0.5333333333333333,0.25,2.6,10,match,36.05,318,346,375,403,0,9,9,9,9,0,,,,,,,2,0,2,0,0,46,46,5,,,,,,,,,,,,,,4,1.3441843000473455,4,0.2,0.25,9.01073,return,1.7209021999733523,,,,,,,,,,,,,,,,,p305,20,female,left_right_width,2025-11-25_11h34.32.467,exp1,2023.1.0,60.02790099914379,
,,,,,,,,,,,,,,,,5,8.95,9.475,10,10.525,11.05,0.525,0.275,0.25,2.35,10,match,36.05,323,342,361,379,398,9,9,9,9,9,,,,,,,2,0,2,0,0,47,47,25,,,,,,,,,,,,,,4,1.0479173000203446,4,0.55,0.30000000000000004,10.81288,return,2.5734832000453025,,,,,,,,,,,,,,,,,p305,20,female,left_right_width,2025-11-25_11h34.32.467,exp1,2023.1.0,60.02790099914379,
,,,,,,,,,,,,,,,,5,8.6,9.3,10,10.7,11.4,0.7,0.44999999999999996,0.25,3.05,10,initial,36.05,310,335,361,386,411,9,9,9,9,9,,,,,,,2,0,2,0,0,48,48,42,,,,,,,,,,,,,,4,0.8307896999176592,4,0.2,0.25,9.01073,return,1.5326298999134451,,,,,,,,,,,,,,,,,p305,20,female,left_right_width,2025-11-25_11h34.32.467,exp1,2023.1.0,60.02790099914379,
,,,,,,,,,,,,,,,,5,8.95,9.475,10,10.525,11.05,0.525,0.125,0.4,2.5,10,match,36.05,323,342,361,379,398,9,9,9,9,9,,,,,,,2,0,2,0,0,49,49,27,,,,,,,,,,,,,,4,1.3893458000384271,4,0.5,0.35000000000000003,12.61502,return,2.8995093998964876,,,,,,,,,,,,,,,,,p305,20,female,left_right_width,2025-11-25_11h34.32.467,exp1,2023.1.0,60.02790099914379,
,,,,,,,,,,,,,,,,5,8.35,9.175,10,10.825,11.65,0.825,0.575,0.25,3.55,10,match,36.05,301,331,361,390,420,9,9,9,9,9,,,,,,,2,0,2,0,0,50,50,20,,,,,,,,,,,,,,4,0.9296321999281645,4,0.25,0.35,12.61502,return,2.5079400999238715,,,,,,,,,,,,,,,,,p305,20,female,left_right_width,2025-11-25_11h34.32.467,exp1,2023.1.0,60.02790099914379,
,,,,,,,,,,,,,,,,4,9.3,9.766666666666667,10.233333333333333,10.7,0,0.4666666666666667,0.21666666666666665,0.25,1.65,10,match,36.05,335,352,369,386,0,9,9,9,9,0,,,,,,,2,0,2,0,0,51,51,8,,,,,,,,,,,,,,4,1.1992233999771997,4,0.25,0.3,10.81288,return,1.613255999982357,,,,,,,,,,,,,,,,,p305,20,female,left_right_width,2025-11-25_11h34.32.467,exp1,2023.1.0,60.02790099914379,
,,,,,,,,,,,,,,,,,,,,,,,,,,,,,,,,,,,,,,,,,,,,,2,0,2,0,,,,,,,,,,,,,,,,,,,,,,,,,,,,1432.0619191000005,1432.0619191000005,1432.0619191000005,,,,,,,,,,,,p305,20,female,left_right_width,2025-11-25_11h34.32.467,exp1,2023.1.0,60.02790099914379,
,,,,,,,,,,,,,,,,3,8.9,10,11.1,0,0,1.1,0.55,0.55,2.75,10,initial,36.05,321,361,400,0,0,9,9,9,0,0,,,,,,,3,0,3,0,0,0,0,0,,,,,,,,,,,,,,2,1.0221696000080556,2,0.2,0.39999999999999997,14.41717,return,2.5154728000052273,,,,,,,,,,,,,,,,,p305,20,female,left_right_width,2025-11-25_11h34.32.467,exp1,2023.1.0,60.02790099914379,
,,,,,,,,,,,,,,,,4,8.95,9.65,10.35,11.05,0,0.7,0.29999999999999993,0.4,2.5,10,initial,36.05,323,348,373,398,0,9,9,9,9,0,,,,,,,3,0,3,0,0,1,1,26,,,,,,,,,,,,,,3,1.1066723000258207,3,0.45,0.45,16.21932,return,0.7407984000165015,,,,,,,,,,,,,,,,,p305,20,female,left_right_width,2025-11-25_11h34.32.467,exp1,2023.1.0,60.02790099914379,
,,,,,,,,,,,,,,,,3,7.8,10,12.2,0,0,2.2,1.65,0.55,4.95,10,match,36.05,281,361,440,0,0,9,9,9,0,0,,,,,,,3,0,3,0,0,2,2,35,,,,,,,,,,,,,,3,0.8420788999646902,3,0.25,0.39999999999999997,14.41717,return,1.6884544000495225,,,,,,,,,,,,,,,,,p305,20,female,left_right_width,2025-11-25_11h34.32.467,exp1,2023.1.0,60.02790099914379,
,,,,,,,,,,,,,,,,5,8.95,9.475,10,10.525,11.05,0.525,0.275,0.25,2.35,10,match,36.05,323,342,361,379,398,9,9,9,9,9,,,,,,,3,0,3,0,0,3,3,25,,,,,,,,,,,,,,4,1.1115448999917135,4,0.5,0.35000000000000003,12.61502,return,2.45714680000674,,,,,,,,,,,,,,,,,p305,20,female,left_right_width,2025-11-25_11h34.32.467,exp1,2023.1.0,60.02790099914379,
,,,,,,,,,,,,,,,,3,9.3,10,10.7,0,0,0.7,0.44999999999999996,0.25,1.65,10,initial,36.05,335,361,386,0,0,9,9,9,0,0,,,,,,,3,0,3,0,0,4,4,7,,,,,,,,,,,,,,3,0.9383054999634624,3,0.4,0.35000000000000003,12.61502,return,1.027953700046055,,,,,,,,,,,,,,,,,p305,20,female,left_right_width,2025-11-25_11h34.32.467,exp1,2023.1.0,60.02790099914379,
,,,,,,,,,,,,,,,,4,9.1,9.7,10.3,10.9,0,0.6,0.04999999999999997,0.55,2.35,10,match,36.05,328,350,371,393,0,9,9,9,9,0,,,,,,,3,0,3,0,0,5,5,12,,,,,,,,,,,,,,3,0.9619653000263497,3,0.55,0.7000000000000002,25.23005,return,1.786150199943222,,,,,,,,,,,,,,,,,p305,20,female,left_right_width,2025-11-25_11h34.32.467,exp1,2023.1.0,60.02790099914379,
,,,,,,,,,,,,,,,,3,9.1,10,10.9,0,0,0.9,0.65,0.25,2.05,10,initial,36.05,328,361,393,0,0,9,9,9,0,0,,,,,,,3,0,3,0,0,6,6,13,,,,,,,,,,,,,,2,0.9489757000701502,2,0.4,0.35000000000000003,12.61502,return,1.631144899991341,,,,,,,,,,,,,,,,,p305,20,female,left_right_width,2025-11-25_11h34.32.467,exp1,2023.1.0,60.02790099914379,
,,,,,,,,,,,,,,,,4,8.95,9.65,10.35,11.05,0,0.7,0.1499999999999999,0.55,2.65,10,initial,36.05,323,348,373,398,0,9,9,9,9,0,,,,,,,3,0,3,0,0,7,7,23,,,,,,,,,,,,,,3,0.8493793000234291,3,0.3,0.39999999999999997,14.41717,return,1.1984320000046864,,,,,,,,,,,,,,,,,p305,20,female,left_right_width,2025-11-25_11h34.32.467,exp1,2023.1.0,60.02790099914379,
,,,,,,,,,,,,,,,,3,8.6,10,11.4,0,0,1.4,1.15,0.25,3.05,10,match,36.05,310,361,411,0,0,9,9,9,0,0,,,,,,,3,0,3,0,0,8,8,43,,,,,,,,,,,,,,3,1.2239672999130562,3,0.5,0.35000000000000003,12.61502,return,2.325908900005743,,,,,,,,,,,,,,,,,p305,20,female,left_right_width,2025-11-25_11h34.32.467,exp1,2023.1.0,60.02790099914379,
,,,,,,,,,,,,,,,,3,7.8,10,12.2,0,0,2.2,1.9500000000000002,0.25,4.65,10,match,36.05,281,361,440,0,0,9,9,9,0,0,,,,,,,3,0,3,0,0,9,9,37,,,,,,,,,,,,,,3,0.7851569000631571,3,0.5,0.35000000000000003,12.61502,return,1.24958299996797,,,,,,,,,,,,,,,,,p305,20,female,left_right_width,2025-11-25_11h34.32.467,exp1,2023.1.0,60.02790099914379,
,,,,,,,,,,,,,,,,5,8.65,9.325,10,10.675,11.35,0.675,0.275,0.4,3.1,10,match,36.05,312,336,361,385,409,9,9,9,9,9,,,,,,,3,0,3,0,0,10,10,33,,,,,,,,,,,,,,4,1.0589771000668406,4,0.4,0.30000000000000004,10.81288,return,1.5910033999243751,,,,,,,,,,,,,,,,,p305,20,female,left_right_width,2025-11-25_11h34.32.467,exp1,2023.1.0,60.02790099914379,
,,,,,,,,,,,,,,,,3,8.9,10,11.1,0,0,1.1,0.8500000000000001,0.25,2.45,10,initial,36.05,321,361,400,0,0,9,9,9,0,0,,,,,,,3,0,3,0,0,11,11,2,,,,,,,,,,,,,,2,0.9524241000181064,2,0.4,0.25000000000000006,9.01073,return,2.40099170000758,,,,,,,,,,,,,,,,,p305,20,female,left_right_width,2025-11-25_11h34.32.467,exp1,2023.1.0,60.02790099914379,
,,,,,,,,,,,,,,,,3,9.1,10,10.9,0,0,0.9,0.5,0.4,2.2,10,initial,36.05,328,361,393,0,0,9,9,9,0,0,,,,,,,3,0,3,0,0,12,12,15,,,,,,,,,,,,,,3,0.9475559999700636,3,0.5,0.4,14.41717,return,1.5174711999716237,,,,,,,,,,,,,,,,,p305,20,female,left_right_width,2025-11-25_11h34.32.467,exp1,2023.1.0,60.02790099914379,
,,,,,,,,,,,,,,,,5,8.65,9.325,10,10.675,11.35,0.675,0.42500000000000004,0.25,2.95,10,match,36.05,312,336,361,385,409,9,9,9,9,9,,,,,,,3,0,3,0,0,13,13,31,,,,,,,,,,,,,,4,0.8403242999920622,4,0.2,0.3,10.81288,return,1.7018179999431595,,,,,,,,,,,,,,,,,p305,20,female,left_right_width,2025-11-25_11h34.32.467,exp1,2023.1.0,60.02790099914379,
,,,,,,,,,,,,,,,,5,8.2,9.1,10,10.9,11.8,0.9,0.5,0.4,4,10,initial,36.05,296,328,361,393,425,9,9,9,9,9,,,,,,,3,0,3,0,0,14,14,50,,,,,,,,,,,,,,4,0.8991642999462783,4,0.45,0.35000000000000003,12.61502,return,1.4695767000084743,,,,,,,,,,,,,,,,,p305,20,female,left_right_width,2025-11-25_11h34.32.467,exp1,2023.1.0,60.02790099914379,
,,,,,,,,,,,,,,,,5,8.65,9.325,10,10.675,11.35,0.675,0.125,0.55,3.25,10,match,36.05,312,336,361,385,409,9,9,9,9,9,,,,,,,3,0,3,0,0,15,15,29,,,,,,,,,,,,,,3,1.2995655999984592,3,0.2,0.65,23.4279,return,3.3421575999818742,,,,,,,,,,,,,,,,,p305,20,female,left_right_width,2025-11-25_11h34.32.467,exp1,2023.1.0,60.02790099914379,
,,,,,,,,,,,,,,,,3,7.800000000000001,10,12.2,0,0,2.1999999999999997,1.7999999999999998,0.4,4.8,10,match,36.05,281,361,440,0,0,9,9,9,0,0,,,,,,,3,0,3,0,0,16,16,39,,,,,,,,,,,,,,3,1.424160199938342,3,0.5,0.6000000000000001,21.62576,return,1.8308791000163183,,,,,,,,,,,,,,,,,p305,20,female,left_right_width,2025-11-25_11h34.32.467,exp1,2023.1.0,60.02790099914379,
,,,,,,,,,,,,,,,,4,8.35,9.45,10.55,11.65,0,1.1,0.55,0.55,3.8500000000000005,10,initial,36.05,301,341,380,420,0,9,9,9,9,0,,,,,,,3,0,3,0,0,17,17,17,,,,,,,,,,,,,,4,1.4630070000421256,4,0.35,0.44999999999999996,16.21932,return,2.027283199946396,,,,,,,,,,,,,,,,,p305,20,female,left_right_width,2025-11-25_11h34.32.467,exp1,2023.1.0,60.02790099914379,
,,,,,,,,,,,,,,,,4,8.65,9.55,10.45,11.35,0,0.9,0.35,0.55,3.25,10,initial,36.05,312,344,377,409,0,9,9,9,9,0,,,,,,,3,0,3,0,0,18,18,28,,,,,,,,,,,,,,3,0.8614704998908564,3,0.4,0.5,18.02146,return,0.9862337000668049,,,,,,,,,,,,,,,,,p305,20,female,left_right_width,2025-11-25_11h34.32.467,exp1,2023.1.0,60.02790099914379,
,,,,,,,,,,,,,,,,5,8.35,9.175,10,10.825,11.65,0.8250000000000001,0.275,0.55,3.85,10,match,36.05,301,331,361,390,420,9,9,9,9,9,,,,,,,3,0,3,0,0,19,19,18,,,,,,,,,,,,,,5,1.0135185000253841,5,0.45,0.55,19.82361,return,1.467625999939628,,,,,,,,,,,,,,,,,p305,20,female,left_right_width,2025-11-25_11h34.32.467,exp1,2023.1.0,60.02790099914379,
,,,,,,,,,,,,,,,,5,8.275,9.1375,10,10.8625,11.725,0.8625,0.6125,0.25,3.7,10,match,36.05,298,329,361,392,423,9,9,9,9,9,,,,,,,3,0,3,0,0,20,20,22,,,,,,,,,,,,,,4,0.9325520000420511,4,0.25,0.3,10.81288,return,1.3262266999809071,,,,,,,,,,,,,,,,,p305,20,female,left_right_width,2025-11-25_11h34.32.467,exp1,2023.1.0,60.02790099914379,
,,,,,,,,,,,,,,,,5,8.2,9.1,10,10.9,11.8,0.9,0.65,0.25,3.85,10,initial,36.05,296,328,361,393,425,9,9,9,9,9,,,,,,,3,0,3,0,0,21,21,48,,,,,,,,,,,,,,4,1.1579902999801561,4,0.5,0.25000000000000006,9.01073,return,3.062819799990393,,,,,,,,,,,,,,,,,p305,20,female,left_right_width,2025-11-25_11h34.32.467,exp1,2023.1.0,60.02790099914379,
,,,,,,,,,,,,,,,,5,8.35,9.175,10,10.825,11.65,0.825,0.575,0.25,3.55,10,match,36.05,301,331,361,390,420,9,9,9,9,9,,,,,,,3,0,3,0,0,22,22,20,,,,,,,,,,,,,,5,1.0295544000109658,5,0.2,0.2,7.20859,return,1.3232981999171898,,,,,,,,,,,,,,,,,p305,20,female,left_right_width,2025-11-25_11h34.32.467,exp1,2023.1.0,60.02790099914379,
,,,,,,,,,,,,,,,,5,8.6,9.3,10,10.7,11.4,0.7,0.29999999999999993,0.4,3.1999999999999997,10,initial,36.05,310,335,361,386,411,9,9,9,9,9,,,,,,,3,0,3,0,0,23,23,44,,,,,,,,,,,,,,4,0.8562707999954,4,0.2,0.39999999999999997,14.41717,return,1.5723554000724107,,,,,,,,,,,,,,,,,p305,20,female,left_right_width,2025-11-25_11h34.32.467,exp1,2023.1.0,60.02790099914379,
,,,,,,,,,,,,,,,,4,8.65,9.55,10.45,11.35,0,0.9,0.65,0.25,2.95,10,initial,36.05,312,344,377,409,0,9,9,9,9,0,,,,,,,3,0,3,0,0,24,24,30,,,,,,,,,,,,,,4,0.9085498000495136,4,0.55,0.30000000000000004,10.81288,return,2.422878200071864,,,,,,,,,,,,,,,,,p305,20,female,left_right_width,2025-11-25_11h34.32.467,exp1,2023.1.0,60.02790099914379,
,,,,,,,,,,,,,,,,5,8.2,9.1,10,10.9,11.8,0.9,0.35,0.55,4.15,10,initial,36.05,296,328,361,393,425,9,9,9,9,9,,,,,,,3,0,3,0,0,25,25,46,,,,,,,,,,,,,,5,0.9266797000309452,5,0.3,0.49999999999999994,18.02146,return,1.5291087999939919,,,,,,,,,,,,,,,,,p305,20,female,left_right_width,2025-11-25_11h34.32.467,exp1,2023.1.0,60.02790099914379,
,,,,,,,,,,,,,,,,4,8.825,9.608333333333333,10.391666666666667,11.175,0,0.7833333333333333,0.5333333333333333,0.25,2.6,10,match,36.05,318,346,375,403,0,9,9,9,9,0,,,,,,,3,0,3,0,0,26,26,5,,,,,,,,,,,,,,4,0.9733313999604434,4,0.5,0.35000000000000003,12.61502,return,1.2052862000418827,,,,,,,,,,,,,,,,,p305,20,female,left_right_width,2025-11-25_11h34.32.467,exp1,2023.1.0,60.02790099914379,
,,,,,,,,,,,,,,,,4,8.9,9.633333333333333,10.366666666666667,11.1,0,0.7333333333333334,0.4833333333333334,0.25,2.45,10,match,36.05,321,347,374,400,0,9,9,9,9,0,,,,,,,3,0,3,0,0,27,27,3,,,,,,,,,,,,,,4,0.9414003000129014,4,0.45,0.45,16.21932,return,1.3024556000018492,,,,,,,,,,,,,,,,,p305,20,female,left_right_width,2025-11-25_11h34.32.467,exp1,2023.1.0,60.02790099914379,
,,,,,,,,,,,,,,,,4,8.9,9.633333333333333,10.366666666666667,11.1,0,0.7333333333333333,0.18333333333333326,0.55,2.75,10,match,36.05,321,347,374,400,0,9,9,9,9,0,,,,,,,3,0,3,0,0,28,28,1,,,,,,,,,,,,,,3,1.4433588000247255,3,0.5,0.5,18.02146,return,1.3208989999257028,,,,,,,,,,,,,,,,,p305,20,female,left_right_width,2025-11-25_11h34.32.467,exp1,2023.1.0,60.02790099914379,
,,,,,,,,,,,,,,,,4,8.35,9.45,10.55,11.65,0,1.1,0.7000000000000001,0.4,3.7,10,initial,36.05,301,341,380,420,0,9,9,9,9,0,,,,,,,3,0,3,0,0,29,29,21,,,,,,,,,,,,,,4,1.1108746000099927,4,0.4,0.45,16.21932,return,1.2900255999993533,,,,,,,,,,,,,,,,,p305,20,female,left_right_width,2025-11-25_11h34.32.467,exp1,2023.1.0,60.02790099914379,
,,,,,,,,,,,,,,,,3,8.525,10,11.475,0,0,1.475,1.225,0.25,3.2,10,match,36.05,307,361,414,0,0,9,9,9,0,0,,,,,,,3,0,3,0,0,30,30,45,,,,,,,,,,,,,,3,1.276820799917914,3,0.3,0.35,12.61502,return,1.2734939000802115,,,,,,,,,,,,,,,,,p305,20,female,left_right_width,2025-11-25_11h34.32.467,exp1,2023.1.0,60.02790099914379,
,,,,,,,,,,,,,,,,3,8.2,10,11.8,0,0,1.7999999999999998,1.4,0.4,4,10,match,36.05,296,361,425,0,0,9,9,9,0,0,,,,,,,3,0,3,0,0,31,31,51,,,,,,,,,,,,,,3,0.9213641999522224,3,0.25,0.35,12.61502,return,1.4260973000200465,,,,,,,,,,,,,,,,,p305,20,female,left_right_width,2025-11-25_11h34.32.467,exp1,2023.1.0,60.02790099914379,
,,,,,,,,,,,,,,,,3,8.9,10,11.1,0,0,1.1,0.7000000000000001,0.4,2.6000000000000005,10,initial,36.05,321,361,400,0,0,9,9,9,0,0,,,,,,,3,0,3,0,0,32,32,4,,,,,,,,,,,,,,3,0.9237813999643549,3,0.25,0.35,12.61502,return,1.3168316999217495,,,,,,,,,,,,,,,,,p305,20,female,left_right_width,2025-11-25_11h34.32.467,exp1,2023.1.0,60.02790099914379,
,,,,,,,,,,,,,,,,5,8.95,9.475,10,10.525,11.05,0.525,0.125,0.4,2.5,10,match,36.05,323,342,361,379,398,9,9,9,9,9,,,,,,,3,0,3,0,0,33,33,27,,,,,,,,,,,,,,4,0.8236267999745905,4,0.3,0.39999999999999997,14.41717,return,1.2215060000307858,,,,,,,,,,,,,,,,,p305,20,female,left_right_width,2025-11-25_11h34.32.467,exp1,2023.1.0,60.02790099914379,
,,,,,,,,,,,,,,,,4,9.1,9.7,10.3,10.9,0,0.6000000000000001,0.20000000000000004,0.4,2.2,10,match,36.05,328,350,371,393,0,9,9,9,9,0,,,,,,,3,0,3,0,0,34,34,16,,,,,,,,,,,,,,4,1.0028582999948412,4,0.5,0.6000000000000001,21.62576,return,1.1861277000280097,,,,,,,,,,,,,,,,,p305,20,female,left_right_width,2025-11-25_11h34.32.467,exp1,2023.1.0,60.02790099914379,
,,,,,,,,,,,,,,,,4,8.95,9.65,10.35,11.05,0,0.7,0.44999999999999996,0.25,2.3499999999999996,10,initial,36.05,323,348,373,398,0,9,9,9,9,0,,,,,,,3,0,3,0,0,35,35,24,,,,,,,,,,,,,,4,0.8844113000668585,4,0.3,0.35,12.61502,return,1.0710675000445917,,,,,,,,,,,,,,,,,p305,20,female,left_right_width,2025-11-25_11h34.32.467,exp1,2023.1.0,60.02790099914379,
,,,,,,,,,,,,,,,,4,9.3,9.766666666666667,10.233333333333333,10.7,0,0.4666666666666667,0.21666666666666665,0.25,1.65,10,match,36.05,335,352,369,386,0,9,9,9,9,0,,,,,,,3,0,3,0,0,36,36,8,,,,,,,,,,,,,,4,0.9021089000161737,4,0.5,0.5,18.02146,return,0.19342719996348023,,,,,,,,,,,,,,,,,p305,20,female,left_right_width,2025-11-25_11h34.32.467,exp1,2023.1.0,60.02790099914379,
,,,,,,,,,,,,,,,,3,8.2,10,11.8,0,0,1.8,1.25,0.55,4.15,10,match,36.05,296,361,425,0,0,9,9,9,0,0,,,,,,,3,0,3,0,0,37,37,47,,,,,,,,,,,,,,3,0.9159191999351606,3,0.4,0.5,18.02146,return,0.9738848999841139,,,,,,,,,,,,,,,,,p305,20,female,left_right_width,2025-11-25_11h34.32.467,exp1,2023.1.0,60.02790099914379,
,,,,,,,,,,,,,,,,5,7.8,8.9,10,11.1,12.2,1.1,0.55,0.55,4.95,10,initial,36.05,281,321,361,400,440,9,9,9,9,9,,,,,,,3,0,3,0,0,38,38,34,,,,,,,,,,,,,,5,1.177003699936904,5,0.35,0.5499999999999999,19.82361,return,1.6723504000110552,,,,,,,,,,,,,,,,,p305,20,female,left_right_width,2025-11-25_11h34.32.467,exp1,2023.1.0,60.02790099914379,
,,,,,,,,,,,,,,,,3,9.1,10,10.9,0,0,0.9,0.35,0.55,2.35,10,initial,36.05,328,361,393,0,0,9,9,9,0,0,,,,,,,3,0,3,0,0,39,39,11,,,,,,,,,,,,,,2,1.052278699935414,2,0.25,0.39999999999999997,14.41717,return,1.232166999951005,,,,,,,,,,,,,,,,,p305,20,female,left_right_width,2025-11-25_11h34.32.467,exp1,2023.1.0,60.02790099914379,
,,,,,,,,,,,,,,,,4,9.3,9.766666666666667,10.233333333333333,10.7,0,0.4666666666666667,0.06666666666666665,0.4,1.8,10,match,36.05,335,352,369,386,0,9,9,9,9,0,,,,,,,3,0,3,0,0,40,40,10,,,,,,,,,,,,,,3,2.2787272999994457,3,0.25,0.44999999999999996,16.21932,return,1.2595642000669613,,,,,,,,,,,,,,,,,p305,20,female,left_right_width,2025-11-25_11h34.32.467,exp1,2023.1.0,60.02790099914379,
,,,,,,,,,,,,,,,,3,8.6,10,11.4,0,0,1.4,0.85,0.55,3.35,10,match,36.05,310,361,411,0,0,9,9,9,0,0,,,,,,,3,0,3,0,0,41,41,41,,,,,,,,,,,,,,2,1.1038032999495044,2,0.2,0.7000000000000001,25.23005,return,3.4583205999806523,,,,,,,,,,,,,,,,,p305,20,female,left_right_width,2025-11-25_11h34.32.467,exp1,2023.1.0,60.02790099914379,
,,,,,,,,,,,,,,,,4,8.35,9.45,10.55,11.65,0,1.1,0.8500000000000001,0.25,3.5500000000000003,10,initial,36.05,301,341,380,420,0,9,9,9,9,0,,,,,,,3,0,3,0,0,42,42,19,,,,,,,,,,,,,,4,1.0388459999812767,4,0.35,0.25,9.01073,return,2.3554809000343084,,,,,,,,,,,,,,,,,p305,20,female,left_right_width,2025-11-25_11h34.32.467,exp1,2023.1.0,60.02790099914379,
,,,,,,,,,,,,,,,,4,9.1,9.7,10.3,10.9,0,0.5999999999999999,0.3499999999999999,0.25,2.05,10,match,36.05,328,350,371,393,0,9,9,9,9,0,,,,,,,3,0,3,0,0,43,43,14,,,,,,,,,,,,,,4,0.8121441000839695,4,0.35,0.2,7.20859,return,1.2920910000102594,,,,,,,,,,,,,,,,,p305,20,female,left_right_width,2025-11-25_11h34.32.467,exp1,2023.1.0,60.02790099914379,
,,,,,,,,,,,,,,,,5,8.6,9.3,10,10.7,11.4,0.7,0.44999999999999996,0.25,3.05,10,initial,36.05,310,335,361,386,411,9,9,9,9,9,,,,,,,3,0,3,0,0,44,44,42,,,,,,,,,,,,,,4,0.949177399976179,4,0.5,0.25000000000000006,9.01073,return,1.9342224000720307,,,,,,,,,,,,,,,,,p305,20,female,left_right_width,2025-11-25_11h34.32.467,exp1,2023.1.0,60.02790099914379,
,,,,,,,,,,,,,,,,3,8.2,10,11.8,0,0,1.8,1.55,0.25,3.85,10,match,36.05,296,361,425,0,0,9,9,9,0,0,,,,,,,3,0,3,0,0,45,45,49,,,,,,,,,,,,,,3,1.1140159000642598,3,0.45,0.20000000000000007,7.20859,return,1.6761813999619335,,,,,,,,,,,,,,,,,p305,20,female,left_right_width,2025-11-25_11h34.32.467,exp1,2023.1.0,60.02790099914379,
,,,,,,,,,,,,,,,,5,8.6,9.3,10,10.7,11.4,0.7,0.1499999999999999,0.55,3.3499999999999996,10,initial,36.05,310,335,361,386,411,9,9,9,9,9,,,,,,,3,0,3,0,0,46,46,40,,,,,,,,,,,,,,4,1.4433327000588179,4,0.2,0.5499999999999999,19.82361,return,2.728134599979967,,,,,,,,,,,,,,,,,p305,20,female,left_right_width,2025-11-25_11h34.32.467,exp1,2023.1.0,60.02790099914379,
,,,,,,,,,,,,,,,,3,9.3,10,10.7,0,0,0.7,0.29999999999999993,0.4,1.8,10,initial,36.05,335,361,386,0,0,9,9,9,0,0,,,,,,,3,0,3,0,0,47,47,9,,,,,,,,,,,,,,3,0.9100168999284506,3,0.4,0.4,14.41717,return,1.1291561999823898,,,,,,,,,,,,,,,,,p305,20,female,left_right_width,2025-11-25_11h34.32.467,exp1,2023.1.0,60.02790099914379,
,,,,,,,,,,,,,,,,5,7.8,8.9,10,11.1,12.2,1.1,0.7000000000000001,0.4,4.800000000000001,10,initial,36.05,281,321,361,400,440,9,9,9,9,9,,,,,,,3,0,3,0,0,48,48,38,,,,,,,,,,,,,,5,1.058770600007847,5,0.2,0.39999999999999997,14.41717,return,1.3348198999883607,,,,,,,,,,,,,,,,,p305,20,female,left_right_width,2025-11-25_11h34.32.467,exp1,2023.1.0,60.02790099914379,
,,,,,,,,,,,,,,,,4,8.65,9.55,10.45,11.35,0,0.9,0.5,0.4,3.1,10,initial,36.05,312,344,377,409,0,9,9,9,9,0,,,,,,,3,0,3,0,0,49,49,32,,,,,,,,,,,,,,4,1.316104399971664,4,0.2,0.49999999999999994,18.02146,return,2.605463600018993,,,,,,,,,,,,,,,,,p305,20,female,left_right_width,2025-11-25_11h34.32.467,exp1,2023.1.0,60.02790099914379,
,,,,,,,,,,,,,,,,5,7.8,8.9,10,11.1,12.2,1.1,0.8500000000000001,0.25,4.65,10,initial,36.05,281,321,361,400,440,9,9,9,9,9,,,,,,,3,0,3,0,0,50,50,36,,,,,,,,,,,,,,4,1.112736999988556,4,0.45,0.25000000000000006,9.01073,return,1.48310740001034,,,,,,,,,,,,,,,,,p305,20,female,left_right_width,2025-11-25_11h34.32.467,exp1,2023.1.0,60.02790099914379,
,,,,,,,,,,,,,,,,3,9.3,10,10.7,0,0,0.7,0.1499999999999999,0.55,1.95,10,initial,36.05,335,361,386,0,0,9,9,9,0,0,,,,,,,3,0,3,0,0,51,51,6,,,,,,,,,,,,,,3,1.177849700092338,3,0.45,0.55,19.82361,return,1.449405400082469,,,,,,,,,,,,,,,,,p305,20,female,left_right_width,2025-11-25_11h34.32.467,exp1,2023.1.0,60.02790099914379,
,,,,,,,,,,,,,,,,,,,,,,,,,,,,,,,,,,,,,,,,,,,,,3,0,3,0,,,,,,,,,,,,,,,,,,,,,,,,,,,,1673.5950931999832,1673.5950931999832,1673.5950931999832,,,,,,,,,,,,p305,20,female,left_right_width,2025-11-25_11h34.32.467,exp1,2023.1.0,60.02790099914379,
,,,,,,,,,,,,,,,,3,8.9,10,11.1,0,0,1.1,0.8500000000000001,0.25,2.45,10,initial,36.05,321,361,400,0,0,9,9,9,0,0,,,,,,,4,0,4,0,0,0,0,2,,,,,,,,,,,,,,3,1.3786879000253975,3,0.35,0.25,9.01073,return,1.6428103999933228,,,,,,,,,,,,,,,,,p305,20,female,left_right_width,2025-11-25_11h34.32.467,exp1,2023.1.0,60.02790099914379,
,,,,,,,,,,,,,,,,4,9.1,9.7,10.3,10.9,0,0.6000000000000001,0.20000000000000004,0.4,2.2,10,match,36.05,328,350,371,393,0,9,9,9,9,0,,,,,,,4,0,4,0,0,1,1,16,,,,,,,,,,,,,,3,0.6683555000927299,3,0.2,0.3,10.81288,return,1.7604728000005707,,,,,,,,,,,,,,,,,p305,20,female,left_right_width,2025-11-25_11h34.32.467,exp1,2023.1.0,60.02790099914379,
,,,,,,,,,,,,,,,,4,8.35,9.45,10.55,11.65,0,1.1,0.7000000000000001,0.4,3.7,10,initial,36.05,301,341,380,420,0,9,9,9,9,0,,,,,,,4,0,4,0,0,2,2,21,,,,,,,,,,,,,,3,0.6951174999121577,3,0.35,0.3,10.81288,return,1.3862515999935567,,,,,,,,,,,,,,,,,p305,20,female,left_right_width,2025-11-25_11h34.32.467,exp1,2023.1.0,60.02790099914379,
,,,,,,,,,,,,,,,,5,8.275,9.1375,10,10.8625,11.725,0.8625,0.6125,0.25,3.7,10,match,36.05,298,329,361,392,423,9,9,9,9,9,,,,,,,4,0,4,0,0,3,3,22,,,,,,,,,,,,,,4,0.8209782999474555,4,0.3,0.25,9.01073,return,2.5640721999807283,,,,,,,,,,,,,,,,,p305,20,female,left_right_width,2025-11-25_11h34.32.467,exp1,2023.1.0,60.02790099914379,
,,,,,,,,,,,,,,,,3,8.2,10,11.8,0,0,1.8,1.25,0.55,4.15,10,match,36.05,296,361,425,0,0,9,9,9,0,0,,,,,,,4,0,4,0,0,4,4,47,,,,,,,,,,,,,,4,1.4140428999671713,4,0.4,0.5,18.02146,return,1.7887117000063881,,,,,,,,,,,,,,,,,p305,20,female,left_right_width,2025-11-25_11h34.32.467,exp1,2023.1.0,60.02790099914379,
,,,,,,,,,,,,,,,,3,9.3,10,10.7,0,0,0.7,0.1499999999999999,0.55,1.95,10,initial,36.05,335,361,386,0,0,9,9,9,0,0,,,,,,,4,0,4,0,0,5,5,6,,,,,,,,,,,,,,2,0.98890640004538,2,0.25,0.5499999999999999,19.82361,return,1.6832718000514433,,,,,,,,,,,,,,,,,p305,20,female,left_right_width,2025-11-25_11h34.32.467,exp1,2023.1.0,60.02790099914379,
,,,,,,,,,,,,,,,,4,8.65,9.55,10.45,11.35,0,0.9,0.5,0.4,3.1,10,initial,36.05,312,344,377,409,0,9,9,9,9,0,,,,,,,4,0,4,0,0,6,6,32,,,,,,,,,,,,,,3,0.7940917999949306,3,0.55,0.6000000000000001,21.62576,return,1.001751899952069,,,,,,,,,,,,,,,,,p305,20,female,left_right_width,2025-11-25_11h34.32.467,exp1,2023.1.0,60.02790099914379,
,,,,,,,,,,,,,,,,5,7.8,8.9,10,11.1,12.2,1.1,0.55,0.55,4.95,10,initial,36.05,281,321,361,400,440,9,9,9,9,9,,,,,,,4,0,4,0,0,7,7,34,,,,,,,,,,,,,,4,1.2456844999687746,4,0.2,0.39999999999999997,14.41717,return,1.3072667999658734,,,,,,,,,,,,,,,,,p305,20,female,left_right_width,2025-11-25_11h34.32.467,exp1,2023.1.0,60.02790099914379,
,,,,,,,,,,,,,,,,4,9.3,9.766666666666667,10.233333333333333,10.7,0,0.4666666666666667,0.06666666666666665,0.4,1.8,10,match,36.05,335,352,369,386,0,9,9,9,9,0,,,,,,,4,0,4,0,0,8,8,10,,,,,,,,,,,,,,4,1.4437978999922052,4,0.35,0.6,21.62576,return,1.4175450999755412,,,,,,,,,,,,,,,,,p305,20,female,left_right_width,2025-11-25_11h34.32.467,exp1,2023.1.0,60.02790099914379,
,,,,,,,,,,,,,,,,4,8.95,9.65,10.35,11.05,0,0.7,0.1499999999999999,0.55,2.65,10,initial,36.05,323,348,373,398,0,9,9,9,9,0,,,,,,,4,0,4,0,0,9,9,23,,,,,,,,,,,,,,3,1.1916115999920294,3,0.35,0.6,21.62576,return,1.686280500027351,,,,,,,,,,,,,,,,,p305,20,female,left_right_width,2025-11-25_11h34.32.467,exp1,2023.1.0,60.02790099914379,
,,,,,,,,,,,,,,,,5,8.2,9.1,10,10.9,11.8,0.9,0.5,0.4,4,10,initial,36.05,296,328,361,393,425,9,9,9,9,9,,,,,,,4,0,4,0,0,10,10,50,,,,,,,,,,,,,,4,0.8583946999860927,4,0.3,0.44999999999999996,16.21932,return,0.902323400019668,,,,,,,,,,,,,,,,,p305,20,female,left_right_width,2025-11-25_11h34.32.467,exp1,2023.1.0,60.02790099914379,
,,,,,,,,,,,,,,,,3,7.8,10,12.2,0,0,2.2,1.9500000000000002,0.25,4.65,10,match,36.05,281,361,440,0,0,9,9,9,0,0,,,,,,,4,0,4,0,0,11,11,37,,,,,,,,,,,,,,3,1.0659766999306157,3,0.4,0.30000000000000004,10.81288,return,1.2782333999639377,,,,,,,,,,,,,,,,,p305,20,female,left_right_width,2025-11-25_11h34.32.467,exp1,2023.1.0,60.02790099914379,
,,,,,,,,,,,,,,,,3,9.3,10,10.7,0,0,0.7,0.29999999999999993,0.4,1.8,10,initial,36.05,335,361,386,0,0,9,9,9,0,0,,,,,,,4,0,4,0,0,12,12,9,,,,,,,,,,,,,,2,1.0447967000072822,2,0.2,0.49999999999999994,18.02146,return,2.2660675999941304,,,,,,,,,,,,,,,,,p305,20,female,left_right_width,2025-11-25_11h34.32.467,exp1,2023.1.0,60.02790099914379,
,,,,,,,,,,,,,,,,5,8.6,9.3,10,10.7,11.4,0.7,0.29999999999999993,0.4,3.1999999999999997,10,initial,36.05,310,335,361,386,411,9,9,9,9,9,,,,,,,4,0,4,0,0,13,13,44,,,,,,,,,,,,,,4,1.1906193000031635,4,0.4,0.5,18.02146,return,0.8387282999465242,,,,,,,,,,,,,,,,,p305,20,female,left_right_width,2025-11-25_11h34.32.467,exp1,2023.1.0,60.02790099914379,
,,,,,,,,,,,,,,,,5,8.65,9.325,10,10.675,11.35,0.675,0.125,0.55,3.25,10,match,36.05,312,336,361,385,409,9,9,9,9,9,,,,,,,4,0,4,0,0,14,14,29,,,,,,,,,,,,,,3,0.9016145000932738,3,0.4,0.6500000000000001,23.4279,return,1.3268570000072941,,,,,,,,,,,,,,,,,p305,20,female,left_right_width,2025-11-25_11h34.32.467,exp1,2023.1.0,60.02790099914379,
,,,,,,,,,,,,,,,,3,8.9,10,11.1,0,0,1.1,0.7000000000000001,0.4,2.6000000000000005,10,initial,36.05,321,361,400,0,0,9,9,9,0,0,,,,,,,4,0,4,0,0,15,15,4,,,,,,,,,,,,,,2,1.0476166000589728,2,0.4,0.6000000000000001,21.62576,return,1.2610096000134945,,,,,,,,,,,,,,,,,p305,20,female,left_right_width,2025-11-25_11h34.32.467,exp1,2023.1.0,60.02790099914379,
,,,,,,,,,,,,,,,,5,8.65,9.325,10,10.675,11.35,0.675,0.275,0.4,3.1,10,match,36.05,312,336,361,385,409,9,9,9,9,9,,,,,,,4,0,4,0,0,16,16,33,,,,,,,,,,,,,,4,1.29369720001705,4,0.3,0.44999999999999996,16.21932,return,1.560895700007677,,,,,,,,,,,,,,,,,p305,20,female,left_right_width,2025-11-25_11h34.32.467,exp1,2023.1.0,60.02790099914379,
,,,,,,,,,,,,,,,,5,8.65,9.325,10,10.675,11.35,0.675,0.42500000000000004,0.25,2.95,10,match,36.05,312,336,361,385,409,9,9,9,9,9,,,,,,,4,0,4,0,0,17,17,31,,,,,,,,,,,,,,4,0.8939338000491261,4,0.5,0.35000000000000003,12.61502,return,2.6328121999977157,,,,,,,,,,,,,,,,,p305,20,female,left_right_width,2025-11-25_11h34.32.467,exp1,2023.1.0,60.02790099914379,
,,,,,,,,,,,,,,,,4,9.1,9.7,10.3,10.9,0,0.5999999999999999,0.3499999999999999,0.25,2.05,10,match,36.05,328,350,371,393,0,9,9,9,9,0,,,,,,,4,0,4,0,0,18,18,14,,,,,,,,,,,,,,4,0.9633190000895411,4,0.25,0.35,12.61502,return,2.955859399982728,,,,,,,,,,,,,,,,,p305,20,female,left_right_width,2025-11-25_11h34.32.467,exp1,2023.1.0,60.02790099914379,
,,,,,,,,,,,,,,,,4,8.35,9.45,10.55,11.65,0,1.1,0.8500000000000001,0.25,3.5500000000000003,10,initial,36.05,301,341,380,420,0,9,9,9,9,0,,,,,,,4,0,4,0,0,19,19,19,,,,,,,,,,,,,,4,1.0863503000000492,4,0.35,0.35,12.61502,return,1.1860492000123486,,,,,,,,,,,,,,,,,p305,20,female,left_right_width,2025-11-25_11h34.32.467,exp1,2023.1.0,60.02790099914379,
,,,,,,,,,,,,,,,,4,8.95,9.65,10.35,11.05,0,0.7,0.44999999999999996,0.25,2.3499999999999996,10,initial,36.05,323,348,373,398,0,9,9,9,9,0,,,,,,,4,0,4,0,0,20,20,24,,,,,,,,,,,,,,4,0.8910477999597788,4,0.2,0.35,12.61502,return,1.6216769000748172,,,,,,,,,,,,,,,,,p305,20,female,left_right_width,2025-11-25_11h34.32.467,exp1,2023.1.0,60.02790099914379,
,,,,,,,,,,,,,,,,4,9.1,9.7,10.3,10.9,0,0.6,0.04999999999999997,0.55,2.35,10,match,36.05,328,350,371,393,0,9,9,9,9,0,,,,,,,4,0,4,0,0,21,21,12,,,,,,,,,,,,,,4,1.2374904999742284,4,0.5,0.9000000000000004,32.43864,return,2.8030897000571713,,,,,,,,,,,,,,,,,p305,20,female,left_right_width,2025-11-25_11h34.32.467,exp1,2023.1.0,60.02790099914379,
,,,,,,,,,,,,,,,,4,8.65,9.55,10.45,11.35,0,0.9,0.65,0.25,2.95,10,initial,36.05,312,344,377,409,0,9,9,9,9,0,,,,,,,4,0,4,0,0,22,22,30,,,,,,,,,,,,,,4,1.0307896999875084,4,0.25,0.25,9.01073,return,0.8927187999943271,,,,,,,,,,,,,,,,,p305,20,female,left_right_width,2025-11-25_11h34.32.467,exp1,2023.1.0,60.02790099914379,
,,,,,,,,,,,,,,,,5,8.6,9.3,10,10.7,11.4,0.7,0.44999999999999996,0.25,3.05,10,initial,36.05,310,335,361,386,411,9,9,9,9,9,,,,,,,4,0,4,0,0,23,23,42,,,,,,,,,,,,,,4,0.9139319000532851,4,0.4,0.25000000000000006,9.01073,return,1.7074936999706551,,,,,,,,,,,,,,,,,p305,20,female,left_right_width,2025-11-25_11h34.32.467,exp1,2023.1.0,60.02790099914379,
,,,,,,,,,,,,,,,,5,8.6,9.3,10,10.7,11.4,0.7,0.1499999999999999,0.55,3.3499999999999996,10,initial,36.05,310,335,361,386,411,9,9,9,9,9,,,,,,,4,0,4,0,0,24,24,40,,,,,,,,,,,,,,4,1.2654983000829816,4,0.2,0.3,10.81288,return,1.5819570000749081,,,,,,,,,,,,,,,,,p305,20,female,left_right_width,2025-11-25_11h34.32.467,exp1,2023.1.0,60.02790099914379,
,,,,,,,,,,,,,,,,5,8.35,9.175,10,10.825,11.65,0.8250000000000001,0.275,0.55,3.85,10,match,36.05,301,331,361,390,420,9,9,9,9,9,,,,,,,4,0,4,0,0,25,25,18,,,,,,,,,,,,,,4,1.0667426000582054,4,0.25,0.39999999999999997,14.41717,return,1.3602626000065356,,,,,,,,,,,,,,,,,p305,20,female,left_right_width,2025-11-25_11h34.32.467,exp1,2023.1.0,60.02790099914379,
,,,,,,,,,,,,,,,,3,9.1,10,10.9,0,0,0.9,0.35,0.55,2.35,10,initial,36.05,328,361,393,0,0,9,9,9,0,0,,,,,,,4,0,4,0,0,26,26,11,,,,,,,,,,,,,,3,1.079327000072226,3,0.35,0.49999999999999994,18.02146,return,1.0676377000054345,,,,,,,,,,,,,,,,,p305,20,female,left_right_width,2025-11-25_11h34.32.467,exp1,2023.1.0,60.02790099914379,
,,,,,,,,,,,,,,,,3,9.1,10,10.9,0,0,0.9,0.65,0.25,2.05,10,initial,36.05,328,361,393,0,0,9,9,9,0,0,,,,,,,4,0,4,0,0,27,27,13,,,,,,,,,,,,,,2,1.4889294999884441,2,0.3,0.39999999999999997,14.41717,return,1.0923971000593156,,,,,,,,,,,,,,,,,p305,20,female,left_right_width,2025-11-25_11h34.32.467,exp1,2023.1.0,60.02790099914379,
,,,,,,,,,,,,,,,,3,8.9,10,11.1,0,0,1.1,0.55,0.55,2.75,10,initial,36.05,321,361,400,0,0,9,9,9,0,0,,,,,,,4,0,4,0,0,28,28,0,,,,,,,,,,,,,,2,1.0013702999567613,2,0.3,0.39999999999999997,14.41717,return,0.7522859999444336,,,,,,,,,,,,,,,,,p305,20,female,left_right_width,2025-11-25_11h34.32.467,exp1,2023.1.0,60.02790099914379,
,,,,,,,,,,,,,,,,3,9.1,10,10.9,0,0,0.9,0.5,0.4,2.2,10,initial,36.05,328,361,393,0,0,9,9,9,0,0,,,,,,,4,0,4,0,0,29,29,15,,,,,,,,,,,,,,3,0.9846464999718592,3,0.2,0.35,12.61502,return,1.535588699975051,,,,,,,,,,,,,,,,,p305,20,female,left_right_width,2025-11-25_11h34.32.467,exp1,2023.1.0,60.02790099914379,
,,,,,,,,,,,,,,,,3,9.3,10,10.7,0,0,0.7,0.44999999999999996,0.25,1.65,10,initial,36.05,335,361,386,0,0,9,9,9,0,0,,,,,,,4,0,4,0,0,30,30,7,,,,,,,,,,,,,,3,0.8034822000190616,3,0.3,0.44999999999999996,16.21932,return,1.0582690000301227,,,,,,,,,,,,,,,,,p305,20,female,left_right_width,2025-11-25_11h34.32.467,exp1,2023.1.0,60.02790099914379,
,,,,,,,,,,,,,,,,3,7.8,10,12.2,0,0,2.2,1.65,0.55,4.95,10,match,36.05,281,361,440,0,0,9,9,9,0,0,,,,,,,4,0,4,0,0,31,31,35,,,,,,,,,,,,,,3,1.0728503999998793,3,0.35,0.5499999999999999,19.82361,return,1.1563859999878332,,,,,,,,,,,,,,,,,p305,20,female,left_right_width,2025-11-25_11h34.32.467,exp1,2023.1.0,60.02790099914379,
,,,,,,,,,,,,,,,,5,7.8,8.9,10,11.1,12.2,1.1,0.7000000000000001,0.4,4.800000000000001,10,initial,36.05,281,321,361,400,440,9,9,9,9,9,,,,,,,4,0,4,0,0,32,32,38,,,,,,,,,,,,,,4,0.8643330000340939,4,0.3,0.49999999999999994,18.02146,return,1.2608727000188082,,,,,,,,,,,,,,,,,p305,20,female,left_right_width,2025-11-25_11h34.32.467,exp1,2023.1.0,60.02790099914379,
,,,,,,,,,,,,,,,,4,8.35,9.45,10.55,11.65,0,1.1,0.55,0.55,3.8500000000000005,10,initial,36.05,301,341,380,420,0,9,9,9,9,0,,,,,,,4,0,4,0,0,33,33,17,,,,,,,,,,,,,,4,0.9408177000004798,4,0.2,0.44999999999999996,16.21932,return,1.8789324999088421,,,,,,,,,,,,,,,,,p305,20,female,left_right_width,2025-11-25_11h34.32.467,exp1,2023.1.0,60.02790099914379,
,,,,,,,,,,,,,,,,4,8.95,9.65,10.35,11.05,0,0.7,0.29999999999999993,0.4,2.5,10,initial,36.05,323,348,373,398,0,9,9,9,9,0,,,,,,,4,0,4,0,0,34,34,26,,,,,,,,,,,,,,4,0.9044381999410689,4,0.55,0.45,16.21932,return,2.5469644999830052,,,,,,,,,,,,,,,,,p305,20,female,left_right_width,2025-11-25_11h34.32.467,exp1,2023.1.0,60.02790099914379,
,,,,,,,,,,,,,,,,5,8.35,9.175,10,10.825,11.65,0.825,0.575,0.25,3.55,10,match,36.05,301,331,361,390,420,9,9,9,9,9,,,,,,,4,0,4,0,0,35,35,20,,,,,,,,,,,,,,4,0.8641675000544637,4,0.2,0.25,9.01073,return,1.4201322000008076,,,,,,,,,,,,,,,,,p305,20,female,left_right_width,2025-11-25_11h34.32.467,exp1,2023.1.0,60.02790099914379,
,,,,,,,,,,,,,,,,4,8.65,9.55,10.45,11.35,0,0.9,0.35,0.55,3.25,10,initial,36.05,312,344,377,409,0,9,9,9,9,0,,,,,,,4,0,4,0,0,36,36,28,,,,,,,,,,,,,,4,1.0469189001014456,4,0.4,0.45,16.21932,return,1.324256099993363,,,,,,,,,,,,,,,,,p305,20,female,left_right_width,2025-11-25_11h34.32.467,exp1,2023.1.0,60.02790099914379,
,,,,,,,,,,,,,,,,4,9.3,9.766666666666667,10.233333333333333,10.7,0,0.4666666666666667,0.21666666666666665,0.25,1.65,10,match,36.05,335,352,369,386,0,9,9,9,9,0,,,,,,,4,0,4,0,0,37,37,8,,,,,,,,,,,,,,4,0.9995296000270173,4,0.4,0.30000000000000004,10.81288,return,1.5993402999592945,,,,,,,,,,,,,,,,,p305,20,female,left_right_width,2025-11-25_11h34.32.467,exp1,2023.1.0,60.02790099914379,
,,,,,,,,,,,,,,,,4,8.9,9.633333333333333,10.366666666666667,11.1,0,0.7333333333333333,0.18333333333333326,0.55,2.75,10,match,36.05,321,347,374,400,0,9,9,9,9,0,,,,,,,4,0,4,0,0,38,38,1,,,,,,,,,,,,,,4,1.6601722000632435,4,0.25,0.35,12.61502,return,1.5934252000879496,,,,,,,,,,,,,,,,,p305,20,female,left_right_width,2025-11-25_11h34.32.467,exp1,2023.1.0,60.02790099914379,
,,,,,,,,,,,,,,,,5,8.2,9.1,10,10.9,11.8,0.9,0.35,0.55,4.15,10,initial,36.05,296,328,361,393,425,9,9,9,9,9,,,,,,,4,0,4,0,0,39,39,46,,,,,,,,,,,,,,4,1.3926206000614911,4,0.35,0.44999999999999996,16.21932,return,1.2075609000166878,,,,,,,,,,,,,,,,,p305,20,female,left_right_width,2025-11-25_11h34.32.467,exp1,2023.1.0,60.02790099914379,
,,,,,,,,,,,,,,,,3,8.525,10,11.475,0,0,1.475,1.225,0.25,3.2,10,match,36.05,307,361,414,0,0,9,9,9,0,0,,,,,,,4,0,4,0,0,40,40,45,,,,,,,,,,,,,,2,1.0890554999932647,2,0.3,0.3,10.81288,return,0.8516080999979749,,,,,,,,,,,,,,,,,p305,20,female,left_right_width,2025-11-25_11h34.32.467,exp1,2023.1.0,60.02790099914379,
,,,,,,,,,,,,,,,,4,8.825,9.608333333333333,10.391666666666667,11.175,0,0.7833333333333333,0.5333333333333333,0.25,2.6,10,match,36.05,318,346,375,403,0,9,9,9,9,0,,,,,,,4,0,4,0,0,41,41,5,,,,,,,,,,,,,,3,0.8037012999411672,3,0.4,0.35000000000000003,12.61502,return,1.522455699974671,,,,,,,,,,,,,,,,,p305,20,female,left_right_width,2025-11-25_11h34.32.467,exp1,2023.1.0,60.02790099914379,
,,,,,,,,,,,,,,,,3,8.2,10,11.8,0,0,1.7999999999999998,1.4,0.4,4,10,match,36.05,296,361,425,0,0,9,9,9,0,0,,,,,,,4,0,4,0,0,42,42,51,,,,,,,,,,,,,,3,1.304271100088954,3,0.2,0.35,12.61502,return,4.082876599975862,,,,,,,,,,,,,,,,,p305,20,female,left_right_width,2025-11-25_11h34.32.467,exp1,2023.1.0,60.02790099914379,
,,,,,,,,,,,,,,,,3,8.6,10,11.4,0,0,1.4,0.85,0.55,3.35,10,match,36.05,310,361,411,0,0,9,9,9,0,0,,,,,,,4,0,4,0,0,43,43,41,,,,,,,,,,,,,,2,2.0807785000652075,2,0.4,0.30000000000000004,10.81288,return,2.0135395999532193,,,,,,,,,,,,,,,,,p305,20,female,left_right_width,2025-11-25_11h34.32.467,exp1,2023.1.0,60.02790099914379,
,,,,,,,,,,,,,,,,5,8.2,9.1,10,10.9,11.8,0.9,0.65,0.25,3.85,10,initial,36.05,296,328,361,393,425,9,9,9,9,9,,,,,,,4,0,4,0,0,44,44,48,,,,,,,,,,,,,,4,0.9269123000558466,4,0.5,0.30000000000000004,10.81288,return,2.0094707999378443,,,,,,,,,,,,,,,,,p305,20,female,left_right_width,2025-11-25_11h34.32.467,exp1,2023.1.0,60.02790099914379,
,,,,,,,,,,,,,,,,3,7.800000000000001,10,12.2,0,0,2.1999999999999997,1.7999999999999998,0.4,4.8,10,match,36.05,281,361,440,0,0,9,9,9,0,0,,,,,,,4,0,4,0,0,45,45,39,,,,,,,,,,,,,,3,1.1615676999790594,3,0.55,0.4,14.41717,return,1.9474962999811396,,,,,,,,,,,,,,,,,p305,20,female,left_right_width,2025-11-25_11h34.32.467,exp1,2023.1.0,60.02790099914379,
,,,,,,,,,,,,,,,,5,8.95,9.475,10,10.525,11.05,0.525,0.275,0.25,2.35,10,match,36.05,323,342,361,379,398,9,9,9,9,9,,,,,,,4,0,4,0,0,46,46,25,,,,,,,,,,,,,,5,1.262420199927874,5,0.45,0.25000000000000006,9.01073,return,1.7396879999432713,,,,,,,,,,,,,,,,,p305,20,female,left_right_width,2025-11-25_11h34.32.467,exp1,2023.1.0,60.02790099914379,
,,,,,,,,,,,,,,,,5,8.95,9.475,10,10.525,11.05,0.525,0.125,0.4,2.5,10,match,36.05,323,342,361,379,398,9,9,9,9,9,,,,,,,4,0,4,0,0,47,47,27,,,,,,,,,,,,,,4,1.3240059999516234,4,0.55,0.30000000000000004,10.81288,return,3.2541829000692815,,,,,,,,,,,,,,,,,p305,20,female,left_right_width,2025-11-25_11h34.32.467,exp1,2023.1.0,60.02790099914379,
,,,,,,,,,,,,,,,,5,7.8,8.9,10,11.1,12.2,1.1,0.8500000000000001,0.25,4.65,10,initial,36.05,281,321,361,400,440,9,9,9,9,9,,,,,,,4,0,4,0,0,48,48,36,,,,,,,,,,,,,,4,1.162128399941139,4,0.4,0.35000000000000003,12.61502,return,1.2282532999524847,,,,,,,,,,,,,,,,,p305,20,female,left_right_width,2025-11-25_11h34.32.467,exp1,2023.1.0,60.02790099914379,
,,,,,,,,,,,,,,,,4,8.9,9.633333333333333,10.366666666666667,11.1,0,0.7333333333333334,0.4833333333333334,0.25,2.45,10,match,36.05,321,347,374,400,0,9,9,9,9,0,,,,,,,4,0,4,0,0,49,49,3,,,,,,,,,,,,,,4,0.9304462000727654,4,0.55,0.30000000000000004,10.81288,return,1.8994845000561327,,,,,,,,,,,,,,,,,p305,20,female,left_right_width,2025-11-25_11h34.32.467,exp1,2023.1.0,60.02790099914379,
,,,,,,,,,,,,,,,,3,8.6,10,11.4,0,0,1.4,1.15,0.25,3.05,10,match,36.05,310,361,411,0,0,9,9,9,0,0,,,,,,,4,0,4,0,0,50,50,43,,,,,,,,,,,,,,3,0.8966289999661967,3,0.5,0.25000000000000006,9.01073,return,1.8842625000979751,,,,,,,,,,,,,,,,,p305,20,female,left_right_width,2025-11-25_11h34.32.467,exp1,2023.1.0,60.02790099914379,
,,,,,,,,,,,,,,,,3,8.2,10,11.8,0,0,1.8,1.55,0.25,3.85,10,match,36.05,296,361,425,0,0,9,9,9,0,0,,,,,,,4,0,4,0,0,51,51,49,,,,,,,,,,,,,,3,0.9201094000600278,3,0.25,0.2,7.20859,return,1.7464732000371441,,,,,,,,,,,,,,,,,p305,20,female,left_right_width,2025-11-25_11h34.32.467,exp1,2023.1.0,60.02790099914379,
,,,,,,,,,,,,,,,,,,,,,,,,,,,,,,,,,,,,,,,,,,,,,4,0,4,0,,,,,,,,,,,,,,,,,,,,,,,,,,,,1921.278374299989,1921.278374299989,1921.278374299989,,,,,,,,,,,,p305,20,female,left_right_width,2025-11-25_11h34.32.467,exp1,2023.1.0,60.02790099914379,
,,,,,,,,,,,,,,,,3,8.525,10,11.475,0,0,1.475,1.225,0.25,3.2,10,match,36.05,307,361,414,0,0,9,9,9,0,0,,,,,,,5,0,5,0,0,0,0,45,,,,,,,,,,,,,,3,0.934404700063169,3,0.55,0.4,14.41717,return,2.7044007999356836,,,,,,,,,,,,,,,,,p305,20,female,left_right_width,2025-11-25_11h34.32.467,exp1,2023.1.0,60.02790099914379,
,,,,,,,,,,,,,,,,3,9.3,10,10.7,0,0,0.7,0.44999999999999996,0.25,1.65,10,initial,36.05,335,361,386,0,0,9,9,9,0,0,,,,,,,5,0,5,0,0,1,1,7,,,,,,,,,,,,,,2,0.9344157000305131,2,0.25,0.25,9.01073,return,1.1677855999441817,,,,,,,,,,,,,,,,,p305,20,female,left_right_width,2025-11-25_11h34.32.467,exp1,2023.1.0,60.02790099914379,
,,,,,,,,,,,,,,,,4,8.95,9.65,10.35,11.05,0,0.7,0.29999999999999993,0.4,2.5,10,initial,36.05,323,348,373,398,0,9,9,9,9,0,,,,,,,5,0,5,0,0,2,2,26,,,,,,,,,,,,,,4,0.9637696000281721,4,0.35,0.35,12.61502,return,0.7473875000141561,,,,,,,,,,,,,,,,,p305,20,female,left_right_width,2025-11-25_11h34.32.467,exp1,2023.1.0,60.02790099914379,
,,,,,,,,,,,,,,,,5,7.8,8.9,10,11.1,12.2,1.1,0.8500000000000001,0.25,4.65,10,initial,36.05,281,321,361,400,440,9,9,9,9,9,,,,,,,5,0,5,0,0,3,3,36,,,,,,,,,,,,,,4,1.0348851999733597,4,0.35,0.3,10.81288,return,2.2883305000141263,,,,,,,,,,,,,,,,,p305,20,female,left_right_width,2025-11-25_11h34.32.467,exp1,2023.1.0,60.02790099914379,
,,,,,,,,,,,,,,,,4,8.35,9.45,10.55,11.65,0,1.1,0.7000000000000001,0.4,3.7,10,initial,36.05,301,341,380,420,0,9,9,9,9,0,,,,,,,5,0,5,0,0,4,4,21,,,,,,,,,,,,,,4,0.7921650999924168,4,0.5,0.35000000000000003,12.61502,return,1.7994531999574974,,,,,,,,,,,,,,,,,p305,20,female,left_right_width,2025-11-25_11h34.32.467,exp1,2023.1.0,60.02790099914379,
,,,,,,,,,,,,,,,,5,8.35,9.175,10,10.825,11.65,0.8250000000000001,0.275,0.55,3.85,10,match,36.05,301,331,361,390,420,9,9,9,9,9,,,,,,,5,0,5,0,0,5,5,18,,,,,,,,,,,,,,4,1.035490500042215,4,0.2,0.44999999999999996,16.21932,return,3.0582808000035584,,,,,,,,,,,,,,,,,p305,20,female,left_right_width,2025-11-25_11h34.32.467,exp1,2023.1.0,60.02790099914379,
,,,,,,,,,,,,,,,,4,9.1,9.7,10.3,10.9,0,0.6000000000000001,0.20000000000000004,0.4,2.2,10,match,36.05,328,350,371,393,0,9,9,9,9,0,,,,,,,5,0,5,0,0,6,6,16,,,,,,,,,,,,,,4,1.1083666000049561,4,0.3,0.39999999999999997,14.41717,return,2.0542187000392005,,,,,,,,,,,,,,,,,p305,20,female,left_right_width,2025-11-25_11h34.32.467,exp1,2023.1.0,60.02790099914379,
,,,,,,,,,,,,,,,,5,8.6,9.3,10,10.7,11.4,0.7,0.1499999999999999,0.55,3.3499999999999996,10,initial,36.05,310,335,361,386,411,9,9,9,9,9,,,,,,,5,0,5,0,0,7,7,40,,,,,,,,,,,,,,4,1.6783847000915557,4,0.55,0.55,19.82361,return,0.9535935999592766,,,,,,,,,,,,,,,,,p305,20,female,left_right_width,2025-11-25_11h34.32.467,exp1,2023.1.0,60.02790099914379,
,,,,,,,,,,,,,,,,5,8.65,9.325,10,10.675,11.35,0.675,0.125,0.55,3.25,10,match,36.05,312,336,361,385,409,9,9,9,9,9,,,,,,,5,0,5,0,0,8,8,29,,,,,,,,,,,,,,4,0.9803740999195725,4,0.35,0.5499999999999999,19.82361,return,5.004488100064918,,,,,,,,,,,,,,,,,p305,20,female,left_right_width,2025-11-25_11h34.32.467,exp1,2023.1.0,60.02790099914379,
,,,,,,,,,,,,,,,,4,8.9,9.633333333333333,10.366666666666667,11.1,0,0.7333333333333334,0.4833333333333334,0.25,2.45,10,match,36.05,321,347,374,400,0,9,9,9,9,0,,,,,,,5,0,5,0,0,9,9,3,,,,,,,,,,,,,,4,0.9824988000327721,4,0.45,0.35000000000000003,12.61502,return,1.502268899930641,,,,,,,,,,,,,,,,,p305,20,female,left_right_width,2025-11-25_11h34.32.467,exp1,2023.1.0,60.02790099914379,
,,,,,,,,,,,,,,,,4,8.825,9.608333333333333,10.391666666666667,11.175,0,0.7833333333333333,0.5333333333333333,0.25,2.6,10,match,36.05,318,346,375,403,0,9,9,9,9,0,,,,,,,5,0,5,0,0,10,10,5,,,,,,,,,,,,,,4,1.6600561999948695,4,0.55,0.55,19.82361,return,1.2082003999967128,,,,,,,,,,,,,,,,,p305,20,female,left_right_width,2025-11-25_11h34.32.467,exp1,2023.1.0,60.02790099914379,
,,,,,,,,,,,,,,,,5,8.65,9.325,10,10.675,11.35,0.675,0.275,0.4,3.1,10,match,36.05,312,336,361,385,409,9,9,9,9,9,,,,,,,5,0,5,0,0,11,11,33,,,,,,,,,,,,,,5,0.9683511001057923,5,0.25,0.39999999999999997,14.41717,return,2.5282339999685064,,,,,,,,,,,,,,,,,p305,20,female,left_right_width,2025-11-25_11h34.32.467,exp1,2023.1.0,60.02790099914379,
,,,,,,,,,,,,,,,,3,9.1,10,10.9,0,0,0.9,0.65,0.25,2.05,10,initial,36.05,328,361,393,0,0,9,9,9,0,0,,,,,,,5,0,5,0,0,12,12,13,,,,,,,,,,,,,,3,1.5508973998948932,3,0.4,0.35000000000000003,12.61502,return,1.3920457999920473,,,,,,,,,,,,,,,,,p305,20,female,left_right_width,2025-11-25_11h34.32.467,exp1,2023.1.0,60.02790099914379,
,,,,,,,,,,,,,,,,5,8.2,9.1,10,10.9,11.8,0.9,0.65,0.25,3.85,10,initial,36.05,296,328,361,393,425,9,9,9,9,9,,,,,,,5,0,5,0,0,13,13,48,,,,,,,,,,,,,,4,0.9452805999899283,4,0.5,0.4,14.41717,return,1.5468433999922127,,,,,,,,,,,,,,,,,p305,20,female,left_right_width,2025-11-25_11h34.32.467,exp1,2023.1.0,60.02790099914379,
,,,,,,,,,,,,,,,,5,8.275,9.1375,10,10.8625,11.725,0.8625,0.6125,0.25,3.7,10,match,36.05,298,329,361,392,423,9,9,9,9,9,,,,,,,5,0,5,0,0,14,14,22,,,,,,,,,,,,,,5,0.9475895999930799,5,0.2,0.3,10.81288,return,1.8051385000580922,,,,,,,,,,,,,,,,,p305,20,female,left_right_width,2025-11-25_11h34.32.467,exp1,2023.1.0,60.02790099914379,
,,,,,,,,,,,,,,,,4,8.35,9.45,10.55,11.65,0,1.1,0.8500000000000001,0.25,3.5500000000000003,10,initial,36.05,301,341,380,420,0,9,9,9,9,0,,,,,,,5,0,5,0,0,15,15,19,,,,,,,,,,,,,,4,1.4195418000454083,4,0.45,0.30000000000000004,10.81288,return,1.7944249999709427,,,,,,,,,,,,,,,,,p305,20,female,left_right_width,2025-11-25_11h34.32.467,exp1,2023.1.0,60.02790099914379,
,,,,,,,,,,,,,,,,5,8.6,9.3,10,10.7,11.4,0.7,0.44999999999999996,0.25,3.05,10,initial,36.05,310,335,361,386,411,9,9,9,9,9,,,,,,,5,0,5,0,0,16,16,42,,,,,,,,,,,,,,4,0.7006552999373525,4,0.3,0.3,10.81288,return,0.6716947000240907,,,,,,,,,,,,,,,,,p305,20,female,left_right_width,2025-11-25_11h34.32.467,exp1,2023.1.0,60.02790099914379,
,,,,,,,,,,,,,,,,3,9.3,10,10.7,0,0,0.7,0.1499999999999999,0.55,1.95,10,initial,36.05,335,361,386,0,0,9,9,9,0,0,,,,,,,5,0,5,0,0,17,17,6,,,,,,,,,,,,,,2,1.0142708999337628,2,0.5,0.6500000000000001,23.4279,return,1.9493375000311062,,,,,,,,,,,,,,,,,p305,20,female,left_right_width,2025-11-25_11h34.32.467,exp1,2023.1.0,60.02790099914379,
,,,,,,,,,,,,,,,,3,9.3,10,10.7,0,0,0.7,0.29999999999999993,0.4,1.8,10,initial,36.05,335,361,386,0,0,9,9,9,0,0,,,,,,,5,0,5,0,0,18,18,9,,,,,,,,,,,,,,2,1.0358931999653578,2,0.5,0.55,19.82361,return,1.1531853000633419,,,,,,,,,,,,,,,,,p305,20,female,left_right_width,2025-11-25_11h34.32.467,exp1,2023.1.0,60.02790099914379,
,,,,,,,,,,,,,,,,5,8.2,9.1,10,10.9,11.8,0.9,0.5,0.4,4,10,initial,36.05,296,328,361,393,425,9,9,9,9,9,,,,,,,5,0,5,0,0,19,19,50,,,,,,,,,,,,,,4,1.2048837000038475,4,0.55,0.6000000000000001,21.62576,return,0.9330185999860987,,,,,,,,,,,,,,,,,p305,20,female,left_right_width,2025-11-25_11h34.32.467,exp1,2023.1.0,60.02790099914379,
,,,,,,,,,,,,,,,,5,7.8,8.9,10,11.1,12.2,1.1,0.7000000000000001,0.4,4.800000000000001,10,initial,36.05,281,321,361,400,440,9,9,9,9,9,,,,,,,5,0,5,0,0,20,20,38,,,,,,,,,,,,,,5,1.2223659000592306,5,0.5,0.55,19.82361,return,0.9645505000371486,,,,,,,,,,,,,,,,,p305,20,female,left_right_width,2025-11-25_11h34.32.467,exp1,2023.1.0,60.02790099914379,
,,,,,,,,,,,,,,,,5,8.35,9.175,10,10.825,11.65,0.825,0.575,0.25,3.55,10,match,36.05,301,331,361,390,420,9,9,9,9,9,,,,,,,5,0,5,0,0,21,21,20,,,,,,,,,,,,,,4,0.7988235000520945,4,0.25,0.35,12.61502,return,1.3108926999848336,,,,,,,,,,,,,,,,,p305,20,female,left_right_width,2025-11-25_11h34.32.467,exp1,2023.1.0,60.02790099914379,
,,,,,,,,,,,,,,,,3,9.1,10,10.9,0,0,0.9,0.35,0.55,2.35,10,initial,36.05,328,361,393,0,0,9,9,9,0,0,,,,,,,5,0,5,0,0,22,22,11,,,,,,,,,,,,,,3,1.1973492000252008,3,0.4,0.55,19.82361,return,1.0526533999945968,,,,,,,,,,,,,,,,,p305,20,female,left_right_width,2025-11-25_11h34.32.467,exp1,2023.1.0,60.02790099914379,
,,,,,,,,,,,,,,,,3,7.8,10,12.2,0,0,2.2,1.9500000000000002,0.25,4.65,10,match,36.05,281,361,440,0,0,9,9,9,0,0,,,,,,,5,0,5,0,0,23,23,37,,,,,,,,,,,,,,3,1.2567721999948844,3,0.3,0.35,12.61502,return,1.1254972000606358,,,,,,,,,,,,,,,,,p305,20,female,left_right_width,2025-11-25_11h34.32.467,exp1,2023.1.0,60.02790099914379,
