amount_p,posx1_p,posx2_p,posx3_p,posx4_p,posx5_p,center_to_center_p,edge_to_edge_p,w_p,stim_lengt_p,eccentricity_p,line1_p,line2_p,line3_p,line4_p,line5_p,amount,posx1,posx2,posx3,posx4,posx5,center_to_center,edge_to_edge,w,stim_length,eccentricity,trial_type,deg_to_pix_index,posx1_in_pix,posx2_in_pix,posx3_in_pix,posx4_in_pix,posx5_in_pix,line1,line2,line3,line4,line5,posx,setsize_cobdi,trials.thisRepN,trials.thisTrialN,trials.thisN,trials.thisIndex,blocks.thisRepN,blocks.thisTrialN,blocks.thisN,blocks.thisIndex,loop.thisRepN,loop.thisTrialN,loop.thisN,loop.thisIndex,first.thisRepN,first.thisTrialN,first.thisN,first.thisIndex,second.thisRepN,second.thisTrialN,second.thisN,second.thisIndex,thisRow.t,notes,key_resp_3.started,key_resp_3.keys,key_resp_3.rt,key_resp.keys,key_resp.rt,response,starting_width_deg,response_width_degree,response_width_pixel,next_5.keys,next_5.rt,key_resp_4.keys,key_resp_4.rt,text_3.started,text_4.started,key_resp_2.started,text_2.started,key_resp_2.keys,key_resp_2.rt,adjusting.started,next.keys,next.rt,text_control2.started,key_resp.started,key_resp.corr,text_bye.started,text_bye.stopped,participant,age,gender,resp_group,date,expName,psychopyVersion,frameRate,
,,,,,,,,,,,,,,,,,,,,,,,,,,,,,,,,,,,,,,,,,,,,,,,,,,,,,,,,,,,,,,,276.33242949994747,c,212.3444629999576,,,,,,,,,,,,,,,,,,,,,,,,,p306,28,female,up_down_width,2025-11-25_16h40.51.267,exp1,2023.1.0,59.961708440637544,
5,9.25,9.625,10,10.375,10.75,0.375,0.125,0.25,1.75,10,9,9,9,9,9,,,,,,,,,,,,,,,,,,,,,,,,,,0,0,0,6,,,,,,,,,,,,,,,,,,,,,,5,1.5064157999586314,5,0.25,0.10000000000000002,3.60429,return,2.949479000060819,,,,,,,,,,,,,,,,,p306,28,female,up_down_width,2025-11-25_16h40.51.267,exp1,2023.1.0,59.961708440637544,
5,9,9.5,10,10.5,11,0.5,0.09999999999999998,0.4,2.4,10,9,9,9,9,9,,,,,,,,,,,,,,,,,,,,,,,,,,0,1,1,8,,,,,,,,,,,,,,,,,,,,,,4,0.45666490006260574,4,0.35,0.10000000000000002,3.60429,return,3.524468799936585,,,,,,,,,,,,,,,,,p306,28,female,up_down_width,2025-11-25_16h40.51.267,exp1,2023.1.0,59.961708440637544,
3,9.5,10,10.5,0,0,0.5,0.4,0.1,1.1,10,9,9,9,0,0,,,,,,,,,,,,,,,,,,,,,,,,,,0,2,2,0,,,,,,,,,,,,,,,,,,,,,,3,1.1789547998923808,3,0.45,0.15000000000000008,5.40644,return,5.114894700003788,,,,,,,,,,,,,,,,,p306,28,female,up_down_width,2025-11-25_16h40.51.267,exp1,2023.1.0,59.961708440637544,
5,8.6,9.3,10,10.7,11.4,0.7,0.29999999999999993,0.4,3.1999999999999997,10,9,9,9,9,9,,,,,,,,,,,,,,,,,,,,,,,,,,0,3,3,7,,,,,,,,,,,,,,,,,,,,,,5,1.6815173999639228,5,0.35,0.49999999999999994,18.02146,return,2.782156999921426,,,,,,,,,,,,,,,,,p306,28,female,up_down_width,2025-11-25_16h40.51.267,exp1,2023.1.0,59.961708440637544,
4,9.5,9.833333333333334,10.166666666666666,10.5,0,0.33333333333333337,0.23333333333333336,0.1,1.1,10,9,9,9,9,0,,,,,,,,,,,,,,,,,,,,,,,,,,0,4,4,3,,,,,,,,,,,,,,,,,,,,,,4,1.409514799946919,4,0.35,0.10000000000000002,3.60429,return,5.559117499971762,,,,,,,,,,,,,,,,,p306,28,female,up_down_width,2025-11-25_16h40.51.267,exp1,2023.1.0,59.961708440637544,
3,9,10,11,0,0,1,0.9,0.1,2.1,10,9,9,9,0,0,,,,,,,,,,,,,,,,,,,,,,,,,,0,5,5,1,,,,,,,,,,,,,,,,,,,,,,3,1.5362965000094846,3,0.5,0.05000000000000007,1.80215,return,5.79410659999121,,,,,,,,,,,,,,,,,p306,28,female,up_down_width,2025-11-25_16h40.51.267,exp1,2023.1.0,59.961708440637544,
4,9.25,9.75,10.25,10.75,0,0.5,0.25,0.25,1.75,10,9,9,9,9,0,,,,,,,,,,,,,,,,,,,,,,,,,,0,6,6,4,,,,,,,,,,,,,,,,,,,,,,4,1.377497800043784,4,0.4,0.30000000000000004,10.81288,return,1.9454570999369025,,,,,,,,,,,,,,,,,p306,28,female,up_down_width,2025-11-25_16h40.51.267,exp1,2023.1.0,59.961708440637544,
4,8.65,9.55,10.45,11.35,0,0.9,0.5,0.4,3.1,10,9,9,9,9,0,,,,,,,,,,,,,,,,,,,,,,,,,,0,7,7,5,,,,,,,,,,,,,,,,,,,,,,4,1.3164796000346541,4,0.45,0.30000000000000004,10.81288,return,1.9510325000155717,,,,,,,,,,,,,,,,,p306,28,female,up_down_width,2025-11-25_16h40.51.267,exp1,2023.1.0,59.961708440637544,
3,8.2,10,11.8,0,0,1.7999999999999998,1.4,0.4,4,10,9,9,9,0,0,,,,,,,,,,,,,,,,,,,,,,,,,,0,8,8,2,,,,,,,,,,,,,,,,,,,,,,3,1.7427510000998154,3,0.35,0.44999999999999996,16.21932,return,3.016065700096078,,,,,,,,,,,,,,,,,p306,28,female,up_down_width,2025-11-25_16h40.51.267,exp1,2023.1.0,59.961708440637544,
,,,,,,,,,,,,,,,,,,,,,,,,,,,,,,,,,,,,,,,,,,,,,,,,,,,,,,,,,,,,,,,,,,,,,,,,,,c,118.91042369999923,,,,,,,,,,,,,,,p306,28,female,up_down_width,2025-11-25_16h40.51.267,exp1,2023.1.0,59.961708440637544,
,,,,,,,,,,,,,,,,4,8.95,9.65,10.35,11.05,0,0.7,0.29999999999999993,0.4,2.5,10,initial,36.05,323,348,373,398,0,9,9,9,9,0,,,,,,,0,0,0,0,0,0,0,26,,,,,,,,,,,,,,3,1.312315000104718,3,0.2,0.35,12.61502,return,1.692390000098385,,,,,,,,,,,,,,,,,p306,28,female,up_down_width,2025-11-25_16h40.51.267,exp1,2023.1.0,59.961708440637544,
,,,,,,,,,,,,,,,,4,8.9,9.633333333333333,10.366666666666667,11.1,0,0.7333333333333333,0.18333333333333326,0.55,2.75,10,match,36.05,321,347,374,400,0,9,9,9,9,0,,,,,,,0,0,0,0,0,1,1,1,,,,,,,,,,,,,,3,1.5897244999650866,3,0.2,0.44999999999999996,16.21932,return,2.596439399989322,,,,,,,,,,,,,,,,,p306,28,female,up_down_width,2025-11-25_16h40.51.267,exp1,2023.1.0,59.961708440637544,
,,,,,,,,,,,,,,,,3,8.525,10,11.475,0,0,1.475,1.225,0.25,3.2,10,match,36.05,307,361,414,0,0,9,9,9,0,0,,,,,,,0,0,0,0,0,2,2,45,,,,,,,,,,,,,,3,1.893025299999863,3,0.2,0.15000000000000002,5.40644,return,1.8175471000140533,,,,,,,,,,,,,,,,,p306,28,female,up_down_width,2025-11-25_16h40.51.267,exp1,2023.1.0,59.961708440637544,
,,,,,,,,,,,,,,,,4,8.95,9.65,10.35,11.05,0,0.7,0.1499999999999999,0.55,2.65,10,initial,36.05,323,348,373,398,0,9,9,9,9,0,,,,,,,0,0,0,0,0,3,3,23,,,,,,,,,,,,,,3,2.1611401999834925,3,0.45,0.5,18.02146,return,1.8019325999775901,,,,,,,,,,,,,,,,,p306,28,female,up_down_width,2025-11-25_16h40.51.267,exp1,2023.1.0,59.961708440637544,
,,,,,,,,,,,,,,,,3,9.3,10,10.7,0,0,0.7,0.44999999999999996,0.25,1.65,10,initial,36.05,335,361,386,0,0,9,9,9,0,0,,,,,,,0,0,0,0,0,4,4,7,,,,,,,,,,,,,,3,1.1236498999642208,3,0.35,0.25,9.01073,return,4.517643700004555,,,,,,,,,,,,,,,,,p306,28,female,up_down_width,2025-11-25_16h40.51.267,exp1,2023.1.0,59.961708440637544,
,,,,,,,,,,,,,,,,4,9.1,9.7,10.3,10.9,0,0.6,0.04999999999999997,0.55,2.35,10,match,36.05,328,350,371,393,0,9,9,9,9,0,,,,,,,0,0,0,0,0,5,5,12,,,,,,,,,,,,,,3,2.0897092999657616,3,0.25,0.6,21.62576,return,2.72504580009263,,,,,,,,,,,,,,,,,p306,28,female,up_down_width,2025-11-25_16h40.51.267,exp1,2023.1.0,59.961708440637544,
,,,,,,,,,,,,,,,,4,8.65,9.55,10.45,11.35,0,0.9,0.35,0.55,3.25,10,initial,36.05,312,344,377,409,0,9,9,9,9,0,,,,,,,0,0,0,0,0,6,6,28,,,,,,,,,,,,,,3,1.4004993999842554,3,0.25,0.6,21.62576,return,3.472055900027044,,,,,,,,,,,,,,,,,p306,28,female,up_down_width,2025-11-25_16h40.51.267,exp1,2023.1.0,59.961708440637544,
,,,,,,,,,,,,,,,,5,8.2,9.1,10,10.9,11.8,0.9,0.5,0.4,4,10,initial,36.05,296,328,361,393,425,9,9,9,9,9,,,,,,,0,0,0,0,0,7,7,50,,,,,,,,,,,,,,4,1.3899093000218272,4,0.2,0.39999999999999997,14.41717,return,1.7494689000304788,,,,,,,,,,,,,,,,,p306,28,female,up_down_width,2025-11-25_16h40.51.267,exp1,2023.1.0,59.961708440637544,
,,,,,,,,,,,,,,,,3,8.2,10,11.8,0,0,1.8,1.55,0.25,3.85,10,match,36.05,296,361,425,0,0,9,9,9,0,0,,,,,,,0,0,0,0,0,8,8,49,,,,,,,,,,,,,,3,1.500099700060673,3,0.55,0.15000000000000008,5.40644,return,2.4328448999440297,,,,,,,,,,,,,,,,,p306,28,female,up_down_width,2025-11-25_16h40.51.267,exp1,2023.1.0,59.961708440637544,
,,,,,,,,,,,,,,,,4,8.9,9.633333333333333,10.366666666666667,11.1,0,0.7333333333333334,0.4833333333333334,0.25,2.45,10,match,36.05,321,347,374,400,0,9,9,9,9,0,,,,,,,0,0,0,0,0,9,9,3,,,,,,,,,,,,,,3,1.5585903999162838,3,0.45,0.15000000000000008,5.40644,return,4.758563200011849,,,,,,,,,,,,,,,,,p306,28,female,up_down_width,2025-11-25_16h40.51.267,exp1,2023.1.0,59.961708440637544,
,,,,,,,,,,,,,,,,3,8.9,10,11.1,0,0,1.1,0.7000000000000001,0.4,2.6000000000000005,10,initial,36.05,321,361,400,0,0,9,9,9,0,0,,,,,,,0,0,0,0,0,10,10,4,,,,,,,,,,,,,,3,2.0802798999939114,3,0.5,0.4,14.41717,return,1.9175114000681788,,,,,,,,,,,,,,,,,p306,28,female,up_down_width,2025-11-25_16h40.51.267,exp1,2023.1.0,59.961708440637544,
,,,,,,,,,,,,,,,,5,8.6,9.3,10,10.7,11.4,0.7,0.44999999999999996,0.25,3.05,10,initial,36.05,310,335,361,386,411,9,9,9,9,9,,,,,,,0,0,0,0,0,11,11,42,,,,,,,,,,,,,,5,2.168984599993564,5,0.55,0.10000000000000007,3.60429,return,5.762450099922717,,,,,,,,,,,,,,,,,p306,28,female,up_down_width,2025-11-25_16h40.51.267,exp1,2023.1.0,59.961708440637544,
,,,,,,,,,,,,,,,,4,9.1,9.7,10.3,10.9,0,0.5999999999999999,0.3499999999999999,0.25,2.05,10,match,36.05,328,350,371,393,0,9,9,9,9,0,,,,,,,0,0,0,0,0,12,12,14,,,,,,,,,,,,,,4,1.5247628999641165,4,0.35,0.15000000000000002,5.40644,return,2.4701469999272376,,,,,,,,,,,,,,,,,p306,28,female,up_down_width,2025-11-25_16h40.51.267,exp1,2023.1.0,59.961708440637544,
,,,,,,,,,,,,,,,,5,8.35,9.175,10,10.825,11.65,0.8250000000000001,0.275,0.55,3.85,10,match,36.05,301,331,361,390,420,9,9,9,9,9,,,,,,,0,0,0,0,0,13,13,18,,,,,,,,,,,,,,4,1.3248592999298126,4,0.4,0.5,18.02146,return,1.2700925999088213,,,,,,,,,,,,,,,,,p306,28,female,up_down_width,2025-11-25_16h40.51.267,exp1,2023.1.0,59.961708440637544,
,,,,,,,,,,,,,,,,5,8.275,9.1375,10,10.8625,11.725,0.8625,0.6125,0.25,3.7,10,match,36.05,298,329,361,392,423,9,9,9,9,9,,,,,,,0,0,0,0,0,14,14,22,,,,,,,,,,,,,,5,1.0991113999625668,5,0.5,0.20000000000000007,7.20859,return,3.5014369001146406,,,,,,,,,,,,,,,,,p306,28,female,up_down_width,2025-11-25_16h40.51.267,exp1,2023.1.0,59.961708440637544,
,,,,,,,,,,,,,,,,3,7.800000000000001,10,12.2,0,0,2.1999999999999997,1.7999999999999998,0.4,4.8,10,match,36.05,281,361,440,0,0,9,9,9,0,0,,,,,,,0,0,0,0,0,15,15,39,,,,,,,,,,,,,,3,1.5154205999569967,3,0.45,0.45,16.21932,return,3.197859999956563,,,,,,,,,,,,,,,,,p306,28,female,up_down_width,2025-11-25_16h40.51.267,exp1,2023.1.0,59.961708440637544,
,,,,,,,,,,,,,,,,3,8.2,10,11.8,0,0,1.7999999999999998,1.4,0.4,4,10,match,36.05,296,361,425,0,0,9,9,9,0,0,,,,,,,0,0,0,0,0,16,16,51,,,,,,,,,,,,,,3,1.5670118000125512,3,0.25,0.49999999999999994,18.02146,return,2.1282008999260142,,,,,,,,,,,,,,,,,p306,28,female,up_down_width,2025-11-25_16h40.51.267,exp1,2023.1.0,59.961708440637544,
,,,,,,,,,,,,,,,,5,8.95,9.475,10,10.525,11.05,0.525,0.275,0.25,2.35,10,match,36.05,323,342,361,379,398,9,9,9,9,9,,,,,,,0,0,0,0,0,17,17,25,,,,,,,,,,,,,,5,1.6036571000004187,5,0.45,0.15000000000000008,5.40644,return,3.1542628000024706,,,,,,,,,,,,,,,,,p306,28,female,up_down_width,2025-11-25_16h40.51.267,exp1,2023.1.0,59.961708440637544,
,,,,,,,,,,,,,,,,3,9.1,10,10.9,0,0,0.9,0.5,0.4,2.2,10,initial,36.05,328,361,393,0,0,9,9,9,0,0,,,,,,,0,0,0,0,0,18,18,15,,,,,,,,,,,,,,3,1.3397600000025705,3,0.55,0.25000000000000006,9.01073,return,2.932882900116965,,,,,,,,,,,,,,,,,p306,28,female,up_down_width,2025-11-25_16h40.51.267,exp1,2023.1.0,59.961708440637544,
,,,,,,,,,,,,,,,,3,7.8,10,12.2,0,0,2.2,1.9500000000000002,0.25,4.65,10,match,36.05,281,361,440,0,0,9,9,9,0,0,,,,,,,0,0,0,0,0,19,19,37,,,,,,,,,,,,,,3,1.288934800075367,3,0.3,0.10000000000000002,3.60429,return,2.948735299985856,,,,,,,,,,,,,,,,,p306,28,female,up_down_width,2025-11-25_16h40.51.267,exp1,2023.1.0,59.961708440637544,
,,,,,,,,,,,,,,,,5,8.65,9.325,10,10.675,11.35,0.675,0.42500000000000004,0.25,2.95,10,match,36.05,312,336,361,385,409,9,9,9,9,9,,,,,,,0,0,0,0,0,20,20,31,,,,,,,,,,,,,,5,1.4954031999222934,5,0.5,0.15000000000000008,5.40644,return,3.3065065999981016,,,,,,,,,,,,,,,,,p306,28,female,up_down_width,2025-11-25_16h40.51.267,exp1,2023.1.0,59.961708440637544,
,,,,,,,,,,,,,,,,3,8.9,10,11.1,0,0,1.1,0.55,0.55,2.75,10,initial,36.05,321,361,400,0,0,9,9,9,0,0,,,,,,,0,0,0,0,0,21,21,0,,,,,,,,,,,,,,3,2.0874475999735296,3,0.25,0.44999999999999996,16.21932,return,2.066445400007069,,,,,,,,,,,,,,,,,p306,28,female,up_down_width,2025-11-25_16h40.51.267,exp1,2023.1.0,59.961708440637544,
,,,,,,,,,,,,,,,,4,8.35,9.45,10.55,11.65,0,1.1,0.7000000000000001,0.4,3.7,10,initial,36.05,301,341,380,420,0,9,9,9,9,0,,,,,,,0,0,0,0,0,22,22,21,,,,,,,,,,,,,,4,1.3955280999653041,4,0.35,0.44999999999999996,16.21932,return,1.226535200024955,,,,,,,,,,,,,,,,,p306,28,female,up_down_width,2025-11-25_16h40.51.267,exp1,2023.1.0,59.961708440637544,
,,,,,,,,,,,,,,,,4,8.825,9.608333333333333,10.391666666666667,11.175,0,0.7833333333333333,0.5333333333333333,0.25,2.6,10,match,36.05,318,346,375,403,0,9,9,9,9,0,,,,,,,0,0,0,0,0,23,23,5,,,,,,,,,,,,,,4,1.3987269999925047,4,0.3,0.15000000000000002,5.40644,return,2.8457708000205457,,,,,,,,,,,,,,,,,p306,28,female,up_down_width,2025-11-25_16h40.51.267,exp1,2023.1.0,59.961708440637544,
,,,,,,,,,,,,,,,,4,8.95,9.65,10.35,11.05,0,0.7,0.44999999999999996,0.25,2.3499999999999996,10,initial,36.05,323,348,373,398,0,9,9,9,9,0,,,,,,,0,0,0,0,0,24,24,24,,,,,,,,,,,,,,4,1.9030397000024095,4,0.25,0.15000000000000002,5.40644,return,2.0014520999975502,,,,,,,,,,,,,,,,,p306,28,female,up_down_width,2025-11-25_16h40.51.267,exp1,2023.1.0,59.961708440637544,
,,,,,,,,,,,,,,,,5,8.2,9.1,10,10.9,11.8,0.9,0.35,0.55,4.15,10,initial,36.05,296,328,361,393,425,9,9,9,9,9,,,,,,,0,0,0,0,0,25,25,46,,,,,,,,,,,,,,4,2.116910199983977,4,0.2,0.5499999999999999,19.82361,return,2.5277343000052497,,,,,,,,,,,,,,,,,p306,28,female,up_down_width,2025-11-25_16h40.51.267,exp1,2023.1.0,59.961708440637544,
,,,,,,,,,,,,,,,,5,8.35,9.175,10,10.825,11.65,0.825,0.575,0.25,3.55,10,match,36.05,301,331,361,390,420,9,9,9,9,9,,,,,,,0,0,0,0,0,26,26,20,,,,,,,,,,,,,,4,1.2723435000516474,4,0.2,0.10000000000000002,3.60429,return,2.2927112999605015,,,,,,,,,,,,,,,,,p306,28,female,up_down_width,2025-11-25_16h40.51.267,exp1,2023.1.0,59.961708440637544,
,,,,,,,,,,,,,,,,3,9.3,10,10.7,0,0,0.7,0.29999999999999993,0.4,1.8,10,initial,36.05,335,361,386,0,0,9,9,9,0,0,,,,,,,0,0,0,0,0,27,27,9,,,,,,,,,,,,,,3,1.5253033000044525,3,0.25,0.44999999999999996,16.21932,return,1.622865799930878,,,,,,,,,,,,,,,,,p306,28,female,up_down_width,2025-11-25_16h40.51.267,exp1,2023.1.0,59.961708440637544,
,,,,,,,,,,,,,,,,3,7.8,10,12.2,0,0,2.2,1.65,0.55,4.95,10,match,36.05,281,361,440,0,0,9,9,9,0,0,,,,,,,0,0,0,0,0,28,28,35,,,,,,,,,,,,,,3,1.7092523000901565,3,0.35,0.39999999999999997,14.41717,return,2.1350396000780165,,,,,,,,,,,,,,,,,p306,28,female,up_down_width,2025-11-25_16h40.51.267,exp1,2023.1.0,59.961708440637544,
,,,,,,,,,,,,,,,,5,8.65,9.325,10,10.675,11.35,0.675,0.125,0.55,3.25,10,match,36.05,312,336,361,385,409,9,9,9,9,9,,,,,,,0,0,0,0,0,29,29,29,,,,,,,,,,,,,,3,1.3497777000302449,3,0.2,0.65,23.4279,return,3.2153758999193087,,,,,,,,,,,,,,,,,p306,28,female,up_down_width,2025-11-25_16h40.51.267,exp1,2023.1.0,59.961708440637544,
,,,,,,,,,,,,,,,,4,9.1,9.7,10.3,10.9,0,0.6000000000000001,0.20000000000000004,0.4,2.2,10,match,36.05,328,350,371,393,0,9,9,9,9,0,,,,,,,0,0,0,0,0,30,30,16,,,,,,,,,,,,,,3,1.4576391000300646,3,0.25,0.49999999999999994,18.02146,return,2.2465449000010267,,,,,,,,,,,,,,,,,p306,28,female,up_down_width,2025-11-25_16h40.51.267,exp1,2023.1.0,59.961708440637544,
,,,,,,,,,,,,,,,,5,7.8,8.9,10,11.1,12.2,1.1,0.55,0.55,4.95,10,initial,36.05,281,321,361,400,440,9,9,9,9,9,,,,,,,0,0,0,0,0,31,31,34,,,,,,,,,,,,,,4,1.4236935999942943,4,0.45,0.5,18.02146,return,2.0531800999306142,,,,,,,,,,,,,,,,,p306,28,female,up_down_width,2025-11-25_16h40.51.267,exp1,2023.1.0,59.961708440637544,
,,,,,,,,,,,,,,,,3,9.1,10,10.9,0,0,0.9,0.35,0.55,2.35,10,initial,36.05,328,361,393,0,0,9,9,9,0,0,,,,,,,0,0,0,0,0,32,32,11,,,,,,,,,,,,,,3,1.632462100009434,3,0.55,0.55,19.82361,return,1.150974199990742,,,,,,,,,,,,,,,,,p306,28,female,up_down_width,2025-11-25_16h40.51.267,exp1,2023.1.0,59.961708440637544,
,,,,,,,,,,,,,,,,4,9.3,9.766666666666667,10.233333333333333,10.7,0,0.4666666666666667,0.06666666666666665,0.4,1.8,10,match,36.05,335,352,369,386,0,9,9,9,9,0,,,,,,,0,0,0,0,0,33,33,10,,,,,,,,,,,,,,3,1.449286900111474,3,0.4,0.4,14.41717,return,3.9667222999269143,,,,,,,,,,,,,,,,,p306,28,female,up_down_width,2025-11-25_16h40.51.267,exp1,2023.1.0,59.961708440637544,
,,,,,,,,,,,,,,,,3,8.9,10,11.1,0,0,1.1,0.8500000000000001,0.25,2.45,10,initial,36.05,321,361,400,0,0,9,9,9,0,0,,,,,,,0,0,0,0,0,34,34,2,,,,,,,,,,,,,,3,1.4821742000058293,3,0.55,0.10000000000000007,3.60429,return,3.6145866999868304,,,,,,,,,,,,,,,,,p306,28,female,up_down_width,2025-11-25_16h40.51.267,exp1,2023.1.0,59.961708440637544,
,,,,,,,,,,,,,,,,3,8.2,10,11.8,0,0,1.8,1.25,0.55,4.15,10,match,36.05,296,361,425,0,0,9,9,9,0,0,,,,,,,0,0,0,0,0,35,35,47,,,,,,,,,,,,,,3,0.9662561999866739,3,0.5,0.4,14.41717,return,2.1743422000436112,,,,,,,,,,,,,,,,,p306,28,female,up_down_width,2025-11-25_16h40.51.267,exp1,2023.1.0,59.961708440637544,
,,,,,,,,,,,,,,,,5,8.65,9.325,10,10.675,11.35,0.675,0.275,0.4,3.1,10,match,36.05,312,336,361,385,409,9,9,9,9,9,,,,,,,0,0,0,0,0,36,36,33,,,,,,,,,,,,,,4,1.5291383999865502,4,0.4,0.5,18.02146,return,1.2915420000208542,,,,,,,,,,,,,,,,,p306,28,female,up_down_width,2025-11-25_16h40.51.267,exp1,2023.1.0,59.961708440637544,
,,,,,,,,,,,,,,,,4,8.35,9.45,10.55,11.65,0,1.1,0.55,0.55,3.8500000000000005,10,initial,36.05,301,341,380,420,0,9,9,9,9,0,,,,,,,0,0,0,0,0,37,37,17,,,,,,,,,,,,,,4,1.1632182999746874,4,0.25,0.44999999999999996,16.21932,return,3.946925999945961,,,,,,,,,,,,,,,,,p306,28,female,up_down_width,2025-11-25_16h40.51.267,exp1,2023.1.0,59.961708440637544,
,,,,,,,,,,,,,,,,3,9.1,10,10.9,0,0,0.9,0.65,0.25,2.05,10,initial,36.05,328,361,393,0,0,9,9,9,0,0,,,,,,,0,0,0,0,0,38,38,13,,,,,,,,,,,,,,3,1.077412800048478,3,0.4,0.15000000000000008,5.40644,return,2.455730800051242,,,,,,,,,,,,,,,,,p306,28,female,up_down_width,2025-11-25_16h40.51.267,exp1,2023.1.0,59.961708440637544,
,,,,,,,,,,,,,,,,5,8.95,9.475,10,10.525,11.05,0.525,0.125,0.4,2.5,10,match,36.05,323,342,361,379,398,9,9,9,9,9,,,,,,,0,0,0,0,0,39,39,27,,,,,,,,,,,,,,4,1.5823603000026196,4,0.55,0.25000000000000006,9.01073,return,1.6936099000740796,,,,,,,,,,,,,,,,,p306,28,female,up_down_width,2025-11-25_16h40.51.267,exp1,2023.1.0,59.961708440637544,
,,,,,,,,,,,,,,,,4,9.3,9.766666666666667,10.233333333333333,10.7,0,0.4666666666666667,0.21666666666666665,0.25,1.65,10,match,36.05,335,352,369,386,0,9,9,9,9,0,,,,,,,0,0,0,0,0,40,40,8,,,,,,,,,,,,,,4,1.2430374000687152,4,0.4,0.15000000000000008,5.40644,return,2.3438634000485763,,,,,,,,,,,,,,,,,p306,28,female,up_down_width,2025-11-25_16h40.51.267,exp1,2023.1.0,59.961708440637544,
,,,,,,,,,,,,,,,,5,8.6,9.3,10,10.7,11.4,0.7,0.29999999999999993,0.4,3.1999999999999997,10,initial,36.05,310,335,361,386,411,9,9,9,9,9,,,,,,,0,0,0,0,0,41,41,44,,,,,,,,,,,,,,4,2.1159560000523925,4,0.5,0.45,16.21932,return,1.7890468999976292,,,,,,,,,,,,,,,,,p306,28,female,up_down_width,2025-11-25_16h40.51.267,exp1,2023.1.0,59.961708440637544,
,,,,,,,,,,,,,,,,4,8.65,9.55,10.45,11.35,0,0.9,0.65,0.25,2.95,10,initial,36.05,312,344,377,409,0,9,9,9,9,0,,,,,,,0,0,0,0,0,42,42,30,,,,,,,,,,,,,,4,0.9675124000059441,4,0.3,0.15000000000000002,5.40644,return,4.159288800088689,,,,,,,,,,,,,,,,,p306,28,female,up_down_width,2025-11-25_16h40.51.267,exp1,2023.1.0,59.961708440637544,
,,,,,,,,,,,,,,,,5,7.8,8.9,10,11.1,12.2,1.1,0.7000000000000001,0.4,4.800000000000001,10,initial,36.05,281,321,361,400,440,9,9,9,9,9,,,,,,,0,0,0,0,0,43,43,38,,,,,,,,,,,,,,4,0.7583653000183403,4,0.55,0.4,14.41717,return,2.023236200097017,,,,,,,,,,,,,,,,,p306,28,female,up_down_width,2025-11-25_16h40.51.267,exp1,2023.1.0,59.961708440637544,
,,,,,,,,,,,,,,,,5,8.6,9.3,10,10.7,11.4,0.7,0.1499999999999999,0.55,3.3499999999999996,10,initial,36.05,310,335,361,386,411,9,9,9,9,9,,,,,,,0,0,0,0,0,44,44,40,,,,,,,,,,,,,,4,1.5971995000727475,4,0.4,0.5,18.02146,return,1.2605917999753729,,,,,,,,,,,,,,,,,p306,28,female,up_down_width,2025-11-25_16h40.51.267,exp1,2023.1.0,59.961708440637544,
,,,,,,,,,,,,,,,,3,8.6,10,11.4,0,0,1.4,0.85,0.55,3.35,10,match,36.05,310,361,411,0,0,9,9,9,0,0,,,,,,,0,0,0,0,0,45,45,41,,,,,,,,,,,,,,3,1.036313600023277,3,0.5,0.6000000000000001,21.62576,return,2.401484700036235,,,,,,,,,,,,,,,,,p306,28,female,up_down_width,2025-11-25_16h40.51.267,exp1,2023.1.0,59.961708440637544,
,,,,,,,,,,,,,,,,3,9.3,10,10.7,0,0,0.7,0.1499999999999999,0.55,1.95,10,initial,36.05,335,361,386,0,0,9,9,9,0,0,,,,,,,0,0,0,0,0,46,46,6,,,,,,,,,,,,,,2,1.643015700043179,2,0.2,0.49999999999999994,18.02146,return,2.008408800000325,,,,,,,,,,,,,,,,,p306,28,female,up_down_width,2025-11-25_16h40.51.267,exp1,2023.1.0,59.961708440637544,
,,,,,,,,,,,,,,,,3,8.6,10,11.4,0,0,1.4,1.15,0.25,3.05,10,match,36.05,310,361,411,0,0,9,9,9,0,0,,,,,,,0,0,0,0,0,47,47,43,,,,,,,,,,,,,,3,1.2946805000538006,3,0.55,0.35000000000000003,12.61502,return,1.7371149000246078,,,,,,,,,,,,,,,,,p306,28,female,up_down_width,2025-11-25_16h40.51.267,exp1,2023.1.0,59.961708440637544,
,,,,,,,,,,,,,,,,5,7.8,8.9,10,11.1,12.2,1.1,0.8500000000000001,0.25,4.65,10,initial,36.05,281,321,361,400,440,9,9,9,9,9,,,,,,,0,0,0,0,0,48,48,36,,,,,,,,,,,,,,5,1.4637138999532908,5,0.4,0.5,18.02146,return,1.4841473000124097,,,,,,,,,,,,,,,,,p306,28,female,up_down_width,2025-11-25_16h40.51.267,exp1,2023.1.0,59.961708440637544,
,,,,,,,,,,,,,,,,4,8.65,9.55,10.45,11.35,0,0.9,0.5,0.4,3.1,10,initial,36.05,312,344,377,409,0,9,9,9,9,0,,,,,,,0,0,0,0,0,49,49,32,,,,,,,,,,,,,,4,1.8322125999256968,4,0.45,0.30000000000000004,10.81288,return,1.2298663000110537,,,,,,,,,,,,,,,,,p306,28,female,up_down_width,2025-11-25_16h40.51.267,exp1,2023.1.0,59.961708440637544,
,,,,,,,,,,,,,,,,5,8.2,9.1,10,10.9,11.8,0.9,0.65,0.25,3.85,10,initial,36.05,296,328,361,393,425,9,9,9,9,9,,,,,,,0,0,0,0,0,50,50,48,,,,,,,,,,,,,,5,1.1560870999237522,5,0.5,0.15000000000000008,5.40644,return,2.7406384999630973,,,,,,,,,,,,,,,,,p306,28,female,up_down_width,2025-11-25_16h40.51.267,exp1,2023.1.0,59.961708440637544,
,,,,,,,,,,,,,,,,4,8.35,9.45,10.55,11.65,0,1.1,0.8500000000000001,0.25,3.5500000000000003,10,initial,36.05,301,341,380,420,0,9,9,9,9,0,,,,,,,0,0,0,0,0,51,51,19,,,,,,,,,,,,,,4,2.8072717000031844,4,0.45,0.20000000000000007,7.20859,return,1.9270517999539152,,,,,,,,,,,,,,,,,p306,28,female,up_down_width,2025-11-25_16h40.51.267,exp1,2023.1.0,59.961708440637544,
,,,,,,,,,,,,,,,,,,,,,,,,,,,,,,,,,,,,,,,,,,,,,0,0,0,0,,,,,,,,,,,,,,,,,,,,,,,,,,,,970.332342699985,970.332342699985,970.332342699985,,,,,,,,,,,,p306,28,female,up_down_width,2025-11-25_16h40.51.267,exp1,2023.1.0,59.961708440637544,
,,,,,,,,,,,,,,,,4,8.9,9.633333333333333,10.366666666666667,11.1,0,0.7333333333333333,0.18333333333333326,0.55,2.75,10,match,36.05,321,347,374,400,0,9,9,9,9,0,,,,,,,1,0,1,0,0,0,0,1,,,,,,,,,,,,,,3,1.3463543000398204,3,0.35,0.5499999999999999,19.82361,return,1.9164285999722779,,,,,,,,,,,,,,,,,p306,28,female,up_down_width,2025-11-25_16h40.51.267,exp1,2023.1.0,59.961708440637544,
,,,,,,,,,,,,,,,,4,9.3,9.766666666666667,10.233333333333333,10.7,0,0.4666666666666667,0.21666666666666665,0.25,1.65,10,match,36.05,335,352,369,386,0,9,9,9,9,0,,,,,,,1,0,1,0,0,1,1,8,,,,,,,,,,,,,,4,1.4691778999986127,4,0.4,0.15000000000000008,5.40644,return,1.6324815000407398,,,,,,,,,,,,,,,,,p306,28,female,up_down_width,2025-11-25_16h40.51.267,exp1,2023.1.0,59.961708440637544,
,,,,,,,,,,,,,,,,3,9.3,10,10.7,0,0,0.7,0.29999999999999993,0.4,1.8,10,initial,36.05,335,361,386,0,0,9,9,9,0,0,,,,,,,1,0,1,0,0,2,2,9,,,,,,,,,,,,,,3,1.9556202000239864,3,0.3,0.15000000000000002,5.40644,return,1.1881413999944925,,,,,,,,,,,,,,,,,p306,28,female,up_down_width,2025-11-25_16h40.51.267,exp1,2023.1.0,59.961708440637544,
,,,,,,,,,,,,,,,,5,8.6,9.3,10,10.7,11.4,0.7,0.29999999999999993,0.4,3.1999999999999997,10,initial,36.05,310,335,361,386,411,9,9,9,9,9,,,,,,,1,0,1,0,0,3,3,44,,,,,,,,,,,,,,4,1.180374599993229,4,0.5,0.35000000000000003,12.61502,return,1.6130365999415517,,,,,,,,,,,,,,,,,p306,28,female,up_down_width,2025-11-25_16h40.51.267,exp1,2023.1.0,59.961708440637544,
,,,,,,,,,,,,,,,,5,8.35,9.175,10,10.825,11.65,0.825,0.575,0.25,3.55,10,match,36.05,301,331,361,390,420,9,9,9,9,9,,,,,,,1,0,1,0,0,4,4,20,,,,,,,,,,,,,,3,1.8081140000140294,3,0.55,0.15000000000000008,5.40644,return,2.6311552999541163,,,,,,,,,,,,,,,,,p306,28,female,up_down_width,2025-11-25_16h40.51.267,exp1,2023.1.0,59.961708440637544,
,,,,,,,,,,,,,,,,5,8.2,9.1,10,10.9,11.8,0.9,0.35,0.55,4.15,10,initial,36.05,296,328,361,393,425,9,9,9,9,9,,,,,,,1,0,1,0,0,5,5,46,,,,,,,,,,,,,,4,1.6271918999264017,4,0.3,0.49999999999999994,18.02146,return,1.2084743999876082,,,,,,,,,,,,,,,,,p306,28,female,up_down_width,2025-11-25_16h40.51.267,exp1,2023.1.0,59.961708440637544,
,,,,,,,,,,,,,,,,5,8.95,9.475,10,10.525,11.05,0.525,0.125,0.4,2.5,10,match,36.05,323,342,361,379,398,9,9,9,9,9,,,,,,,1,0,1,0,0,6,6,27,,,,,,,,,,,,,,4,1.5353046000236645,4,0.45,0.35000000000000003,12.61502,return,1.2488497000886127,,,,,,,,,,,,,,,,,p306,28,female,up_down_width,2025-11-25_16h40.51.267,exp1,2023.1.0,59.961708440637544,
,,,,,,,,,,,,,,,,4,9.3,9.766666666666667,10.233333333333333,10.7,0,0.4666666666666667,0.06666666666666665,0.4,1.8,10,match,36.05,335,352,369,386,0,9,9,9,9,0,,,,,,,1,0,1,0,0,7,7,10,,,,,,,,,,,,,,3,1.2225704999873415,3,0.35,0.3,10.81288,return,1.603131299954839,,,,,,,,,,,,,,,,,p306,28,female,up_down_width,2025-11-25_16h40.51.267,exp1,2023.1.0,59.961708440637544,
,,,,,,,,,,,,,,,,3,8.2,10,11.8,0,0,1.8,1.55,0.25,3.85,10,match,36.05,296,361,425,0,0,9,9,9,0,0,,,,,,,1,0,1,0,0,8,8,49,,,,,,,,,,,,,,3,2.5766599000198767,3,0.45,0.15000000000000008,5.40644,return,1.7677361000096425,,,,,,,,,,,,,,,,,p306,28,female,up_down_width,2025-11-25_16h40.51.267,exp1,2023.1.0,59.961708440637544,
,,,,,,,,,,,,,,,,5,7.8,8.9,10,11.1,12.2,1.1,0.7000000000000001,0.4,4.800000000000001,10,initial,36.05,281,321,361,400,440,9,9,9,9,9,,,,,,,1,0,1,0,0,9,9,38,,,,,,,,,,,,,,4,1.071527700056322,4,0.45,0.30000000000000004,10.81288,return,1.0438542999327183,,,,,,,,,,,,,,,,,p306,28,female,up_down_width,2025-11-25_16h40.51.267,exp1,2023.1.0,59.961708440637544,
,,,,,,,,,,,,,,,,5,8.6,9.3,10,10.7,11.4,0.7,0.1499999999999999,0.55,3.3499999999999996,10,initial,36.05,310,335,361,386,411,9,9,9,9,9,,,,,,,1,0,1,0,0,10,10,40,,,,,,,,,,,,,,4,1.5306660999776796,4,0.4,0.45,16.21932,return,3.2603124000597745,,,,,,,,,,,,,,,,,p306,28,female,up_down_width,2025-11-25_16h40.51.267,exp1,2023.1.0,59.961708440637544,
,,,,,,,,,,,,,,,,3,9.1,10,10.9,0,0,0.9,0.35,0.55,2.35,10,initial,36.05,328,361,393,0,0,9,9,9,0,0,,,,,,,1,0,1,0,0,11,11,11,,,,,,,,,,,,,,3,2.00309039989952,3,0.4,0.5,18.02146,return,1.5852681000251323,,,,,,,,,,,,,,,,,p306,28,female,up_down_width,2025-11-25_16h40.51.267,exp1,2023.1.0,59.961708440637544,
,,,,,,,,,,,,,,,,3,7.8,10,12.2,0,0,2.2,1.65,0.55,4.95,10,match,36.05,281,361,440,0,0,9,9,9,0,0,,,,,,,1,0,1,0,0,12,12,35,,,,,,,,,,,,,,3,1.481431599939242,3,0.25,0.49999999999999994,18.02146,return,1.421816200017929,,,,,,,,,,,,,,,,,p306,28,female,up_down_width,2025-11-25_16h40.51.267,exp1,2023.1.0,59.961708440637544,
,,,,,,,,,,,,,,,,3,9.1,10,10.9,0,0,0.9,0.65,0.25,2.05,10,initial,36.05,328,361,393,0,0,9,9,9,0,0,,,,,,,1,0,1,0,0,13,13,13,,,,,,,,,,,,,,3,0.5994650000939146,3,0.4,0.15000000000000008,5.40644,return,4.222472100052983,,,,,,,,,,,,,,,,,p306,28,female,up_down_width,2025-11-25_16h40.51.267,exp1,2023.1.0,59.961708440637544,
,,,,,,,,,,,,,,,,4,8.35,9.45,10.55,11.65,0,1.1,0.55,0.55,3.8500000000000005,10,initial,36.05,301,341,380,420,0,9,9,9,9,0,,,,,,,1,0,1,0,0,14,14,17,,,,,,,,,,,,,,3,2.242904799990356,3,0.25,0.39999999999999997,14.41717,return,1.4487884000409395,,,,,,,,,,,,,,,,,p306,28,female,up_down_width,2025-11-25_16h40.51.267,exp1,2023.1.0,59.961708440637544,
,,,,,,,,,,,,,,,,3,8.2,10,11.8,0,0,1.8,1.25,0.55,4.15,10,match,36.05,296,361,425,0,0,9,9,9,0,0,,,,,,,1,0,1,0,0,15,15,47,,,,,,,,,,,,,,3,1.687792000011541,3,0.55,0.4,14.41717,return,1.4105434999801219,,,,,,,,,,,,,,,,,p306,28,female,up_down_width,2025-11-25_16h40.51.267,exp1,2023.1.0,59.961708440637544,
,,,,,,,,,,,,,,,,3,8.2,10,11.8,0,0,1.7999999999999998,1.4,0.4,4,10,match,36.05,296,361,425,0,0,9,9,9,0,0,,,,,,,1,0,1,0,0,16,16,51,,,,,,,,,,,,,,3,1.211163999978453,3,0.5,0.30000000000000004,10.81288,return,2.0898823000025004,,,,,,,,,,,,,,,,,p306,28,female,up_down_width,2025-11-25_16h40.51.267,exp1,2023.1.0,59.961708440637544,
,,,,,,,,,,,,,,,,4,9.1,9.7,10.3,10.9,0,0.6,0.04999999999999997,0.55,2.35,10,match,36.05,328,350,371,393,0,9,9,9,9,0,,,,,,,1,0,1,0,0,17,17,12,,,,,,,,,,,,,,3,2.413620900013484,3,0.35,0.44999999999999996,16.21932,return,1.4516769000329077,,,,,,,,,,,,,,,,,p306,28,female,up_down_width,2025-11-25_16h40.51.267,exp1,2023.1.0,59.961708440637544,
,,,,,,,,,,,,,,,,5,7.8,8.9,10,11.1,12.2,1.1,0.55,0.55,4.95,10,initial,36.05,281,321,361,400,440,9,9,9,9,9,,,,,,,1,0,1,0,0,18,18,34,,,,,,,,,,,,,,5,1.7647517999866977,5,0.45,0.5,18.02146,return,2.7660544000100344,,,,,,,,,,,,,,,,,p306,28,female,up_down_width,2025-11-25_16h40.51.267,exp1,2023.1.0,59.961708440637544,
,,,,,,,,,,,,,,,,4,8.9,9.633333333333333,10.366666666666667,11.1,0,0.7333333333333334,0.4833333333333334,0.25,2.45,10,match,36.05,321,347,374,400,0,9,9,9,9,0,,,,,,,1,0,1,0,0,19,19,3,,,,,,,,,,,,,,4,1.735056999954395,4,0.5,0.10000000000000007,3.60429,return,2.3684341000625864,,,,,,,,,,,,,,,,,p306,28,female,up_down_width,2025-11-25_16h40.51.267,exp1,2023.1.0,59.961708440637544,
,,,,,,,,,,,,,,,,5,8.65,9.325,10,10.675,11.35,0.675,0.125,0.55,3.25,10,match,36.05,312,336,361,385,409,9,9,9,9,9,,,,,,,1,0,1,0,0,20,20,29,,,,,,,,,,,,,,4,1.5839659000048414,4,0.35,0.3,10.81288,return,1.7115632999921218,,,,,,,,,,,,,,,,,p306,28,female,up_down_width,2025-11-25_16h40.51.267,exp1,2023.1.0,59.961708440637544,
,,,,,,,,,,,,,,,,5,8.65,9.325,10,10.675,11.35,0.675,0.42500000000000004,0.25,2.95,10,match,36.05,312,336,361,385,409,9,9,9,9,9,,,,,,,1,0,1,0,0,21,21,31,,,,,,,,,,,,,,4,1.3958975999848917,4,0.25,0.15000000000000002,5.40644,return,0.9400362999876961,,,,,,,,,,,,,,,,,p306,28,female,up_down_width,2025-11-25_16h40.51.267,exp1,2023.1.0,59.961708440637544,
,,,,,,,,,,,,,,,,3,8.9,10,11.1,0,0,1.1,0.7000000000000001,0.4,2.6000000000000005,10,initial,36.05,321,361,400,0,0,9,9,9,0,0,,,,,,,1,0,1,0,0,22,22,4,,,,,,,,,,,,,,3,1.3094415999948978,3,0.25,0.15000000000000002,5.40644,return,2.790569599950686,,,,,,,,,,,,,,,,,p306,28,female,up_down_width,2025-11-25_16h40.51.267,exp1,2023.1.0,59.961708440637544,
,,,,,,,,,,,,,,,,3,9.1,10,10.9,0,0,0.9,0.5,0.4,2.2,10,initial,36.05,328,361,393,0,0,9,9,9,0,0,,,,,,,1,0,1,0,0,23,23,15,,,,,,,,,,,,,,3,1.530289400019683,3,0.3,0.35,12.61502,return,2.3642913999501616,,,,,,,,,,,,,,,,,p306,28,female,up_down_width,2025-11-25_16h40.51.267,exp1,2023.1.0,59.961708440637544,
,,,,,,,,,,,,,,,,3,9.3,10,10.7,0,0,0.7,0.44999999999999996,0.25,1.65,10,initial,36.05,335,361,386,0,0,9,9,9,0,0,,,,,,,1,0,1,0,0,24,24,7,,,,,,,,,,,,,,3,0.6444789000088349,3,0.3,0.10000000000000002,3.60429,return,1.3074863000074401,,,,,,,,,,,,,,,,,p306,28,female,up_down_width,2025-11-25_16h40.51.267,exp1,2023.1.0,59.961708440637544,
,,,,,,,,,,,,,,,,3,7.8,10,12.2,0,0,2.2,1.9500000000000002,0.25,4.65,10,match,36.05,281,361,440,0,0,9,9,9,0,0,,,,,,,1,0,1,0,0,25,25,37,,,,,,,,,,,,,,3,1.3281473000533879,3,0.25,0.10000000000000002,3.60429,return,1.4009533000644296,,,,,,,,,,,,,,,,,p306,28,female,up_down_width,2025-11-25_16h40.51.267,exp1,2023.1.0,59.961708440637544,
,,,,,,,,,,,,,,,,5,8.275,9.1375,10,10.8625,11.725,0.8625,0.6125,0.25,3.7,10,match,36.05,298,329,361,392,423,9,9,9,9,9,,,,,,,1,0,1,0,0,26,26,22,,,,,,,,,,,,,,4,0.825138199958019,4,0.2,0.05000000000000002,1.80215,return,1.7028404000448063,,,,,,,,,,,,,,,,,p306,28,female,up_down_width,2025-11-25_16h40.51.267,exp1,2023.1.0,59.961708440637544,
,,,,,,,,,,,,,,,,3,8.6,10,11.4,0,0,1.4,0.85,0.55,3.35,10,match,36.05,310,361,411,0,0,9,9,9,0,0,,,,,,,1,0,1,0,0,27,27,41,,,,,,,,,,,,,,3,1.4111938000423834,3,0.45,0.4,14.41717,return,1.3854631000431255,,,,,,,,,,,,,,,,,p306,28,female,up_down_width,2025-11-25_16h40.51.267,exp1,2023.1.0,59.961708440637544,
,,,,,,,,,,,,,,,,3,8.525,10,11.475,0,0,1.475,1.225,0.25,3.2,10,match,36.05,307,361,414,0,0,9,9,9,0,0,,,,,,,1,0,1,0,0,28,28,45,,,,,,,,,,,,,,3,1.26894340000581,3,0.55,0.10000000000000007,3.60429,return,2.2250965000130236,,,,,,,,,,,,,,,,,p306,28,female,up_down_width,2025-11-25_16h40.51.267,exp1,2023.1.0,59.961708440637544,
,,,,,,,,,,,,,,,,4,8.35,9.45,10.55,11.65,0,1.1,0.7000000000000001,0.4,3.7,10,initial,36.05,301,341,380,420,0,9,9,9,9,0,,,,,,,1,0,1,0,0,29,29,21,,,,,,,,,,,,,,4,1.4013308000285178,4,0.45,0.5,18.02146,return,1.6321424000198022,,,,,,,,,,,,,,,,,p306,28,female,up_down_width,2025-11-25_16h40.51.267,exp1,2023.1.0,59.961708440637544,
,,,,,,,,,,,,,,,,4,8.825,9.608333333333333,10.391666666666667,11.175,0,0.7833333333333333,0.5333333333333333,0.25,2.6,10,match,36.05,318,346,375,403,0,9,9,9,9,0,,,,,,,1,0,1,0,0,30,30,5,,,,,,,,,,,,,,4,1.5698402000125498,4,0.3,0.25,9.01073,return,1.9376421000342816,,,,,,,,,,,,,,,,,p306,28,female,up_down_width,2025-11-25_16h40.51.267,exp1,2023.1.0,59.961708440637544,
,,,,,,,,,,,,,,,,4,8.65,9.55,10.45,11.35,0,0.9,0.35,0.55,3.25,10,initial,36.05,312,344,377,409,0,9,9,9,9,0,,,,,,,1,0,1,0,0,31,31,28,,,,,,,,,,,,,,3,1.141717299935408,3,0.55,0.6000000000000001,21.62576,return,1.8144080999772996,,,,,,,,,,,,,,,,,p306,28,female,up_down_width,2025-11-25_16h40.51.267,exp1,2023.1.0,59.961708440637544,
,,,,,,,,,,,,,,,,5,8.35,9.175,10,10.825,11.65,0.8250000000000001,0.275,0.55,3.85,10,match,36.05,301,331,361,390,420,9,9,9,9,9,,,,,,,1,0,1,0,0,32,32,18,,,,,,,,,,,,,,4,2.879724699887447,4,0.25,0.5499999999999999,19.82361,return,1.8834789000684395,,,,,,,,,,,,,,,,,p306,28,female,up_down_width,2025-11-25_16h40.51.267,exp1,2023.1.0,59.961708440637544,
,,,,,,,,,,,,,,,,4,8.65,9.55,10.45,11.35,0,0.9,0.5,0.4,3.1,10,initial,36.05,312,344,377,409,0,9,9,9,9,0,,,,,,,1,0,1,0,0,33,33,32,,,,,,,,,,,,,,4,0.6253405000315979,4,0.35,0.49999999999999994,18.02146,return,1.7677659000037238,,,,,,,,,,,,,,,,,p306,28,female,up_down_width,2025-11-25_16h40.51.267,exp1,2023.1.0,59.961708440637544,
,,,,,,,,,,,,,,,,5,8.95,9.475,10,10.525,11.05,0.525,0.275,0.25,2.35,10,match,36.05,323,342,361,379,398,9,9,9,9,9,,,,,,,1,0,1,0,0,34,34,25,,,,,,,,,,,,,,4,1.7670496000209823,4,0.35,0.25,9.01073,return,1.9842592999339104,,,,,,,,,,,,,,,,,p306,28,female,up_down_width,2025-11-25_16h40.51.267,exp1,2023.1.0,59.961708440637544,
,,,,,,,,,,,,,,,,4,9.1,9.7,10.3,10.9,0,0.6000000000000001,0.20000000000000004,0.4,2.2,10,match,36.05,328,350,371,393,0,9,9,9,9,0,,,,,,,1,0,1,0,0,35,35,16,,,,,,,,,,,,,,3,0.7762646999908611,3,0.3,0.2,7.20859,return,2.5351929999887943,,,,,,,,,,,,,,,,,p306,28,female,up_down_width,2025-11-25_16h40.51.267,exp1,2023.1.0,59.961708440637544,
,,,,,,,,,,,,,,,,5,8.2,9.1,10,10.9,11.8,0.9,0.5,0.4,4,10,initial,36.05,296,328,361,393,425,9,9,9,9,9,,,,,,,1,0,1,0,0,36,36,50,,,,,,,,,,,,,,4,2.2670237999409437,4,0.2,0.3,10.81288,return,2.1284435000270605,,,,,,,,,,,,,,,,,p306,28,female,up_down_width,2025-11-25_16h40.51.267,exp1,2023.1.0,59.961708440637544,
,,,,,,,,,,,,,,,,5,8.65,9.325,10,10.675,11.35,0.675,0.275,0.4,3.1,10,match,36.05,312,336,361,385,409,9,9,9,9,9,,,,,,,1,0,1,0,0,37,37,33,,,,,,,,,,,,,,5,3.064217200037092,5,0.25,0.39999999999999997,14.41717,return,1.6445834999904037,,,,,,,,,,,,,,,,,p306,28,female,up_down_width,2025-11-25_16h40.51.267,exp1,2023.1.0,59.961708440637544,
,,,,,,,,,,,,,,,,3,8.9,10,11.1,0,0,1.1,0.55,0.55,2.75,10,initial,36.05,321,361,400,0,0,9,9,9,0,0,,,,,,,1,0,1,0,0,38,38,0,,,,,,,,,,,,,,3,2.1994965999620035,3,0.3,0.39999999999999997,14.41717,return,1.6950237000128254,,,,,,,,,,,,,,,,,p306,28,female,up_down_width,2025-11-25_16h40.51.267,exp1,2023.1.0,59.961708440637544,
,,,,,,,,,,,,,,,,3,9.3,10,10.7,0,0,0.7,0.1499999999999999,0.55,1.95,10,initial,36.05,335,361,386,0,0,9,9,9,0,0,,,,,,,1,0,1,0,0,39,39,6,,,,,,,,,,,,,,2,1.8764502999838442,2,0.3,0.6,21.62576,return,1.5605733999982476,,,,,,,,,,,,,,,,,p306,28,female,up_down_width,2025-11-25_16h40.51.267,exp1,2023.1.0,59.961708440637544,
,,,,,,,,,,,,,,,,3,8.9,10,11.1,0,0,1.1,0.8500000000000001,0.25,2.45,10,initial,36.05,321,361,400,0,0,9,9,9,0,0,,,,,,,1,0,1,0,0,40,40,2,,,,,,,,,,,,,,3,2.05209150002338,3,0.45,0.10000000000000002,3.60429,return,6.912571099936031,,,,,,,,,,,,,,,,,p306,28,female,up_down_width,2025-11-25_16h40.51.267,exp1,2023.1.0,59.961708440637544,
,,,,,,,,,,,,,,,,4,9.1,9.7,10.3,10.9,0,0.5999999999999999,0.3499999999999999,0.25,2.05,10,match,36.05,328,350,371,393,0,9,9,9,9,0,,,,,,,1,0,1,0,0,41,41,14,,,,,,,,,,,,,,4,2.0509369999635965,4,0.55,0.15000000000000008,5.40644,return,4.095776700065471,,,,,,,,,,,,,,,,,p306,28,female,up_down_width,2025-11-25_16h40.51.267,exp1,2023.1.0,59.961708440637544,
,,,,,,,,,,,,,,,,5,8.2,9.1,10,10.9,11.8,0.9,0.65,0.25,3.85,10,initial,36.05,296,328,361,393,425,9,9,9,9,9,,,,,,,1,0,1,0,0,42,42,48,,,,,,,,,,,,,,5,1.6684788999846205,5,0.45,0.15000000000000008,5.40644,return,2.3680575999896973,,,,,,,,,,,,,,,,,p306,28,female,up_down_width,2025-11-25_16h40.51.267,exp1,2023.1.0,59.961708440637544,
,,,,,,,,,,,,,,,,4,8.95,9.65,10.35,11.05,0,0.7,0.29999999999999993,0.4,2.5,10,initial,36.05,323,348,373,398,0,9,9,9,9,0,,,,,,,1,0,1,0,0,43,43,26,,,,,,,,,,,,,,3,3.2658607000485063,3,0.5,0.4,14.41717,return,2.7843032999662682,,,,,,,,,,,,,,,,,p306,28,female,up_down_width,2025-11-25_16h40.51.267,exp1,2023.1.0,59.961708440637544,
,,,,,,,,,,,,,,,,3,8.6,10,11.4,0,0,1.4,1.15,0.25,3.05,10,match,36.05,310,361,411,0,0,9,9,9,0,0,,,,,,,1,0,1,0,0,44,44,43,,,,,,,,,,,,,,3,0.9451378000667319,3,0.3,0.05000000000000002,1.80215,return,1.7224942999891937,,,,,,,,,,,,,,,,,p306,28,female,up_down_width,2025-11-25_16h40.51.267,exp1,2023.1.0,59.961708440637544,
,,,,,,,,,,,,,,,,4,8.95,9.65,10.35,11.05,0,0.7,0.44999999999999996,0.25,2.3499999999999996,10,initial,36.05,323,348,373,398,0,9,9,9,9,0,,,,,,,1,0,1,0,0,45,45,24,,,,,,,,,,,,,,4,1.0042443999554962,4,0.35,0.15000000000000002,5.40644,return,1.6177249000174925,,,,,,,,,,,,,,,,,p306,28,female,up_down_width,2025-11-25_16h40.51.267,exp1,2023.1.0,59.961708440637544,
,,,,,,,,,,,,,,,,5,7.8,8.9,10,11.1,12.2,1.1,0.8500000000000001,0.25,4.65,10,initial,36.05,281,321,361,400,440,9,9,9,9,9,,,,,,,1,0,1,0,0,46,46,36,,,,,,,,,,,,,,4,1.9478646999923512,4,0.25,0.15000000000000002,5.40644,return,1.6445668999804184,,,,,,,,,,,,,,,,,p306,28,female,up_down_width,2025-11-25_16h40.51.267,exp1,2023.1.0,59.961708440637544,
,,,,,,,,,,,,,,,,3,7.800000000000001,10,12.2,0,0,2.1999999999999997,1.7999999999999998,0.4,4.8,10,match,36.05,281,361,440,0,0,9,9,9,0,0,,,,,,,1,0,1,0,0,47,47,39,,,,,,,,,,,,,,3,0.8183586000232026,3,0.2,0.3,10.81288,return,1.4710963000543416,,,,,,,,,,,,,,,,,p306,28,female,up_down_width,2025-11-25_16h40.51.267,exp1,2023.1.0,59.961708440637544,
,,,,,,,,,,,,,,,,4,8.95,9.65,10.35,11.05,0,0.7,0.1499999999999999,0.55,2.65,10,initial,36.05,323,348,373,398,0,9,9,9,9,0,,,,,,,1,0,1,0,0,48,48,23,,,,,,,,,,,,,,3,1.276479099993594,3,0.4,0.30000000000000004,10.81288,return,1.959136400022544,,,,,,,,,,,,,,,,,p306,28,female,up_down_width,2025-11-25_16h40.51.267,exp1,2023.1.0,59.961708440637544,
,,,,,,,,,,,,,,,,4,8.65,9.55,10.45,11.35,0,0.9,0.65,0.25,2.95,10,initial,36.05,312,344,377,409,0,9,9,9,9,0,,,,,,,1,0,1,0,0,49,49,30,,,,,,,,,,,,,,4,1.6772818999597803,4,0.3,0.2,7.20859,return,1.4321878999471664,,,,,,,,,,,,,,,,,p306,28,female,up_down_width,2025-11-25_16h40.51.267,exp1,2023.1.0,59.961708440637544,
,,,,,,,,,,,,,,,,5,8.6,9.3,10,10.7,11.4,0.7,0.44999999999999996,0.25,3.05,10,initial,36.05,310,335,361,386,411,9,9,9,9,9,,,,,,,1,0,1,0,0,50,50,42,,,,,,,,,,,,,,5,2.0664859000826254,5,0.45,0.15000000000000008,5.40644,return,1.8235547000076622,,,,,,,,,,,,,,,,,p306,28,female,up_down_width,2025-11-25_16h40.51.267,exp1,2023.1.0,59.961708440637544,
,,,,,,,,,,,,,,,,4,8.35,9.45,10.55,11.65,0,1.1,0.8500000000000001,0.25,3.5500000000000003,10,initial,36.05,301,341,380,420,0,9,9,9,9,0,,,,,,,1,0,1,0,0,51,51,19,,,,,,,,,,,,,,3,1.0044605999719352,3,0.45,0.20000000000000007,7.20859,return,1.4602834000252187,,,,,,,,,,,,,,,,,p306,28,female,up_down_width,2025-11-25_16h40.51.267,exp1,2023.1.0,59.961708440637544,
,,,,,,,,,,,,,,,,,,,,,,,,,,,,,,,,,,,,,,,,,,,,,1,0,1,0,,,,,,,,,,,,,,,,,,,,,,,,,,,,1287.9323274999624,1287.9323274999624,1287.9323274999624,,,,,,,,,,,,p306,28,female,up_down_width,2025-11-25_16h40.51.267,exp1,2023.1.0,59.961708440637544,
,,,,,,,,,,,,,,,,3,9.1,10,10.9,0,0,0.9,0.65,0.25,2.05,10,initial,36.05,328,361,393,0,0,9,9,9,0,0,,,,,,,2,0,2,0,0,0,0,13,,,,,,,,,,,,,,3,0.6626466999296099,3,0.35,0.2,7.20859,return,1.8663951000198722,,,,,,,,,,,,,,,,,p306,28,female,up_down_width,2025-11-25_16h40.51.267,exp1,2023.1.0,59.961708440637544,
,,,,,,,,,,,,,,,,3,8.2,10,11.8,0,0,1.8,1.55,0.25,3.85,10,match,36.05,296,361,425,0,0,9,9,9,0,0,,,,,,,2,0,2,0,0,1,1,49,,,,,,,,,,,,,,3,0.8895072001032531,3,0.35,0.15000000000000002,5.40644,return,2.004234699998051,,,,,,,,,,,,,,,,,p306,28,female,up_down_width,2025-11-25_16h40.51.267,exp1,2023.1.0,59.961708440637544,
,,,,,,,,,,,,,,,,3,8.2,10,11.8,0,0,1.7999999999999998,1.4,0.4,4,10,match,36.05,296,361,425,0,0,9,9,9,0,0,,,,,,,2,0,2,0,0,2,2,51,,,,,,,,,,,,,,3,0.9885787999955937,3,0.3,0.39999999999999997,14.41717,return,1.5571801000041887,,,,,,,,,,,,,,,,,p306,28,female,up_down_width,2025-11-25_16h40.51.267,exp1,2023.1.0,59.961708440637544,
,,,,,,,,,,,,,,,,4,8.95,9.65,10.35,11.05,0,0.7,0.44999999999999996,0.25,2.3499999999999996,10,initial,36.05,323,348,373,398,0,9,9,9,9,0,,,,,,,2,0,2,0,0,3,3,24,,,,,,,,,,,,,,4,1.1324998000636697,4,0.25,0.25,9.01073,return,2.7992398999631405,,,,,,,,,,,,,,,,,p306,28,female,up_down_width,2025-11-25_16h40.51.267,exp1,2023.1.0,59.961708440637544,
,,,,,,,,,,,,,,,,4,9.1,9.7,10.3,10.9,0,0.6000000000000001,0.20000000000000004,0.4,2.2,10,match,36.05,328,350,371,393,0,9,9,9,9,0,,,,,,,2,0,2,0,0,4,4,16,,,,,,,,,,,,,,3,0.6683935000328347,3,0.3,0.3,10.81288,return,1.6644476000219584,,,,,,,,,,,,,,,,,p306,28,female,up_down_width,2025-11-25_16h40.51.267,exp1,2023.1.0,59.961708440637544,
,,,,,,,,,,,,,,,,5,8.2,9.1,10,10.9,11.8,0.9,0.65,0.25,3.85,10,initial,36.05,296,328,361,393,425,9,9,9,9,9,,,,,,,2,0,2,0,0,5,5,48,,,,,,,,,,,,,,4,2.3477068999782205,4,0.2,0.25,9.01073,return,1.7398382000392303,,,,,,,,,,,,,,,,,p306,28,female,up_down_width,2025-11-25_16h40.51.267,exp1,2023.1.0,59.961708440637544,
,,,,,,,,,,,,,,,,5,7.8,8.9,10,11.1,12.2,1.1,0.7000000000000001,0.4,4.800000000000001,10,initial,36.05,281,321,361,400,440,9,9,9,9,9,,,,,,,2,0,2,0,0,6,6,38,,,,,,,,,,,,,,5,2.6559587999945506,5,0.5,0.4,14.41717,return,2.1650244999909773,,,,,,,,,,,,,,,,,p306,28,female,up_down_width,2025-11-25_16h40.51.267,exp1,2023.1.0,59.961708440637544,
,,,,,,,,,,,,,,,,3,8.2,10,11.8,0,0,1.8,1.25,0.55,4.15,10,match,36.05,296,361,425,0,0,9,9,9,0,0,,,,,,,2,0,2,0,0,7,7,47,,,,,,,,,,,,,,3,0.5991768999956548,3,0.35,0.39999999999999997,14.41717,return,1.9018788000103086,,,,,,,,,,,,,,,,,p306,28,female,up_down_width,2025-11-25_16h40.51.267,exp1,2023.1.0,59.961708440637544,
,,,,,,,,,,,,,,,,3,9.3,10,10.7,0,0,0.7,0.29999999999999993,0.4,1.8,10,initial,36.05,335,361,386,0,0,9,9,9,0,0,,,,,,,2,0,2,0,0,8,8,9,,,,,,,,,,,,,,3,1.2438453999347985,3,0.5,0.4,14.41717,return,1.4158435999415815,,,,,,,,,,,,,,,,,p306,28,female,up_down_width,2025-11-25_16h40.51.267,exp1,2023.1.0,59.961708440637544,
,,,,,,,,,,,,,,,,4,8.65,9.55,10.45,11.35,0,0.9,0.65,0.25,2.95,10,initial,36.05,312,344,377,409,0,9,9,9,9,0,,,,,,,2,0,2,0,0,9,9,30,,,,,,,,,,,,,,4,1.6572524999501184,4,0.35,0.2,7.20859,return,3.286409700056538,,,,,,,,,,,,,,,,,p306,28,female,up_down_width,2025-11-25_16h40.51.267,exp1,2023.1.0,59.961708440637544,
,,,,,,,,,,,,,,,,5,8.6,9.3,10,10.7,11.4,0.7,0.29999999999999993,0.4,3.1999999999999997,10,initial,36.05,310,335,361,386,411,9,9,9,9,9,,,,,,,2,0,2,0,0,10,10,44,,,,,,,,,,,,,,4,0.922632500063628,4,0.2,0.3,10.81288,return,1.188339599990286,,,,,,,,,,,,,,,,,p306,28,female,up_down_width,2025-11-25_16h40.51.267,exp1,2023.1.0,59.961708440637544,
,,,,,,,,,,,,,,,,4,8.35,9.45,10.55,11.65,0,1.1,0.55,0.55,3.8500000000000005,10,initial,36.05,301,341,380,420,0,9,9,9,9,0,,,,,,,2,0,2,0,0,11,11,17,,,,,,,,,,,,,,4,0.8988046000013128,4,0.45,0.45,16.21932,return,1.3096463000401855,,,,,,,,,,,,,,,,,p306,28,female,up_down_width,2025-11-25_16h40.51.267,exp1,2023.1.0,59.961708440637544,
,,,,,,,,,,,,,,,,5,8.35,9.175,10,10.825,11.65,0.825,0.575,0.25,3.55,10,match,36.05,301,331,361,390,420,9,9,9,9,9,,,,,,,2,0,2,0,0,12,12,20,,,,,,,,,,,,,,5,1.1427072999067605,5,0.45,0.20000000000000007,7.20859,return,2.343872800003737,,,,,,,,,,,,,,,,,p306,28,female,up_down_width,2025-11-25_16h40.51.267,exp1,2023.1.0,59.961708440637544,
,,,,,,,,,,,,,,,,4,9.3,9.766666666666667,10.233333333333333,10.7,0,0.4666666666666667,0.21666666666666665,0.25,1.65,10,match,36.05,335,352,369,386,0,9,9,9,9,0,,,,,,,2,0,2,0,0,13,13,8,,,,,,,,,,,,,,4,3.1979414999950677,4,0.25,0.2,7.20859,return,1.6123384999809787,,,,,,,,,,,,,,,,,p306,28,female,up_down_width,2025-11-25_16h40.51.267,exp1,2023.1.0,59.961708440637544,
,,,,,,,,,,,,,,,,5,8.95,9.475,10,10.525,11.05,0.525,0.275,0.25,2.35,10,match,36.05,323,342,361,379,398,9,9,9,9,9,,,,,,,2,0,2,0,0,14,14,25,,,,,,,,,,,,,,5,1.3815464000217617,5,0.4,0.15000000000000008,5.40644,return,1.5965342000126839,,,,,,,,,,,,,,,,,p306,28,female,up_down_width,2025-11-25_16h40.51.267,exp1,2023.1.0,59.961708440637544,
,,,,,,,,,,,,,,,,5,8.275,9.1375,10,10.8625,11.725,0.8625,0.6125,0.25,3.7,10,match,36.05,298,329,361,392,423,9,9,9,9,9,,,,,,,2,0,2,0,0,15,15,22,,,,,,,,,,,,,,4,2.081163499969989,4,0.5,0.20000000000000007,7.20859,return,1.916231199982576,,,,,,,,,,,,,,,,,p306,28,female,up_down_width,2025-11-25_16h40.51.267,exp1,2023.1.0,59.961708440637544,
,,,,,,,,,,,,,,,,4,8.65,9.55,10.45,11.35,0,0.9,0.35,0.55,3.25,10,initial,36.05,312,344,377,409,0,9,9,9,9,0,,,,,,,2,0,2,0,0,16,16,28,,,,,,,,,,,,,,3,1.1178647000342607,3,0.45,0.55,19.82361,return,1.3599902000278234,,,,,,,,,,,,,,,,,p306,28,female,up_down_width,2025-11-25_16h40.51.267,exp1,2023.1.0,59.961708440637544,
,,,,,,,,,,,,,,,,4,8.95,9.65,10.35,11.05,0,0.7,0.1499999999999999,0.55,2.65,10,initial,36.05,323,348,373,398,0,9,9,9,9,0,,,,,,,2,0,2,0,0,17,17,23,,,,,,,,,,,,,,3,1.446504699997604,3,0.35,0.49999999999999994,18.02146,return,1.1476580000016838,,,,,,,,,,,,,,,,,p306,28,female,up_down_width,2025-11-25_16h40.51.267,exp1,2023.1.0,59.961708440637544,
,,,,,,,,,,,,,,,,3,8.6,10,11.4,0,0,1.4,1.15,0.25,3.05,10,match,36.05,310,361,411,0,0,9,9,9,0,0,,,,,,,2,0,2,0,0,18,18,43,,,,,,,,,,,,,,3,1.1564342000056058,3,0.2,0.15000000000000002,5.40644,return,1.1579702000599355,,,,,,,,,,,,,,,,,p306,28,female,up_down_width,2025-11-25_16h40.51.267,exp1,2023.1.0,59.961708440637544,
,,,,,,,,,,,,,,,,4,8.825,9.608333333333333,10.391666666666667,11.175,0,0.7833333333333333,0.5333333333333333,0.25,2.6,10,match,36.05,318,346,375,403,0,9,9,9,9,0,,,,,,,2,0,2,0,0,19,19,5,,,,,,,,,,,,,,4,0.884377200040035,4,0.35,0.15000000000000002,5.40644,return,1.2632525999797508,,,,,,,,,,,,,,,,,p306,28,female,up_down_width,2025-11-25_16h40.51.267,exp1,2023.1.0,59.961708440637544,
,,,,,,,,,,,,,,,,4,8.35,9.45,10.55,11.65,0,1.1,0.8500000000000001,0.25,3.5500000000000003,10,initial,36.05,301,341,380,420,0,9,9,9,9,0,,,,,,,2,0,2,0,0,20,20,19,,,,,,,,,,,,,,4,0.6873667000327259,4,0.45,0.20000000000000007,7.20859,return,1.251146599999629,,,,,,,,,,,,,,,,,p306,28,female,up_down_width,2025-11-25_16h40.51.267,exp1,2023.1.0,59.961708440637544,
,,,,,,,,,,,,,,,,5,8.6,9.3,10,10.7,11.4,0.7,0.44999999999999996,0.25,3.05,10,initial,36.05,310,335,361,386,411,9,9,9,9,9,,,,,,,2,0,2,0,0,21,21,42,,,,,,,,,,,,,,4,1.3424806999973953,4,0.2,0.2,7.20859,return,1.591941500082612,,,,,,,,,,,,,,,,,p306,28,female,up_down_width,2025-11-25_16h40.51.267,exp1,2023.1.0,59.961708440637544,
,,,,,,,,,,,,,,,,3,8.9,10,11.1,0,0,1.1,0.8500000000000001,0.25,2.45,10,initial,36.05,321,361,400,0,0,9,9,9,0,0,,,,,,,2,0,2,0,0,22,22,2,,,,,,,,,,,,,,3,0.713039500056766,3,0.45,0.15000000000000008,5.40644,return,1.5158074999926612,,,,,,,,,,,,,,,,,p306,28,female,up_down_width,2025-11-25_16h40.51.267,exp1,2023.1.0,59.961708440637544,
,,,,,,,,,,,,,,,,5,8.6,9.3,10,10.7,11.4,0.7,0.1499999999999999,0.55,3.3499999999999996,10,initial,36.05,310,335,361,386,411,9,9,9,9,9,,,,,,,2,0,2,0,0,23,23,40,,,,,,,,,,,,,,3,2.20919970003888,3,0.4,0.5,18.02146,return,1.0154467000393197,,,,,,,,,,,,,,,,,p306,28,female,up_down_width,2025-11-25_16h40.51.267,exp1,2023.1.0,59.961708440637544,
,,,,,,,,,,,,,,,,5,7.8,8.9,10,11.1,12.2,1.1,0.8500000000000001,0.25,4.65,10,initial,36.05,281,321,361,400,440,9,9,9,9,9,,,,,,,2,0,2,0,0,24,24,36,,,,,,,,,,,,,,5,1.032864199951291,5,0.5,0.10000000000000007,3.60429,return,2.029865500051528,,,,,,,,,,,,,,,,,p306,28,female,up_down_width,2025-11-25_16h40.51.267,exp1,2023.1.0,59.961708440637544,
,,,,,,,,,,,,,,,,4,8.9,9.633333333333333,10.366666666666667,11.1,0,0.7333333333333334,0.4833333333333334,0.25,2.45,10,match,36.05,321,347,374,400,0,9,9,9,9,0,,,,,,,2,0,2,0,0,25,25,3,,,,,,,,,,,,,,5,1.0563082000007853,5,0.3,0.10000000000000002,3.60429,return,1.3806140000233427,,,,,,,,,,,,,,,,,p306,28,female,up_down_width,2025-11-25_16h40.51.267,exp1,2023.1.0,59.961708440637544,
,,,,,,,,,,,,,,,,4,9.3,9.766666666666667,10.233333333333333,10.7,0,0.4666666666666667,0.06666666666666665,0.4,1.8,10,match,36.05,335,352,369,386,0,9,9,9,9,0,,,,,,,2,0,2,0,0,26,26,10,,,,,,,,,,,,,,4,2.3517447999911383,4,0.35,0.39999999999999997,14.41717,return,1.7290096000069752,,,,,,,,,,,,,,,,,p306,28,female,up_down_width,2025-11-25_16h40.51.267,exp1,2023.1.0,59.961708440637544,
,,,,,,,,,,,,,,,,3,7.800000000000001,10,12.2,0,0,2.1999999999999997,1.7999999999999998,0.4,4.8,10,match,36.05,281,361,440,0,0,9,9,9,0,0,,,,,,,2,0,2,0,0,27,27,39,,,,,,,,,,,,,,3,0.7459620999870822,3,0.3,0.3,10.81288,return,2.1704579000361264,,,,,,,,,,,,,,,,,p306,28,female,up_down_width,2025-11-25_16h40.51.267,exp1,2023.1.0,59.961708440637544,
,,,,,,,,,,,,,,,,3,8.6,10,11.4,0,0,1.4,0.85,0.55,3.35,10,match,36.05,310,361,411,0,0,9,9,9,0,0,,,,,,,2,0,2,0,0,28,28,41,,,,,,,,,,,,,,3,1.3543922998942435,3,0.35,0.44999999999999996,16.21932,return,1.57153690000996,,,,,,,,,,,,,,,,,p306,28,female,up_down_width,2025-11-25_16h40.51.267,exp1,2023.1.0,59.961708440637544,
,,,,,,,,,,,,,,,,3,8.525,10,11.475,0,0,1.475,1.225,0.25,3.2,10,match,36.05,307,361,414,0,0,9,9,9,0,0,,,,,,,2,0,2,0,0,29,29,45,,,,,,,,,,,,,,3,1.004146400024183,3,0.55,0.10000000000000007,3.60429,return,2.0827021000441164,,,,,,,,,,,,,,,,,p306,28,female,up_down_width,2025-11-25_16h40.51.267,exp1,2023.1.0,59.961708440637544,
,,,,,,,,,,,,,,,,5,8.2,9.1,10,10.9,11.8,0.9,0.35,0.55,4.15,10,initial,36.05,296,328,361,393,425,9,9,9,9,9,,,,,,,2,0,2,0,0,30,30,46,,,,,,,,,,,,,,4,0.9984497000696138,4,0.25,0.5499999999999999,19.82361,return,1.7573746000416577,,,,,,,,,,,,,,,,,p306,28,female,up_down_width,2025-11-25_16h40.51.267,exp1,2023.1.0,59.961708440637544,
,,,,,,,,,,,,,,,,4,8.35,9.45,10.55,11.65,0,1.1,0.7000000000000001,0.4,3.7,10,initial,36.05,301,341,380,420,0,9,9,9,9,0,,,,,,,2,0,2,0,0,31,31,21,,,,,,,,,,,,,,4,1.0175025999778882,4,0.35,0.44999999999999996,16.21932,return,1.071017700014636,,,,,,,,,,,,,,,,,p306,28,female,up_down_width,2025-11-25_16h40.51.267,exp1,2023.1.0,59.961708440637544,
,,,,,,,,,,,,,,,,3,9.1,10,10.9,0,0,0.9,0.35,0.55,2.35,10,initial,36.05,328,361,393,0,0,9,9,9,0,0,,,,,,,2,0,2,0,0,32,32,11,,,,,,,,,,,,,,3,0.7693336000666022,3,0.35,0.44999999999999996,16.21932,return,1.2177170999348164,,,,,,,,,,,,,,,,,p306,28,female,up_down_width,2025-11-25_16h40.51.267,exp1,2023.1.0,59.961708440637544,
,,,,,,,,,,,,,,,,5,7.8,8.9,10,11.1,12.2,1.1,0.55,0.55,4.95,10,initial,36.05,281,321,361,400,440,9,9,9,9,9,,,,,,,2,0,2,0,0,33,33,34,,,,,,,,,,,,,,5,1.188670999952592,5,0.5,0.55,19.82361,return,1.2992298000026494,,,,,,,,,,,,,,,,,p306,28,female,up_down_width,2025-11-25_16h40.51.267,exp1,2023.1.0,59.961708440637544,
,,,,,,,,,,,,,,,,5,8.95,9.475,10,10.525,11.05,0.525,0.125,0.4,2.5,10,match,36.05,323,342,361,379,398,9,9,9,9,9,,,,,,,2,0,2,0,0,34,34,27,,,,,,,,,,,,,,3,1.1663665999658406,3,0.2,0.49999999999999994,18.02146,return,1.7422115000663325,,,,,,,,,,,,,,,,,p306,28,female,up_down_width,2025-11-25_16h40.51.267,exp1,2023.1.0,59.961708440637544,
,,,,,,,,,,,,,,,,5,8.65,9.325,10,10.675,11.35,0.675,0.125,0.55,3.25,10,match,36.05,312,336,361,385,409,9,9,9,9,9,,,,,,,2,0,2,0,0,35,35,29,,,,,,,,,,,,,,4,1.307113099959679,4,0.35,0.44999999999999996,16.21932,return,1.125677099917084,,,,,,,,,,,,,,,,,p306,28,female,up_down_width,2025-11-25_16h40.51.267,exp1,2023.1.0,59.961708440637544,
,,,,,,,,,,,,,,,,4,9.1,9.7,10.3,10.9,0,0.6,0.04999999999999997,0.55,2.35,10,match,36.05,328,350,371,393,0,9,9,9,9,0,,,,,,,2,0,2,0,0,36,36,12,,,,,,,,,,,,,,3,0.9462309000082314,3,0.3,0.5499999999999999,19.82361,return,2.7158432999858633,,,,,,,,,,,,,,,,,p306,28,female,up_down_width,2025-11-25_16h40.51.267,exp1,2023.1.0,59.961708440637544,
,,,,,,,,,,,,,,,,4,8.65,9.55,10.45,11.35,0,0.9,0.5,0.4,3.1,10,initial,36.05,312,344,377,409,0,9,9,9,9,0,,,,,,,2,0,2,0,0,37,37,32,,,,,,,,,,,,,,4,0.8913173999171704,4,0.45,0.4,14.41717,return,1.9919479000382125,,,,,,,,,,,,,,,,,p306,28,female,up_down_width,2025-11-25_16h40.51.267,exp1,2023.1.0,59.961708440637544,
,,,,,,,,,,,,,,,,4,8.95,9.65,10.35,11.05,0,0.7,0.29999999999999993,0.4,2.5,10,initial,36.05,323,348,373,398,0,9,9,9,9,0,,,,,,,2,0,2,0,0,38,38,26,,,,,,,,,,,,,,4,0.7663056999444962,4,0.55,0.4,14.41717,return,1.0717341999989003,,,,,,,,,,,,,,,,,p306,28,female,up_down_width,2025-11-25_16h40.51.267,exp1,2023.1.0,59.961708440637544,
,,,,,,,,,,,,,,,,5,8.65,9.325,10,10.675,11.35,0.675,0.42500000000000004,0.25,2.95,10,match,36.05,312,336,361,385,409,9,9,9,9,9,,,,,,,2,0,2,0,0,39,39,31,,,,,,,,,,,,,,4,2.0224817999405786,4,0.2,0.25,9.01073,return,2.566194099956192,,,,,,,,,,,,,,,,,p306,28,female,up_down_width,2025-11-25_16h40.51.267,exp1,2023.1.0,59.961708440637544,
,,,,,,,,,,,,,,,,4,8.9,9.633333333333333,10.366666666666667,11.1,0,0.7333333333333333,0.18333333333333326,0.55,2.75,10,match,36.05,321,347,374,400,0,9,9,9,9,0,,,,,,,2,0,2,0,0,40,40,1,,,,,,,,,,,,,,3,0.6961250000167638,3,0.4,0.5,18.02146,return,1.4991943000350147,,,,,,,,,,,,,,,,,p306,28,female,up_down_width,2025-11-25_16h40.51.267,exp1,2023.1.0,59.961708440637544,
,,,,,,,,,,,,,,,,3,7.8,10,12.2,0,0,2.2,1.9500000000000002,0.25,4.65,10,match,36.05,281,361,440,0,0,9,9,9,0,0,,,,,,,2,0,2,0,0,41,41,37,,,,,,,,,,,,,,3,0.7550136999925599,3,0.2,0.15000000000000002,5.40644,return,1.9232574999332428,,,,,,,,,,,,,,,,,p306,28,female,up_down_width,2025-11-25_16h40.51.267,exp1,2023.1.0,59.961708440637544,
,,,,,,,,,,,,,,,,3,8.9,10,11.1,0,0,1.1,0.7000000000000001,0.4,2.6000000000000005,10,initial,36.05,321,361,400,0,0,9,9,9,0,0,,,,,,,2,0,2,0,0,42,42,4,,,,,,,,,,,,,,3,0.6276676000561565,3,0.35,0.44999999999999996,16.21932,return,1.1135447999695316,,,,,,,,,,,,,,,,,p306,28,female,up_down_width,2025-11-25_16h40.51.267,exp1,2023.1.0,59.961708440637544,
,,,,,,,,,,,,,,,,3,8.9,10,11.1,0,0,1.1,0.55,0.55,2.75,10,initial,36.05,321,361,400,0,0,9,9,9,0,0,,,,,,,2,0,2,0,0,43,43,0,,,,,,,,,,,,,,3,0.8640283999266103,3,0.35,0.44999999999999996,16.21932,return,1.276465000002645,,,,,,,,,,,,,,,,,p306,28,female,up_down_width,2025-11-25_16h40.51.267,exp1,2023.1.0,59.961708440637544,
,,,,,,,,,,,,,,,,3,9.3,10,10.7,0,0,0.7,0.44999999999999996,0.25,1.65,10,initial,36.05,335,361,386,0,0,9,9,9,0,0,,,,,,,2,0,2,0,0,44,44,7,,,,,,,,,,,,,,3,0.7222376000136137,3,0.25,0.15000000000000002,5.40644,return,1.0770092000020668,,,,,,,,,,,,,,,,,p306,28,female,up_down_width,2025-11-25_16h40.51.267,exp1,2023.1.0,59.961708440637544,
,,,,,,,,,,,,,,,,5,8.2,9.1,10,10.9,11.8,0.9,0.5,0.4,4,10,initial,36.05,296,328,361,393,425,9,9,9,9,9,,,,,,,2,0,2,0,0,45,45,50,,,,,,,,,,,,,,4,1.3387717999285087,4,0.2,0.3,10.81288,return,1.0912583000026643,,,,,,,,,,,,,,,,,p306,28,female,up_down_width,2025-11-25_16h40.51.267,exp1,2023.1.0,59.961708440637544,
,,,,,,,,,,,,,,,,3,7.8,10,12.2,0,0,2.2,1.65,0.55,4.95,10,match,36.05,281,361,440,0,0,9,9,9,0,0,,,,,,,2,0,2,0,0,46,46,35,,,,,,,,,,,,,,3,0.7025489000370726,3,0.35,0.49999999999999994,18.02146,return,1.0891424000728875,,,,,,,,,,,,,,,,,p306,28,female,up_down_width,2025-11-25_16h40.51.267,exp1,2023.1.0,59.961708440637544,
,,,,,,,,,,,,,,,,3,9.1,10,10.9,0,0,0.9,0.5,0.4,2.2,10,initial,36.05,328,361,393,0,0,9,9,9,0,0,,,,,,,2,0,2,0,0,47,47,15,,,,,,,,,,,,,,3,0.9579571000067517,3,0.3,0.44999999999999996,16.21932,return,1.0297113000415266,,,,,,,,,,,,,,,,,p306,28,female,up_down_width,2025-11-25_16h40.51.267,exp1,2023.1.0,59.961708440637544,
,,,,,,,,,,,,,,,,5,8.35,9.175,10,10.825,11.65,0.8250000000000001,0.275,0.55,3.85,10,match,36.05,301,331,361,390,420,9,9,9,9,9,,,,,,,2,0,2,0,0,48,48,18,,,,,,,,,,,,,,4,0.9180181999690831,4,0.55,0.55,19.82361,return,1.519888999988325,,,,,,,,,,,,,,,,,p306,28,female,up_down_width,2025-11-25_16h40.51.267,exp1,2023.1.0,59.961708440637544,
,,,,,,,,,,,,,,,,4,9.1,9.7,10.3,10.9,0,0.5999999999999999,0.3499999999999999,0.25,2.05,10,match,36.05,328,350,371,393,0,9,9,9,9,0,,,,,,,2,0,2,0,0,49,49,14,,,,,,,,,,,,,,4,0.868659200030379,4,0.3,0.15000000000000002,5.40644,return,1.1518608999904245,,,,,,,,,,,,,,,,,p306,28,female,up_down_width,2025-11-25_16h40.51.267,exp1,2023.1.0,59.961708440637544,
,,,,,,,,,,,,,,,,3,9.3,10,10.7,0,0,0.7,0.1499999999999999,0.55,1.95,10,initial,36.05,335,361,386,0,0,9,9,9,0,0,,,,,,,2,0,2,0,0,50,50,6,,,,,,,,,,,,,,4,1.71557809994556,4,0.2,0.39999999999999997,14.41717,return,1.3256805000128224,,,,,,,,,,,,,,,,,p306,28,female,up_down_width,2025-11-25_16h40.51.267,exp1,2023.1.0,59.961708440637544,
,,,,,,,,,,,,,,,,5,8.65,9.325,10,10.675,11.35,0.675,0.275,0.4,3.1,10,match,36.05,312,336,361,385,409,9,9,9,9,9,,,,,,,2,0,2,0,0,51,51,33,,,,,,,,,,,,,,4,0.6876406000228599,4,0.25,0.3,10.81288,return,1.3938829000107944,,,,,,,,,,,,,,,,,p306,28,female,up_down_width,2025-11-25_16h40.51.267,exp1,2023.1.0,59.961708440637544,
,,,,,,,,,,,,,,,,,,,,,,,,,,,,,,,,,,,,,,,,,,,,,2,0,2,0,,,,,,,,,,,,,,,,,,,,,,,,,,,,1533.0989255999448,1533.0989255999448,1533.0989255999448,,,,,,,,,,,,p306,28,female,up_down_width,2025-11-25_16h40.51.267,exp1,2023.1.0,59.961708440637544,
,,,,,,,,,,,,,,,,4,9.3,9.766666666666667,10.233333333333333,10.7,0,0.4666666666666667,0.21666666666666665,0.25,1.65,10,match,36.05,335,352,369,386,0,9,9,9,9,0,,,,,,,3,0,3,0,0,0,0,8,,,,,,,,,,,,,,4,1.2079215000849217,4,0.55,0.15000000000000008,5.40644,return,3.9905917000724003,,,,,,,,,,,,,,,,,p306,28,female,up_down_width,2025-11-25_16h40.51.267,exp1,2023.1.0,59.961708440637544,
,,,,,,,,,,,,,,,,3,8.2,10,11.8,0,0,1.8,1.25,0.55,4.15,10,match,36.05,296,361,425,0,0,9,9,9,0,0,,,,,,,3,0,3,0,0,1,1,47,,,,,,,,,,,,,,3,0.9363386000040919,3,0.5,0.5,18.02146,return,2.1311356000369415,,,,,,,,,,,,,,,,,p306,28,female,up_down_width,2025-11-25_16h40.51.267,exp1,2023.1.0,59.961708440637544,
,,,,,,,,,,,,,,,,4,8.825,9.608333333333333,10.391666666666667,11.175,0,0.7833333333333333,0.5333333333333333,0.25,2.6,10,match,36.05,318,346,375,403,0,9,9,9,9,0,,,,,,,3,0,3,0,0,2,2,5,,,,,,,,,,,,,,4,4.502338299993426,4,0.55,0.10000000000000007,3.60429,return,2.417542599956505,,,,,,,,,,,,,,,,,p306,28,female,up_down_width,2025-11-25_16h40.51.267,exp1,2023.1.0,59.961708440637544,
,,,,,,,,,,,,,,,,4,9.1,9.7,10.3,10.9,0,0.5999999999999999,0.3499999999999999,0.25,2.05,10,match,36.05,328,350,371,393,0,9,9,9,9,0,,,,,,,3,0,3,0,0,3,3,14,,,,,,,,,,,,,,4,2.429873700020835,4,0.35,0.10000000000000002,3.60429,return,1.4198681999696419,,,,,,,,,,,,,,,,,p306,28,female,up_down_width,2025-11-25_16h40.51.267,exp1,2023.1.0,59.961708440637544,
,,,,,,,,,,,,,,,,3,8.525,10,11.475,0,0,1.475,1.225,0.25,3.2,10,match,36.05,307,361,414,0,0,9,9,9,0,0,,,,,,,3,0,3,0,0,4,4,45,,,,,,,,,,,,,,3,0.7623987999977544,3,0.25,0.2,7.20859,return,2.8752558000851423,,,,,,,,,,,,,,,,,p306,28,female,up_down_width,2025-11-25_16h40.51.267,exp1,2023.1.0,59.961708440637544,
,,,,,,,,,,,,,,,,5,7.8,8.9,10,11.1,12.2,1.1,0.8500000000000001,0.25,4.65,10,initial,36.05,281,321,361,400,440,9,9,9,9,9,,,,,,,3,0,3,0,0,5,5,36,,,,,,,,,,,,,,4,0.9360618999926373,4,0.3,0.2,7.20859,return,2.561874800012447,,,,,,,,,,,,,,,,,p306,28,female,up_down_width,2025-11-25_16h40.51.267,exp1,2023.1.0,59.961708440637544,
,,,,,,,,,,,,,,,,4,9.3,9.766666666666667,10.233333333333333,10.7,0,0.4666666666666667,0.06666666666666665,0.4,1.8,10,match,36.05,335,352,369,386,0,9,9,9,9,0,,,,,,,3,0,3,0,0,6,6,10,,,,,,,,,,,,,,3,0.9685456999577582,3,0.4,0.30000000000000004,10.81288,return,1.4731074000010267,,,,,,,,,,,,,,,,,p306,28,female,up_down_width,2025-11-25_16h40.51.267,exp1,2023.1.0,59.961708440637544,
,,,,,,,,,,,,,,,,3,8.9,10,11.1,0,0,1.1,0.55,0.55,2.75,10,initial,36.05,321,361,400,0,0,9,9,9,0,0,,,,,,,3,0,3,0,0,7,7,0,,,,,,,,,,,,,,3,1.0969263999722898,3,0.25,0.39999999999999997,14.41717,return,1.0848692998988554,,,,,,,,,,,,,,,,,p306,28,female,up_down_width,2025-11-25_16h40.51.267,exp1,2023.1.0,59.961708440637544,
,,,,,,,,,,,,,,,,5,7.8,8.9,10,11.1,12.2,1.1,0.55,0.55,4.95,10,initial,36.05,281,321,361,400,440,9,9,9,9,9,,,,,,,3,0,3,0,0,8,8,34,,,,,,,,,,,,,,4,0.6431033000117168,4,0.25,0.39999999999999997,14.41717,return,1.0321453999495134,,,,,,,,,,,,,,,,,p306,28,female,up_down_width,2025-11-25_16h40.51.267,exp1,2023.1.0,59.961708440637544,
,,,,,,,,,,,,,,,,4,9.1,9.7,10.3,10.9,0,0.6,0.04999999999999997,0.55,2.35,10,match,36.05,328,350,371,393,0,9,9,9,9,0,,,,,,,3,0,3,0,0,9,9,12,,,,,,,,,,,,,,3,1.8566952000837773,3,0.25,0.44999999999999996,16.21932,return,1.0611853000009432,,,,,,,,,,,,,,,,,p306,28,female,up_down_width,2025-11-25_16h40.51.267,exp1,2023.1.0,59.961708440637544,
,,,,,,,,,,,,,,,,4,8.35,9.45,10.55,11.65,0,1.1,0.8500000000000001,0.25,3.5500000000000003,10,initial,36.05,301,341,380,420,0,9,9,9,9,0,,,,,,,3,0,3,0,0,10,10,19,,,,,,,,,,,,,,4,1.6609576999908313,4,0.55,0.15000000000000008,5.40644,return,2.4412767000030726,,,,,,,,,,,,,,,,,p306,28,female,up_down_width,2025-11-25_16h40.51.267,exp1,2023.1.0,59.961708440637544,
,,,,,,,,,,,,,,,,3,9.3,10,10.7,0,0,0.7,0.29999999999999993,0.4,1.8,10,initial,36.05,335,361,386,0,0,9,9,9,0,0,,,,,,,3,0,3,0,0,11,11,9,,,,,,,,,,,,,,3,1.0532629999797791,3,0.25,0.35,12.61502,return,1.3465595999732614,,,,,,,,,,,,,,,,,p306,28,female,up_down_width,2025-11-25_16h40.51.267,exp1,2023.1.0,59.961708440637544,
,,,,,,,,,,,,,,,,5,8.6,9.3,10,10.7,11.4,0.7,0.44999999999999996,0.25,3.05,10,initial,36.05,310,335,361,386,411,9,9,9,9,9,,,,,,,3,0,3,0,0,12,12,42,,,,,,,,,,,,,,4,1.5580131000606343,4,0.2,0.35,12.61502,return,2.247311500017531,,,,,,,,,,,,,,,,,p306,28,female,up_down_width,2025-11-25_16h40.51.267,exp1,2023.1.0,59.961708440637544,
,,,,,,,,,,,,,,,,3,8.6,10,11.4,0,0,1.4,0.85,0.55,3.35,10,match,36.05,310,361,411,0,0,9,9,9,0,0,,,,,,,3,0,3,0,0,13,13,41,,,,,,,,,,,,,,3,1.1092956000939012,3,0.25,0.25,9.01073,return,2.056055499939248,,,,,,,,,,,,,,,,,p306,28,female,up_down_width,2025-11-25_16h40.51.267,exp1,2023.1.0,59.961708440637544,
,,,,,,,,,,,,,,,,3,9.3,10,10.7,0,0,0.7,0.44999999999999996,0.25,1.65,10,initial,36.05,335,361,386,0,0,9,9,9,0,0,,,,,,,3,0,3,0,0,14,14,7,,,,,,,,,,,,,,3,0.7517858000937849,3,0.3,0.10000000000000002,3.60429,return,1.3271231999387965,,,,,,,,,,,,,,,,,p306,28,female,up_down_width,2025-11-25_16h40.51.267,exp1,2023.1.0,59.961708440637544,
,,,,,,,,,,,,,,,,3,8.2,10,11.8,0,0,1.8,1.55,0.25,3.85,10,match,36.05,296,361,425,0,0,9,9,9,0,0,,,,,,,3,0,3,0,0,15,15,49,,,,,,,,,,,,,,3,0.7805522000417113,3,0.55,0.15000000000000008,5.40644,return,2.2356950000394136,,,,,,,,,,,,,,,,,p306,28,female,up_down_width,2025-11-25_16h40.51.267,exp1,2023.1.0,59.961708440637544,
,,,,,,,,,,,,,,,,5,8.6,9.3,10,10.7,11.4,0.7,0.29999999999999993,0.4,3.1999999999999997,10,initial,36.05,310,335,361,386,411,9,9,9,9,9,,,,,,,3,0,3,0,0,16,16,44,,,,,,,,,,,,,,4,0.8897125000366941,4,0.35,0.3,10.81288,return,1.7966155000030994,,,,,,,,,,,,,,,,,p306,28,female,up_down_width,2025-11-25_16h40.51.267,exp1,2023.1.0,59.961708440637544,
,,,,,,,,,,,,,,,,4,9.1,9.7,10.3,10.9,0,0.6000000000000001,0.20000000000000004,0.4,2.2,10,match,36.05,328,350,371,393,0,9,9,9,9,0,,,,,,,3,0,3,0,0,17,17,16,,,,,,,,,,,,,,4,1.1339492000406608,4,0.45,0.4,14.41717,return,1.2318384000100195,,,,,,,,,,,,,,,,,p306,28,female,up_down_width,2025-11-25_16h40.51.267,exp1,2023.1.0,59.961708440637544,
,,,,,,,,,,,,,,,,5,8.6,9.3,10,10.7,11.4,0.7,0.1499999999999999,0.55,3.3499999999999996,10,initial,36.05,310,335,361,386,411,9,9,9,9,9,,,,,,,3,0,3,0,0,18,18,40,,,,,,,,,,,,,,4,1.0564925000071526,4,0.45,0.4,14.41717,return,1.062364500015974,,,,,,,,,,,,,,,,,p306,28,female,up_down_width,2025-11-25_16h40.51.267,exp1,2023.1.0,59.961708440637544,
,,,,,,,,,,,,,,,,3,8.9,10,11.1,0,0,1.1,0.8500000000000001,0.25,2.45,10,initial,36.05,321,361,400,0,0,9,9,9,0,0,,,,,,,3,0,3,0,0,19,19,2,,,,,,,,,,,,,,4,0.7406443000072613,4,0.3,0.10000000000000002,3.60429,return,1.5104342000558972,,,,,,,,,,,,,,,,,p306,28,female,up_down_width,2025-11-25_16h40.51.267,exp1,2023.1.0,59.961708440637544,
,,,,,,,,,,,,,,,,5,8.275,9.1375,10,10.8625,11.725,0.8625,0.6125,0.25,3.7,10,match,36.05,298,329,361,392,423,9,9,9,9,9,,,,,,,3,0,3,0,0,20,20,22,,,,,,,,,,,,,,4,0.8266973000718281,4,0.2,0.2,7.20859,return,1.160358399967663,,,,,,,,,,,,,,,,,p306,28,female,up_down_width,2025-11-25_16h40.51.267,exp1,2023.1.0,59.961708440637544,
,,,,,,,,,,,,,,,,5,7.8,8.9,10,11.1,12.2,1.1,0.7000000000000001,0.4,4.800000000000001,10,initial,36.05,281,321,361,400,440,9,9,9,9,9,,,,,,,3,0,3,0,0,21,21,38,,,,,,,,,,,,,,4,0.7212931000394747,4,0.2,0.3,10.81288,return,0.963670700090006,,,,,,,,,,,,,,,,,p306,28,female,up_down_width,2025-11-25_16h40.51.267,exp1,2023.1.0,59.961708440637544,
,,,,,,,,,,,,,,,,5,8.35,9.175,10,10.825,11.65,0.8250000000000001,0.275,0.55,3.85,10,match,36.05,301,331,361,390,420,9,9,9,9,9,,,,,,,3,0,3,0,0,22,22,18,,,,,,,,,,,,,,4,0.8680128999985754,4,0.5,0.35000000000000003,12.61502,return,1.5843264000723138,,,,,,,,,,,,,,,,,p306,28,female,up_down_width,2025-11-25_16h40.51.267,exp1,2023.1.0,59.961708440637544,
,,,,,,,,,,,,,,,,3,8.9,10,11.1,0,0,1.1,0.7000000000000001,0.4,2.6000000000000005,10,initial,36.05,321,361,400,0,0,9,9,9,0,0,,,,,,,3,0,3,0,0,23,23,4,,,,,,,,,,,,,,3,0.6425334999803454,3,0.3,0.44999999999999996,16.21932,return,1.3675899000372738,,,,,,,,,,,,,,,,,p306,28,female,up_down_width,2025-11-25_16h40.51.267,exp1,2023.1.0,59.961708440637544,
,,,,,,,,,,,,,,,,3,8.2,10,11.8,0,0,1.7999999999999998,1.4,0.4,4,10,match,36.05,296,361,425,0,0,9,9,9,0,0,,,,,,,3,0,3,0,0,24,24,51,,,,,,,,,,,,,,3,1.0104946000501513,3,0.5,0.4,14.41717,return,1.2406962000532076,,,,,,,,,,,,,,,,,p306,28,female,up_down_width,2025-11-25_16h40.51.267,exp1,2023.1.0,59.961708440637544,
,,,,,,,,,,,,,,,,4,8.65,9.55,10.45,11.35,0,0.9,0.65,0.25,2.95,10,initial,36.05,312,344,377,409,0,9,9,9,9,0,,,,,,,3,0,3,0,0,25,25,30,,,,,,,,,,,,,,4,0.8849758999422193,4,0.3,0.15000000000000002,5.40644,return,1.3112799000227824,,,,,,,,,,,,,,,,,p306,28,female,up_down_width,2025-11-25_16h40.51.267,exp1,2023.1.0,59.961708440637544,
,,,,,,,,,,,,,,,,4,8.65,9.55,10.45,11.35,0,0.9,0.5,0.4,3.1,10,initial,36.05,312,344,377,409,0,9,9,9,9,0,,,,,,,3,0,3,0,0,26,26,32,,,,,,,,,,,,,,3,1.7417500000447035,3,0.2,0.3,10.81288,return,1.9269133999478072,,,,,,,,,,,,,,,,,p306,28,female,up_down_width,2025-11-25_16h40.51.267,exp1,2023.1.0,59.961708440637544,
,,,,,,,,,,,,,,,,5,8.95,9.475,10,10.525,11.05,0.525,0.125,0.4,2.5,10,match,36.05,323,342,361,379,398,9,9,9,9,9,,,,,,,3,0,3,0,0,27,27,27,,,,,,,,,,,,,,4,1.0958458000095561,4,0.45,0.20000000000000007,7.20859,return,1.9312474000034854,,,,,,,,,,,,,,,,,p306,28,female,up_down_width,2025-11-25_16h40.51.267,exp1,2023.1.0,59.961708440637544,
,,,,,,,,,,,,,,,,4,8.35,9.45,10.55,11.65,0,1.1,0.7000000000000001,0.4,3.7,10,initial,36.05,301,341,380,420,0,9,9,9,9,0,,,,,,,3,0,3,0,0,28,28,21,,,,,,,,,,,,,,4,0.7735964000457898,4,0.55,0.25000000000000006,9.01073,return,3.0127122999401763,,,,,,,,,,,,,,,,,p306,28,female,up_down_width,2025-11-25_16h40.51.267,exp1,2023.1.0,59.961708440637544,
,,,,,,,,,,,,,,,,3,7.8,10,12.2,0,0,2.2,1.65,0.55,4.95,10,match,36.05,281,361,440,0,0,9,9,9,0,0,,,,,,,3,0,3,0,0,29,29,35,,,,,,,,,,,,,,3,0.9179737000958994,3,0.25,0.49999999999999994,18.02146,return,2.0160853000124916,,,,,,,,,,,,,,,,,p306,28,female,up_down_width,2025-11-25_16h40.51.267,exp1,2023.1.0,59.961708440637544,
,,,,,,,,,,,,,,,,5,8.65,9.325,10,10.675,11.35,0.675,0.42500000000000004,0.25,2.95,10,match,36.05,312,336,361,385,409,9,9,9,9,9,,,,,,,3,0,3,0,0,30,30,31,,,,,,,,,,,,,,5,1.447167299920693,5,0.4,0.05,1.80215,return,2.8618993000127375,,,,,,,,,,,,,,,,,p306,28,female,up_down_width,2025-11-25_16h40.51.267,exp1,2023.1.0,59.961708440637544,
,,,,,,,,,,,,,,,,5,8.95,9.475,10,10.525,11.05,0.525,0.275,0.25,2.35,10,match,36.05,323,342,361,379,398,9,9,9,9,9,,,,,,,3,0,3,0,0,31,31,25,,,,,,,,,,,,,,3,2.078185300109908,3,0.25,0.15000000000000002,5.40644,return,1.75346660008654,,,,,,,,,,,,,,,,,p306,28,female,up_down_width,2025-11-25_16h40.51.267,exp1,2023.1.0,59.961708440637544,
,,,,,,,,,,,,,,,,4,8.9,9.633333333333333,10.366666666666667,11.1,0,0.7333333333333334,0.4833333333333334,0.25,2.45,10,match,36.05,321,347,374,400,0,9,9,9,9,0,,,,,,,3,0,3,0,0,32,32,3,,,,,,,,,,,,,,3,0.8529806999722496,3,0.55,0.15000000000000008,5.40644,return,2.7209986000088975,,,,,,,,,,,,,,,,,p306,28,female,up_down_width,2025-11-25_16h40.51.267,exp1,2023.1.0,59.961708440637544,
,,,,,,,,,,,,,,,,5,8.2,9.1,10,10.9,11.8,0.9,0.5,0.4,4,10,initial,36.05,296,328,361,393,425,9,9,9,9,9,,,,,,,3,0,3,0,0,33,33,50,,,,,,,,,,,,,,4,2.317881800001487,4,0.35,0.49999999999999994,18.02146,return,1.55094690003898,,,,,,,,,,,,,,,,,p306,28,female,up_down_width,2025-11-25_16h40.51.267,exp1,2023.1.0,59.961708440637544,
,,,,,,,,,,,,,,,,3,7.8,10,12.2,0,0,2.2,1.9500000000000002,0.25,4.65,10,match,36.05,281,361,440,0,0,9,9,9,0,0,,,,,,,3,0,3,0,0,34,34,37,,,,,,,,,,,,,,3,2.4569465999957174,3,0.55,0.45,16.21932,return,2.1329024001024663,,,,,,,,,,,,,,,,,p306,28,female,up_down_width,2025-11-25_16h40.51.267,exp1,2023.1.0,59.961708440637544,
,,,,,,,,,,,,,,,,5,8.2,9.1,10,10.9,11.8,0.9,0.65,0.25,3.85,10,initial,36.05,296,328,361,393,425,9,9,9,9,9,,,,,,,3,0,3,0,0,35,35,48,,,,,,,,,,,,,,5,1.4102566000074148,5,0.3,0.10000000000000002,3.60429,return,1.4480898999609053,,,,,,,,,,,,,,,,,p306,28,female,up_down_width,2025-11-25_16h40.51.267,exp1,2023.1.0,59.961708440637544,
,,,,,,,,,,,,,,,,5,8.35,9.175,10,10.825,11.65,0.825,0.575,0.25,3.55,10,match,36.05,301,331,361,390,420,9,9,9,9,9,,,,,,,3,0,3,0,0,36,36,20,,,,,,,,,,,,,,4,1.5960153000196442,4,0.2,0.05000000000000002,1.80215,return,1.1946496000746265,,,,,,,,,,,,,,,,,p306,28,female,up_down_width,2025-11-25_16h40.51.267,exp1,2023.1.0,59.961708440637544,
,,,,,,,,,,,,,,,,5,8.2,9.1,10,10.9,11.8,0.9,0.35,0.55,4.15,10,initial,36.05,296,328,361,393,425,9,9,9,9,9,,,,,,,3,0,3,0,0,37,37,46,,,,,,,,,,,,,,5,1.5378818000899628,5,0.45,0.35000000000000003,12.61502,return,2.067797299940139,,,,,,,,,,,,,,,,,p306,28,female,up_down_width,2025-11-25_16h40.51.267,exp1,2023.1.0,59.961708440637544,
,,,,,,,,,,,,,,,,3,9.1,10,10.9,0,0,0.9,0.35,0.55,2.35,10,initial,36.05,328,361,393,0,0,9,9,9,0,0,,,,,,,3,0,3,0,0,38,38,11,,,,,,,,,,,,,,2,2.5826497999951243,2,0.4,0.5,18.02146,return,1.5675096999621019,,,,,,,,,,,,,,,,,p306,28,female,up_down_width,2025-11-25_16h40.51.267,exp1,2023.1.0,59.961708440637544,
,,,,,,,,,,,,,,,,5,8.65,9.325,10,10.675,11.35,0.675,0.275,0.4,3.1,10,match,36.05,312,336,361,385,409,9,9,9,9,9,,,,,,,3,0,3,0,0,39,39,33,,,,,,,,,,,,,,5,1.394770099897869,5,0.45,0.45,16.21932,return,2.297820199979469,,,,,,,,,,,,,,,,,p306,28,female,up_down_width,2025-11-25_16h40.51.267,exp1,2023.1.0,59.961708440637544,
,,,,,,,,,,,,,,,,3,7.800000000000001,10,12.2,0,0,2.1999999999999997,1.7999999999999998,0.4,4.8,10,match,36.05,281,361,440,0,0,9,9,9,0,0,,,,,,,3,0,3,0,0,40,40,39,,,,,,,,,,,,,,3,0.8744974000146613,3,0.4,0.5,18.02146,return,1.7675427000503987,,,,,,,,,,,,,,,,,p306,28,female,up_down_width,2025-11-25_16h40.51.267,exp1,2023.1.0,59.961708440637544,
,,,,,,,,,,,,,,,,4,8.9,9.633333333333333,10.366666666666667,11.1,0,0.7333333333333333,0.18333333333333326,0.55,2.75,10,match,36.05,321,347,374,400,0,9,9,9,9,0,,,,,,,3,0,3,0,0,41,41,1,,,,,,,,,,,,,,3,0.7238010000437498,3,0.25,0.5499999999999999,19.82361,return,2.484701499924995,,,,,,,,,,,,,,,,,p306,28,female,up_down_width,2025-11-25_16h40.51.267,exp1,2023.1.0,59.961708440637544,
,,,,,,,,,,,,,,,,3,9.3,10,10.7,0,0,0.7,0.1499999999999999,0.55,1.95,10,initial,36.05,335,361,386,0,0,9,9,9,0,0,,,,,,,3,0,3,0,0,42,42,6,,,,,,,,,,,,,,2,0.6754580000415444,2,0.35,0.49999999999999994,18.02146,return,1.2709666000446305,,,,,,,,,,,,,,,,,p306,28,female,up_down_width,2025-11-25_16h40.51.267,exp1,2023.1.0,59.961708440637544,
,,,,,,,,,,,,,,,,5,8.65,9.325,10,10.675,11.35,0.675,0.125,0.55,3.25,10,match,36.05,312,336,361,385,409,9,9,9,9,9,,,,,,,3,0,3,0,0,43,43,29,,,,,,,,,,,,,,3,0.7039353000000119,3,0.45,0.6000000000000001,21.62576,return,1.6511335000395775,,,,,,,,,,,,,,,,,p306,28,female,up_down_width,2025-11-25_16h40.51.267,exp1,2023.1.0,59.961708440637544,
,,,,,,,,,,,,,,,,4,8.95,9.65,10.35,11.05,0,0.7,0.44999999999999996,0.25,2.3499999999999996,10,initial,36.05,323,348,373,398,0,9,9,9,9,0,,,,,,,3,0,3,0,0,44,44,24,,,,,,,,,,,,,,3,1.8544651999836788,3,0.25,0.15000000000000002,5.40644,return,1.0918146000476554,,,,,,,,,,,,,,,,,p306,28,female,up_down_width,2025-11-25_16h40.51.267,exp1,2023.1.0,59.961708440637544,
,,,,,,,,,,,,,,,,3,9.1,10,10.9,0,0,0.9,0.5,0.4,2.2,10,initial,36.05,328,361,393,0,0,9,9,9,0,0,,,,,,,3,0,3,0,0,45,45,15,,,,,,,,,,,,,,4,1.6253401999128982,4,0.45,0.4,14.41717,return,1.317809799918905,,,,,,,,,,,,,,,,,p306,28,female,up_down_width,2025-11-25_16h40.51.267,exp1,2023.1.0,59.961708440637544,
,,,,,,,,,,,,,,,,3,8.6,10,11.4,0,0,1.4,1.15,0.25,3.05,10,match,36.05,310,361,411,0,0,9,9,9,0,0,,,,,,,3,0,3,0,0,46,46,43,,,,,,,,,,,,,,3,1.3719416999956593,3,0.2,0.15000000000000002,5.40644,return,1.6826984999934211,,,,,,,,,,,,,,,,,p306,28,female,up_down_width,2025-11-25_16h40.51.267,exp1,2023.1.0,59.961708440637544,
,,,,,,,,,,,,,,,,3,9.1,10,10.9,0,0,0.9,0.65,0.25,2.05,10,initial,36.05,328,361,393,0,0,9,9,9,0,0,,,,,,,3,0,3,0,0,47,47,13,,,,,,,,,,,,,,3,0.6158284000121057,3,0.5,0.10000000000000007,3.60429,return,2.5582294000778347,,,,,,,,,,,,,,,,,p306,28,female,up_down_width,2025-11-25_16h40.51.267,exp1,2023.1.0,59.961708440637544,
,,,,,,,,,,,,,,,,4,8.65,9.55,10.45,11.35,0,0.9,0.35,0.55,3.25,10,initial,36.05,312,344,377,409,0,9,9,9,9,0,,,,,,,3,0,3,0,0,48,48,28,,,,,,,,,,,,,,3,0.9159310000250116,3,0.45,0.55,19.82361,return,1.0396423999918625,,,,,,,,,,,,,,,,,p306,28,female,up_down_width,2025-11-25_16h40.51.267,exp1,2023.1.0,59.961708440637544,
,,,,,,,,,,,,,,,,4,8.95,9.65,10.35,11.05,0,0.7,0.1499999999999999,0.55,2.65,10,initial,36.05,323,348,373,398,0,9,9,9,9,0,,,,,,,3,0,3,0,0,49,49,23,,,,,,,,,,,,,,3,0.49229539989028126,3,0.45,0.55,19.82361,return,1.2398749000858516,,,,,,,,,,,,,,,,,p306,28,female,up_down_width,2025-11-25_16h40.51.267,exp1,2023.1.0,59.961708440637544,
,,,,,,,,,,,,,,,,4,8.95,9.65,10.35,11.05,0,0.7,0.29999999999999993,0.4,2.5,10,initial,36.05,323,348,373,398,0,9,9,9,9,0,,,,,,,3,0,3,0,0,50,50,26,,,,,,,,,,,,,,4,0.861544799990952,4,0.2,0.5499999999999999,19.82361,return,1.6577723999507725,,,,,,,,,,,,,,,,,p306,28,female,up_down_width,2025-11-25_16h40.51.267,exp1,2023.1.0,59.961708440637544,
,,,,,,,,,,,,,,,,4,8.35,9.45,10.55,11.65,0,1.1,0.55,0.55,3.8500000000000005,10,initial,36.05,301,341,380,420,0,9,9,9,9,0,,,,,,,3,0,3,0,0,51,51,17,,,,,,,,,,,,,,3,0.5847231999505311,3,0.4,0.45,16.21932,return,4.032490200013854,,,,,,,,,,,,,,,,,p306,28,female,up_down_width,2025-11-25_16h40.51.267,exp1,2023.1.0,59.961708440637544,
,,,,,,,,,,,,,,,,,,,,,,,,,,,,,,,,,,,,,,,,,,,,,3,0,3,0,,,,,,,,,,,,,,,,,,,,,,,,,,,,1783.3988885999424,1783.3988885999424,1783.3988885999424,,,,,,,,,,,,p306,28,female,up_down_width,2025-11-25_16h40.51.267,exp1,2023.1.0,59.961708440637544,
,,,,,,,,,,,,,,,,5,8.65,9.325,10,10.675,11.35,0.675,0.42500000000000004,0.25,2.95,10,match,36.05,312,336,361,385,409,9,9,9,9,9,,,,,,,4,0,4,0,0,0,0,31,,,,,,,,,,,,,,4,1.2821173999691382,4,0.55,0.20000000000000007,7.20859,return,3.0387828999664634,,,,,,,,,,,,,,,,,p306,28,female,up_down_width,2025-11-25_16h40.51.267,exp1,2023.1.0,59.961708440637544,
,,,,,,,,,,,,,,,,4,9.3,9.766666666666667,10.233333333333333,10.7,0,0.4666666666666667,0.21666666666666665,0.25,1.65,10,match,36.05,335,352,369,386,0,9,9,9,9,0,,,,,,,4,0,4,0,0,1,1,8,,,,,,,,,,,,,,3,1.1010261999908835,3,0.5,0.15000000000000008,5.40644,return,1.5351882999530062,,,,,,,,,,,,,,,,,p306,28,female,up_down_width,2025-11-25_16h40.51.267,exp1,2023.1.0,59.961708440637544,
,,,,,,,,,,,,,,,,4,8.35,9.45,10.55,11.65,0,1.1,0.7000000000000001,0.4,3.7,10,initial,36.05,301,341,380,420,0,9,9,9,9,0,,,,,,,4,0,4,0,0,2,2,21,,,,,,,,,,,,,,4,1.0559420000063255,4,0.3,0.35,12.61502,return,2.0036725000245497,,,,,,,,,,,,,,,,,p306,28,female,up_down_width,2025-11-25_16h40.51.267,exp1,2023.1.0,59.961708440637544,
,,,,,,,,,,,,,,,,3,9.3,10,10.7,0,0,0.7,0.44999999999999996,0.25,1.65,10,initial,36.05,335,361,386,0,0,9,9,9,0,0,,,,,,,4,0,4,0,0,3,3,7,,,,,,,,,,,,,,3,0.8283609999343753,3,0.25,0.15000000000000002,5.40644,return,1.0824950999813154,,,,,,,,,,,,,,,,,p306,28,female,up_down_width,2025-11-25_16h40.51.267,exp1,2023.1.0,59.961708440637544,
,,,,,,,,,,,,,,,,5,8.65,9.325,10,10.675,11.35,0.675,0.275,0.4,3.1,10,match,36.05,312,336,361,385,409,9,9,9,9,9,,,,,,,4,0,4,0,0,4,4,33,,,,,,,,,,,,,,4,1.3117850000271574,4,0.3,0.35,12.61502,return,1.3874158000107855,,,,,,,,,,,,,,,,,p306,28,female,up_down_width,2025-11-25_16h40.51.267,exp1,2023.1.0,59.961708440637544,
,,,,,,,,,,,,,,,,5,8.275,9.1375,10,10.8625,11.725,0.8625,0.6125,0.25,3.7,10,match,36.05,298,329,361,392,423,9,9,9,9,9,,,,,,,4,0,4,0,0,5,5,22,,,,,,,,,,,,,,5,1.0132578000193462,5,0.2,0.15000000000000002,5.40644,return,1.5322361000580713,,,,,,,,,,,,,,,,,p306,28,female,up_down_width,2025-11-25_16h40.51.267,exp1,2023.1.0,59.961708440637544,
,,,,,,,,,,,,,,,,3,8.2,10,11.8,0,0,1.7999999999999998,1.4,0.4,4,10,match,36.05,296,361,425,0,0,9,9,9,0,0,,,,,,,4,0,4,0,0,6,6,51,,,,,,,,,,,,,,3,0.7368861000286415,3,0.5,0.30000000000000004,10.81288,return,1.3938497999915853,,,,,,,,,,,,,,,,,p306,28,female,up_down_width,2025-11-25_16h40.51.267,exp1,2023.1.0,59.961708440637544,
,,,,,,,,,,,,,,,,5,8.65,9.325,10,10.675,11.35,0.675,0.125,0.55,3.25,10,match,36.05,312,336,361,385,409,9,9,9,9,9,,,,,,,4,0,4,0,0,7,7,29,,,,,,,,,,,,,,4,1.1157080999109894,4,0.45,0.5,18.02146,return,1.1508221999974921,,,,,,,,,,,,,,,,,p306,28,female,up_down_width,2025-11-25_16h40.51.267,exp1,2023.1.0,59.961708440637544,
,,,,,,,,,,,,,,,,4,9.3,9.766666666666667,10.233333333333333,10.7,0,0.4666666666666667,0.06666666666666665,0.4,1.8,10,match,36.05,335,352,369,386,0,9,9,9,9,0,,,,,,,4,0,4,0,0,8,8,10,,,,,,,,,,,,,,3,1.2558987999800593,3,0.45,0.5,18.02146,return,0.9640977999661118,,,,,,,,,,,,,,,,,p306,28,female,up_down_width,2025-11-25_16h40.51.267,exp1,2023.1.0,59.961708440637544,
,,,,,,,,,,,,,,,,3,8.9,10,11.1,0,0,1.1,0.8500000000000001,0.25,2.45,10,initial,36.05,321,361,400,0,0,9,9,9,0,0,,,,,,,4,0,4,0,0,9,9,2,,,,,,,,,,,,,,3,0.8487083999207243,3,0.4,0.15000000000000008,5.40644,return,2.1112767999293283,,,,,,,,,,,,,,,,,p306,28,female,up_down_width,2025-11-25_16h40.51.267,exp1,2023.1.0,59.961708440637544,
,,,,,,,,,,,,,,,,4,8.65,9.55,10.45,11.35,0,0.9,0.5,0.4,3.1,10,initial,36.05,312,344,377,409,0,9,9,9,9,0,,,,,,,4,0,4,0,0,10,10,32,,,,,,,,,,,,,,4,0.8330979999154806,4,0.25,0.3,10.81288,return,1.1995316999964416,,,,,,,,,,,,,,,,,p306,28,female,up_down_width,2025-11-25_16h40.51.267,exp1,2023.1.0,59.961708440637544,
,,,,,,,,,,,,,,,,3,9.1,10,10.9,0,0,0.9,0.5,0.4,2.2,10,initial,36.05,328,361,393,0,0,9,9,9,0,0,,,,,,,4,0,4,0,0,11,11,15,,,,,,,,,,,,,,3,1.3853654999984428,3,0.5,0.30000000000000004,10.81288,return,1.6485355999320745,,,,,,,,,,,,,,,,,p306,28,female,up_down_width,2025-11-25_16h40.51.267,exp1,2023.1.0,59.961708440637544,
,,,,,,,,,,,,,,,,3,8.2,10,11.8,0,0,1.8,1.55,0.25,3.85,10,match,36.05,296,361,425,0,0,9,9,9,0,0,,,,,,,4,0,4,0,0,12,12,49,,,,,,,,,,,,,,3,0.9110735999420285,3,0.4,0.15000000000000008,5.40644,return,1.5144831999205053,,,,,,,,,,,,,,,,,p306,28,female,up_down_width,2025-11-25_16h40.51.267,exp1,2023.1.0,59.961708440637544,
,,,,,,,,,,,,,,,,4,9.1,9.7,10.3,10.9,0,0.5999999999999999,0.3499999999999999,0.25,2.05,10,match,36.05,328,350,371,393,0,9,9,9,9,0,,,,,,,4,0,4,0,0,13,13,14,,,,,,,,,,,,,,4,0.8311771000735462,4,0.3,0.15000000000000002,5.40644,return,0.924563999986276,,,,,,,,,,,,,,,,,p306,28,female,up_down_width,2025-11-25_16h40.51.267,exp1,2023.1.0,59.961708440637544,
,,,,,,,,,,,,,,,,5,8.2,9.1,10,10.9,11.8,0.9,0.65,0.25,3.85,10,initial,36.05,296,328,361,393,425,9,9,9,9,9,,,,,,,4,0,4,0,0,14,14,48,,,,,,,,,,,,,,5,1.2647843000013381,5,0.3,0.10000000000000002,3.60429,return,1.5966754000401124,,,,,,,,,,,,,,,,,p306,28,female,up_down_width,2025-11-25_16h40.51.267,exp1,2023.1.0,59.961708440637544,
,,,,,,,,,,,,,,,,3,8.9,10,11.1,0,0,1.1,0.55,0.55,2.75,10,initial,36.05,321,361,400,0,0,9,9,9,0,0,,,,,,,4,0,4,0,0,15,15,0,,,,,,,,,,,,,,3,0.7848443000111729,3,0.3,0.35,12.61502,return,1.0729730000020936,,,,,,,,,,,,,,,,,p306,28,female,up_down_width,2025-11-25_16h40.51.267,exp1,2023.1.0,59.961708440637544,
,,,,,,,,,,,,,,,,5,8.2,9.1,10,10.9,11.8,0.9,0.35,0.55,4.15,10,initial,36.05,296,328,361,393,425,9,9,9,9,9,,,,,,,4,0,4,0,0,16,16,46,,,,,,,,,,,,,,4,0.9042099000653252,4,0.4,0.5,18.02146,return,1.0910466000204906,,,,,,,,,,,,,,,,,p306,28,female,up_down_width,2025-11-25_16h40.51.267,exp1,2023.1.0,59.961708440637544,
,,,,,,,,,,,,,,,,5,7.8,8.9,10,11.1,12.2,1.1,0.7000000000000001,0.4,4.800000000000001,10,initial,36.05,281,321,361,400,440,9,9,9,9,9,,,,,,,4,0,4,0,0,17,17,38,,,,,,,,,,,,,,4,0.8081530999625102,4,0.5,0.45,16.21932,return,3.1426793999271467,,,,,,,,,,,,,,,,,p306,28,female,up_down_width,2025-11-25_16h40.51.267,exp1,2023.1.0,59.961708440637544,
,,,,,,,,,,,,,,,,3,8.9,10,11.1,0,0,1.1,0.7000000000000001,0.4,2.6000000000000005,10,initial,36.05,321,361,400,0,0,9,9,9,0,0,,,,,,,4,0,4,0,0,18,18,4,,,,,,,,,,,,,,3,0.6785415000049397,3,0.35,0.49999999999999994,18.02146,return,1.1937805999768898,,,,,,,,,,,,,,,,,p306,28,female,up_down_width,2025-11-25_16h40.51.267,exp1,2023.1.0,59.961708440637544,
,,,,,,,,,,,,,,,,5,8.35,9.175,10,10.825,11.65,0.8250000000000001,0.275,0.55,3.85,10,match,36.05,301,331,361,390,420,9,9,9,9,9,,,,,,,4,0,4,0,0,19,19,18,,,,,,,,,,,,,,4,1.4344687999691814,4,0.55,0.6000000000000001,21.62576,return,0.8009015000425279,,,,,,,,,,,,,,,,,p306,28,female,up_down_width,2025-11-25_16h40.51.267,exp1,2023.1.0,59.961708440637544,
,,,,,,,,,,,,,,,,4,8.35,9.45,10.55,11.65,0,1.1,0.8500000000000001,0.25,3.5500000000000003,10,initial,36.05,301,341,380,420,0,9,9,9,9,0,,,,,,,4,0,4,0,0,20,20,19,,,,,,,,,,,,,,4,0.8726161000085995,4,0.25,0.15000000000000002,5.40644,return,2.355293900007382,,,,,,,,,,,,,,,,,p306,28,female,up_down_width,2025-11-25_16h40.51.267,exp1,2023.1.0,59.961708440637544,
,,,,,,,,,,,,,,,,4,8.9,9.633333333333333,10.366666666666667,11.1,0,0.7333333333333334,0.4833333333333334,0.25,2.45,10,match,36.05,321,347,374,400,0,9,9,9,9,0,,,,,,,4,0,4,0,0,21,21,3,,,,,,,,,,,,,,4,0.7970169000327587,4,0.3,0.2,7.20859,return,1.3243124999571592,,,,,,,,,,,,,,,,,p306,28,female,up_down_width,2025-11-25_16h40.51.267,exp1,2023.1.0,59.961708440637544,
,,,,,,,,,,,,,,,,4,8.9,9.633333333333333,10.366666666666667,11.1,0,0.7333333333333333,0.18333333333333326,0.55,2.75,10,match,36.05,321,347,374,400,0,9,9,9,9,0,,,,,,,4,0,4,0,0,22,22,1,,,,,,,,,,,,,,3,0.7447540999855846,3,0.2,0.44999999999999996,16.21932,return,1.2900652000680566,,,,,,,,,,,,,,,,,p306,28,female,up_down_width,2025-11-25_16h40.51.267,exp1,2023.1.0,59.961708440637544,
,,,,,,,,,,,,,,,,5,7.8,8.9,10,11.1,12.2,1.1,0.8500000000000001,0.25,4.65,10,initial,36.05,281,321,361,400,440,9,9,9,9,9,,,,,,,4,0,4,0,0,23,23,36,,,,,,,,,,,,,,5,0.9425449999980628,5,0.45,0.15000000000000008,5.40644,return,2.184627900016494,,,,,,,,,,,,,,,,,p306,28,female,up_down_width,2025-11-25_16h40.51.267,exp1,2023.1.0,59.961708440637544,
,,,,,,,,,,,,,,,,5,8.95,9.475,10,10.525,11.05,0.525,0.125,0.4,2.5,10,match,36.05,323,342,361,379,398,9,9,9,9,9,,,,,,,4,0,4,0,0,24,24,27,,,,,,,,,,,,,,4,1.2489178999094293,4,0.45,0.4,14.41717,return,1.8709601999726146,,,,,,,,,,,,,,,,,p306,28,female,up_down_width,2025-11-25_16h40.51.267,exp1,2023.1.0,59.961708440637544,
,,,,,,,,,,,,,,,,5,8.6,9.3,10,10.7,11.4,0.7,0.44999999999999996,0.25,3.05,10,initial,36.05,310,335,361,386,411,9,9,9,9,9,,,,,,,4,0,4,0,0,25,25,42,,,,,,,,,,,,,,4,1.1410616000648588,4,0.3,0.15000000000000002,5.40644,return,1.1738945000106469,,,,,,,,,,,,,,,,,p306,28,female,up_down_width,2025-11-25_16h40.51.267,exp1,2023.1.0,59.961708440637544,
,,,,,,,,,,,,,,,,4,8.825,9.608333333333333,10.391666666666667,11.175,0,0.7833333333333333,0.5333333333333333,0.25,2.6,10,match,36.05,318,346,375,403,0,9,9,9,9,0,,,,,,,4,0,4,0,0,26,26,5,,,,,,,,,,,,,,3,1.0081802000058815,3,0.35,0.15000000000000002,5.40644,return,1.718322500004433,,,,,,,,,,,,,,,,,p306,28,female,up_down_width,2025-11-25_16h40.51.267,exp1,2023.1.0,59.961708440637544,
,,,,,,,,,,,,,,,,3,7.8,10,12.2,0,0,2.2,1.9500000000000002,0.25,4.65,10,match,36.05,281,361,440,0,0,9,9,9,0,0,,,,,,,4,0,4,0,0,27,27,37,,,,,,,,,,,,,,3,1.2271085999673232,3,0.5,0.15000000000000008,5.40644,return,1.8008665000088513,,,,,,,,,,,,,,,,,p306,28,female,up_down_width,2025-11-25_16h40.51.267,exp1,2023.1.0,59.961708440637544,
,,,,,,,,,,,,,,,,5,7.8,8.9,10,11.1,12.2,1.1,0.55,0.55,4.95,10,initial,36.05,281,321,361,400,440,9,9,9,9,9,,,,,,,4,0,4,0,0,28,28,34,,,,,,,,,,,,,,4,1.613163199974224,4,0.35,0.35,12.61502,return,1.676983500015922,,,,,,,,,,,,,,,,,p306,28,female,up_down_width,2025-11-25_16h40.51.267,exp1,2023.1.0,59.961708440637544,
,,,,,,,,,,,,,,,,5,8.6,9.3,10,10.7,11.4,0.7,0.29999999999999993,0.4,3.1999999999999997,10,initial,36.05,310,335,361,386,411,9,9,9,9,9,,,,,,,4,0,4,0,0,29,29,44,,,,,,,,,,,,,,5,1.0630322999786586,5,0.3,0.3,10.81288,return,1.6266703000292182,,,,,,,,,,,,,,,,,p306,28,female,up_down_width,2025-11-25_16h40.51.267,exp1,2023.1.0,59.961708440637544,
,,,,,,,,,,,,,,,,3,8.6,10,11.4,0,0,1.4,0.85,0.55,3.35,10,match,36.05,310,361,411,0,0,9,9,9,0,0,,,,,,,4,0,4,0,0,30,30,41,,,,,,,,,,,,,,3,0.8065153000643477,3,0.25,0.39999999999999997,14.41717,return,2.0374422000022605,,,,,,,,,,,,,,,,,p306,28,female,up_down_width,2025-11-25_16h40.51.267,exp1,2023.1.0,59.961708440637544,
,,,,,,,,,,,,,,,,3,7.800000000000001,10,12.2,0,0,2.1999999999999997,1.7999999999999998,0.4,4.8,10,match,36.05,281,361,440,0,0,9,9,9,0,0,,,,,,,4,0,4,0,0,31,31,39,,,,,,,,,,,,,,3,0.7637941000284627,3,0.4,0.5,18.02146,return,1.6443319999380037,,,,,,,,,,,,,,,,,p306,28,female,up_down_width,2025-11-25_16h40.51.267,exp1,2023.1.0,59.961708440637544,
,,,,,,,,,,,,,,,,4,8.35,9.45,10.55,11.65,0,1.1,0.55,0.55,3.8500000000000005,10,initial,36.05,301,341,380,420,0,9,9,9,9,0,,,,,,,4,0,4,0,0,32,32,17,,,,,,,,,,,,,,4,0.987851099926047,4,0.4,0.45,16.21932,return,1.0113353000488132,,,,,,,,,,,,,,,,,p306,28,female,up_down_width,2025-11-25_16h40.51.267,exp1,2023.1.0,59.961708440637544,
,,,,,,,,,,,,,,,,5,8.95,9.475,10,10.525,11.05,0.525,0.275,0.25,2.35,10,match,36.05,323,342,361,379,398,9,9,9,9,9,,,,,,,4,0,4,0,0,33,33,25,,,,,,,,,,,,,,5,0.979801999987103,5,0.5,0.25000000000000006,9.01073,return,1.9320625000400469,,,,,,,,,,,,,,,,,p306,28,female,up_down_width,2025-11-25_16h40.51.267,exp1,2023.1.0,59.961708440637544,
,,,,,,,,,,,,,,,,5,8.2,9.1,10,10.9,11.8,0.9,0.5,0.4,4,10,initial,36.05,296,328,361,393,425,9,9,9,9,9,,,,,,,4,0,4,0,0,34,34,50,,,,,,,,,,,,,,4,1.2266321000643075,4,0.25,0.35,12.61502,return,1.0661592999240384,,,,,,,,,,,,,,,,,p306,28,female,up_down_width,2025-11-25_16h40.51.267,exp1,2023.1.0,59.961708440637544,
,,,,,,,,,,,,,,,,3,8.2,10,11.8,0,0,1.8,1.25,0.55,4.15,10,match,36.05,296,361,425,0,0,9,9,9,0,0,,,,,,,4,0,4,0,0,35,35,47,,,,,,,,,,,,,,3,0.6575718999374658,3,0.55,0.35000000000000003,12.61502,return,1.6221415000036359,,,,,,,,,,,,,,,,,p306,28,female,up_down_width,2025-11-25_16h40.51.267,exp1,2023.1.0,59.961708440637544,
,,,,,,,,,,,,,,,,3,8.525,10,11.475,0,0,1.475,1.225,0.25,3.2,10,match,36.05,307,361,414,0,0,9,9,9,0,0,,,,,,,4,0,4,0,0,36,36,45,,,,,,,,,,,,,,3,0.6319924999261275,3,0.3,0.15000000000000002,5.40644,return,1.3418356999754906,,,,,,,,,,,,,,,,,p306,28,female,up_down_width,2025-11-25_16h40.51.267,exp1,2023.1.0,59.961708440637544,
,,,,,,,,,,,,,,,,4,8.95,9.65,10.35,11.05,0,0.7,0.44999999999999996,0.25,2.3499999999999996,10,initial,36.05,323,348,373,398,0,9,9,9,9,0,,,,,,,4,0,4,0,0,37,37,24,,,,,,,,,,,,,,3,0.7159904000582173,3,0.2,0.10000000000000002,3.60429,return,0.8299908000044525,,,,,,,,,,,,,,,,,p306,28,female,up_down_width,2025-11-25_16h40.51.267,exp1,2023.1.0,59.961708440637544,
,,,,,,,,,,,,,,,,4,8.95,9.65,10.35,11.05,0,0.7,0.1499999999999999,0.55,2.65,10,initial,36.05,323,348,373,398,0,9,9,9,9,0,,,,,,,4,0,4,0,0,38,38,23,,,,,,,,,,,,,,3,1.3002574999118224,3,0.35,0.25,9.01073,return,1.135946900001727,,,,,,,,,,,,,,,,,p306,28,female,up_down_width,2025-11-25_16h40.51.267,exp1,2023.1.0,59.961708440637544,
,,,,,,,,,,,,,,,,4,8.65,9.55,10.45,11.35,0,0.9,0.35,0.55,3.25,10,initial,36.05,312,344,377,409,0,9,9,9,9,0,,,,,,,4,0,4,0,0,39,39,28,,,,,,,,,,,,,,4,0.8953477999893948,4,0.2,0.39999999999999997,14.41717,return,1.211236400064081,,,,,,,,,,,,,,,,,p306,28,female,up_down_width,2025-11-25_16h40.51.267,exp1,2023.1.0,59.961708440637544,
,,,,,,,,,,,,,,,,3,8.6,10,11.4,0,0,1.4,1.15,0.25,3.05,10,match,36.05,310,361,411,0,0,9,9,9,0,0,,,,,,,4,0,4,0,0,40,40,43,,,,,,,,,,,,,,3,0.6266719000414014,3,0.4,0.10000000000000007,3.60429,return,1.5132496999576688,,,,,,,,,,,,,,,,,p306,28,female,up_down_width,2025-11-25_16h40.51.267,exp1,2023.1.0,59.961708440637544,
,,,,,,,,,,,,,,,,5,8.35,9.175,10,10.825,11.65,0.825,0.575,0.25,3.55,10,match,36.05,301,331,361,390,420,9,9,9,9,9,,,,,,,4,0,4,0,0,41,41,20,,,,,,,,,,,,,,5,1.642139200004749,5,0.25,0.10000000000000002,3.60429,return,1.0790420001139864,,,,,,,,,,,,,,,,,p306,28,female,up_down_width,2025-11-25_16h40.51.267,exp1,2023.1.0,59.961708440637544,
,,,,,,,,,,,,,,,,3,7.8,10,12.2,0,0,2.2,1.65,0.55,4.95,10,match,36.05,281,361,440,0,0,9,9,9,0,0,,,,,,,4,0,4,0,0,42,42,35,,,,,,,,,,,,,,3,0.7286353000672534,3,0.3,0.49999999999999994,18.02146,return,1.6279795999871567,,,,,,,,,,,,,,,,,p306,28,female,up_down_width,2025-11-25_16h40.51.267,exp1,2023.1.0,59.961708440637544,
,,,,,,,,,,,,,,,,4,9.1,9.7,10.3,10.9,0,0.6000000000000001,0.20000000000000004,0.4,2.2,10,match,36.05,328,350,371,393,0,9,9,9,9,0,,,,,,,4,0,4,0,0,43,43,16,,,,,,,,,,,,,,3,0.9316862999694422,3,0.4,0.45,16.21932,return,1.020744499983266,,,,,,,,,,,,,,,,,p306,28,female,up_down_width,2025-11-25_16h40.51.267,exp1,2023.1.0,59.961708440637544,
,,,,,,,,,,,,,,,,3,9.1,10,10.9,0,0,0.9,0.65,0.25,2.05,10,initial,36.05,328,361,393,0,0,9,9,9,0,0,,,,,,,4,0,4,0,0,44,44,13,,,,,,,,,,,,,,3,0.599253399996087,3,0.2,0.3,10.81288,return,1.3904681999702007,,,,,,,,,,,,,,,,,p306,28,female,up_down_width,2025-11-25_16h40.51.267,exp1,2023.1.0,59.961708440637544,
,,,,,,,,,,,,,,,,4,9.1,9.7,10.3,10.9,0,0.6,0.04999999999999997,0.55,2.35,10,match,36.05,328,350,371,393,0,9,9,9,9,0,,,,,,,4,0,4,0,0,45,45,12,,,,,,,,,,,,,,2,1.4825788999442011,2,0.2,0.7500000000000001,27.0322,return,5.853209299966693,,,,,,,,,,,,,,,,,p306,28,female,up_down_width,2025-11-25_16h40.51.267,exp1,2023.1.0,59.961708440637544,
,,,,,,,,,,,,,,,,4,8.65,9.55,10.45,11.35,0,0.9,0.65,0.25,2.95,10,initial,36.05,312,344,377,409,0,9,9,9,9,0,,,,,,,4,0,4,0,0,46,46,30,,,,,,,,,,,,,,4,1.3664547000080347,4,0.35,0.15000000000000002,5.40644,return,2.734722900087945,,,,,,,,,,,,,,,,,p306,28,female,up_down_width,2025-11-25_16h40.51.267,exp1,2023.1.0,59.961708440637544,
,,,,,,,,,,,,,,,,4,8.95,9.65,10.35,11.05,0,0.7,0.29999999999999993,0.4,2.5,10,initial,36.05,323,348,373,398,0,9,9,9,9,0,,,,,,,4,0,4,0,0,47,47,26,,,,,,,,,,,,,,3,2.811975199962035,3,0.35,0.3,10.81288,return,2.346585000050254,,,,,,,,,,,,,,,,,p306,28,female,up_down_width,2025-11-25_16h40.51.267,exp1,2023.1.0,59.961708440637544,
,,,,,,,,,,,,,,,,3,9.3,10,10.7,0,0,0.7,0.1499999999999999,0.55,1.95,10,initial,36.05,335,361,386,0,0,9,9,9,0,0,,,,,,,4,0,4,0,0,48,48,6,,,,,,,,,,,,,,2,0.7298052000114694,2,0.3,0.44999999999999996,16.21932,return,1.8994190000230446,,,,,,,,,,,,,,,,,p306,28,female,up_down_width,2025-11-25_16h40.51.267,exp1,2023.1.0,59.961708440637544,
,,,,,,,,,,,,,,,,3,9.1,10,10.9,0,0,0.9,0.35,0.55,2.35,10,initial,36.05,328,361,393,0,0,9,9,9,0,0,,,,,,,4,0,4,0,0,49,49,11,,,,,,,,,,,,,,2,0.5772780999541283,2,0.45,0.6000000000000001,21.62576,return,0.9044683999381959,,,,,,,,,,,,,,,,,p306,28,female,up_down_width,2025-11-25_16h40.51.267,exp1,2023.1.0,59.961708440637544,
,,,,,,,,,,,,,,,,5,8.6,9.3,10,10.7,11.4,0.7,0.1499999999999999,0.55,3.3499999999999996,10,initial,36.05,310,335,361,386,411,9,9,9,9,9,,,,,,,4,0,4,0,0,50,50,40,,,,,,,,,,,,,,4,3.1273168999468908,4,0.55,0.5,18.02146,return,2.360570100019686,,,,,,,,,,,,,,,,,p306,28,female,up_down_width,2025-11-25_16h40.51.267,exp1,2023.1.0,59.961708440637544,
,,,,,,,,,,,,,,,,3,9.3,10,10.7,0,0,0.7,0.29999999999999993,0.4,1.8,10,initial,36.05,335,361,386,0,0,9,9,9,0,0,,,,,,,4,0,4,0,0,51,51,9,,,,,,,,,,,,,,2,1.1639811999630183,2,0.35,0.6,21.62576,return,1.6132889000000432,,,,,,,,,,,,,,,,,p306,28,female,up_down_width,2025-11-25_16h40.51.267,exp1,2023.1.0,59.961708440637544,
,,,,,,,,,,,,,,,,,,,,,,,,,,,,,,,,,,,,,,,,,,,,,4,0,4,0,,,,,,,,,,,,,,,,,,,,,,,,,,,,2018.6655191999162,2018.6655191999162,2018.6655191999162,,,,,,,,,,,,p306,28,female,up_down_width,2025-11-25_16h40.51.267,exp1,2023.1.0,59.961708440637544,
,,,,,,,,,,,,,,,,3,9.3,10,10.7,0,0,0.7,0.1499999999999999,0.55,1.95,10,initial,36.05,335,361,386,0,0,9,9,9,0,0,,,,,,,5,0,5,0,0,0,0,6,,,,,,,,,,,,,,2,2.678097900003195,2,0.5,0.7000000000000002,25.23005,return,3.06543870002497,,,,,,,,,,,,,,,,,p306,28,female,up_down_width,2025-11-25_16h40.51.267,exp1,2023.1.0,59.961708440637544,
,,,,,,,,,,,,,,,,3,8.525,10,11.475,0,0,1.475,1.225,0.25,3.2,10,match,36.05,307,361,414,0,0,9,9,9,0,0,,,,,,,5,0,5,0,0,1,1,45,,,,,,,,,,,,,,3,0.7419780000345781,3,0.45,0.20000000000000007,7.20859,return,1.44778549997136,,,,,,,,,,,,,,,,,p306,28,female,up_down_width,2025-11-25_16h40.51.267,exp1,2023.1.0,59.961708440637544,
,,,,,,,,,,,,,,,,3,8.2,10,11.8,0,0,1.7999999999999998,1.4,0.4,4,10,match,36.05,296,361,425,0,0,9,9,9,0,0,,,,,,,5,0,5,0,0,2,2,51,,,,,,,,,,,,,,3,1.5893395999446511,3,0.4,0.30000000000000004,10.81288,return,1.4438871000893414,,,,,,,,,,,,,,,,,p306,28,female,up_down_width,2025-11-25_16h40.51.267,exp1,2023.1.0,59.961708440637544,
,,,,,,,,,,,,,,,,5,8.95,9.475,10,10.525,11.05,0.525,0.125,0.4,2.5,10,match,36.05,323,342,361,379,398,9,9,9,9,9,,,,,,,5,0,5,0,0,3,3,27,,,,,,,,,,,,,,4,1.7419932999182492,4,0.4,0.35000000000000003,12.61502,return,2.5030002000276,,,,,,,,,,,,,,,,,p306,28,female,up_down_width,2025-11-25_16h40.51.267,exp1,2023.1.0,59.961708440637544,
,,,,,,,,,,,,,,,,3,9.3,10,10.7,0,0,0.7,0.29999999999999993,0.4,1.8,10,initial,36.05,335,361,386,0,0,9,9,9,0,0,,,,,,,5,0,5,0,0,4,4,9,,,,,,,,,,,,,,3,0.8918621999910101,3,0.55,0.35000000000000003,12.61502,return,1.4779059999855235,,,,,,,,,,,,,,,,,p306,28,female,up_down_width,2025-11-25_16h40.51.267,exp1,2023.1.0,59.961708440637544,
,,,,,,,,,,,,,,,,4,8.95,9.65,10.35,11.05,0,0.7,0.44999999999999996,0.25,2.3499999999999996,10,initial,36.05,323,348,373,398,0,9,9,9,9,0,,,,,,,5,0,5,0,0,5,5,24,,,,,,,,,,,,,,4,1.6828550000209361,4,0.2,0.2,7.20859,return,1.118593499995768,,,,,,,,,,,,,,,,,p306,28,female,up_down_width,2025-11-25_16h40.51.267,exp1,2023.1.0,59.961708440637544,
,,,,,,,,,,,,,,,,3,8.2,10,11.8,0,0,1.8,1.25,0.55,4.15,10,match,36.05,296,361,425,0,0,9,9,9,0,0,,,,,,,5,0,5,0,0,6,6,47,,,,,,,,,,,,,,4,1.6182287000119686,4,0.25,0.39999999999999997,14.41717,return,1.2810365000041202,,,,,,,,,,,,,,,,,p306,28,female,up_down_width,2025-11-25_16h40.51.267,exp1,2023.1.0,59.961708440637544,
,,,,,,,,,,,,,,,,5,8.35,9.175,10,10.825,11.65,0.8250000000000001,0.275,0.55,3.85,10,match,36.05,301,331,361,390,420,9,9,9,9,9,,,,,,,5,0,5,0,0,7,7,18,,,,,,,,,,,,,,4,0.709325100062415,4,0.55,0.45,16.21932,return,1.4644543000031263,,,,,,,,,,,,,,,,,p306,28,female,up_down_width,2025-11-25_16h40.51.267,exp1,2023.1.0,59.961708440637544,
,,,,,,,,,,,,,,,,5,8.6,9.3,10,10.7,11.4,0.7,0.29999999999999993,0.4,3.1999999999999997,10,initial,36.05,310,335,361,386,411,9,9,9,9,9,,,,,,,5,0,5,0,0,8,8,44,,,,,,,,,,,,,,4,0.9605913000414148,4,0.2,0.44999999999999996,16.21932,return,2.488757099956274,,,,,,,,,,,,,,,,,p306,28,female,up_down_width,2025-11-25_16h40.51.267,exp1,2023.1.0,59.961708440637544,
,,,,,,,,,,,,,,,,5,7.8,8.9,10,11.1,12.2,1.1,0.7000000000000001,0.4,4.800000000000001,10,initial,36.05,281,321,361,400,440,9,9,9,9,9,,,,,,,5,0,5,0,0,9,9,38,,,,,,,,,,,,,,4,0.9459149999311194,4,0.5,0.45,16.21932,return,1.4350749999284744,,,,,,,,,,,,,,,,,p306,28,female,up_down_width,2025-11-25_16h40.51.267,exp1,2023.1.0,59.961708440637544,
,,,,,,,,,,,,,,,,4,9.3,9.766666666666667,10.233333333333333,10.7,0,0.4666666666666667,0.21666666666666665,0.25,1.65,10,match,36.05,335,352,369,386,0,9,9,9,9,0,,,,,,,5,0,5,0,0,10,10,8,,,,,,,,,,,,,,3,1.8770552000496536,3,0.45,0.20000000000000007,7.20859,return,1.6888794999103993,,,,,,,,,,,,,,,,,p306,28,female,up_down_width,2025-11-25_16h40.51.267,exp1,2023.1.0,59.961708440637544,
,,,,,,,,,,,,,,,,5,8.6,9.3,10,10.7,11.4,0.7,0.1499999999999999,0.55,3.3499999999999996,10,initial,36.05,310,335,361,386,411,9,9,9,9,9,,,,,,,5,0,5,0,0,11,11,40,,,,,,,,,,,,,,3,1.4949473000597209,3,0.5,0.4,14.41717,return,1.0008442000253126,,,,,,,,,,,,,,,,,p306,28,female,up_down_width,2025-11-25_16h40.51.267,exp1,2023.1.0,59.961708440637544,
,,,,,,,,,,,,,,,,4,8.9,9.633333333333333,10.366666666666667,11.1,0,0.7333333333333334,0.4833333333333334,0.25,2.45,10,match,36.05,321,347,374,400,0,9,9,9,9,0,,,,,,,5,0,5,0,0,12,12,3,,,,,,,,,,,,,,4,1.0991963999113068,4,0.55,0.15000000000000008,5.40644,return,2.382246399996802,,,,,,,,,,,,,,,,,p306,28,female,up_down_width,2025-11-25_16h40.51.267,exp1,2023.1.0,59.961708440637544,
,,,,,,,,,,,,,,,,3,9.1,10,10.9,0,0,0.9,0.5,0.4,2.2,10,initial,36.05,328,361,393,0,0,9,9,9,0,0,,,,,,,5,0,5,0,0,13,13,15,,,,,,,,,,,,,,3,2.5763649999862537,3,0.35,0.49999999999999994,18.02146,return,1.5445961001096293,,,,,,,,,,,,,,,,,p306,28,female,up_down_width,2025-11-25_16h40.51.267,exp1,2023.1.0,59.961708440637544,
,,,,,,,,,,,,,,,,3,9.1,10,10.9,0,0,0.9,0.65,0.25,2.05,10,initial,36.05,328,361,393,0,0,9,9,9,0,0,,,,,,,5,0,5,0,0,14,14,13,,,,,,,,,,,,,,3,1.059581600013189,3,0.5,0.15000000000000008,5.40644,return,2.3913084999658167,,,,,,,,,,,,,,,,,p306,28,female,up_down_width,2025-11-25_16h40.51.267,exp1,2023.1.0,59.961708440637544,
,,,,,,,,,,,,,,,,4,9.1,9.7,10.3,10.9,0,0.5999999999999999,0.3499999999999999,0.25,2.05,10,match,36.05,328,350,371,393,0,9,9,9,9,0,,,,,,,5,0,5,0,0,15,15,14,,,,,,,,,,,,,,4,1.178656299947761,4,0.3,0.15000000000000002,5.40644,return,1.835298200021498,,,,,,,,,,,,,,,,,p306,28,female,up_down_width,2025-11-25_16h40.51.267,exp1,2023.1.0,59.961708440637544,
,,,,,,,,,,,,,,,,3,8.9,10,11.1,0,0,1.1,0.55,0.55,2.75,10,initial,36.05,321,361,400,0,0,9,9,9,0,0,,,,,,,5,0,5,0,0,16,16,0,,,,,,,,,,,,,,4,2.12117199995555,4,0.25,0.44999999999999996,16.21932,return,2.3063223999924958,,,,,,,,,,,,,,,,,p306,28,female,up_down_width,2025-11-25_16h40.51.267,exp1,2023.1.0,59.961708440637544,
,,,,,,,,,,,,,,,,4,8.95,9.65,10.35,11.05,0,0.7,0.29999999999999993,0.4,2.5,10,initial,36.05,323,348,373,398,0,9,9,9,9,0,,,,,,,5,0,5,0,0,17,17,26,,,,,,,,,,,,,,3,0.8888426000485197,3,0.55,0.4,14.41717,return,1.6199786000652239,,,,,,,,,,,,,,,,,p306,28,female,up_down_width,2025-11-25_16h40.51.267,exp1,2023.1.0,59.961708440637544,
,,,,,,,,,,,,,,,,4,8.825,9.608333333333333,10.391666666666667,11.175,0,0.7833333333333333,0.5333333333333333,0.25,2.6,10,match,36.05,318,346,375,403,0,9,9,9,9,0,,,,,,,5,0,5,0,0,18,18,5,,,,,,,,,,,,,,3,0.8492297999328002,3,0.2,0.15000000000000002,5.40644,return,1.7740241000428796,,,,,,,,,,,,,,,,,p306,28,female,up_down_width,2025-11-25_16h40.51.267,exp1,2023.1.0,59.961708440637544,
,,,,,,,,,,,,,,,,3,8.9,10,11.1,0,0,1.1,0.8500000000000001,0.25,2.45,10,initial,36.05,321,361,400,0,0,9,9,9,0,0,,,,,,,5,0,5,0,0,19,19,2,,,,,,,,,,,,,,3,0.6919856999302283,3,0.25,0.15000000000000002,5.40644,return,1.207308700075373,,,,,,,,,,,,,,,,,p306,28,female,up_down_width,2025-11-25_16h40.51.267,exp1,2023.1.0,59.961708440637544,
,,,,,,,,,,,,,,,,3,7.800000000000001,10,12.2,0,0,2.1999999999999997,1.7999999999999998,0.4,4.8,10,match,36.05,281,361,440,0,0,9,9,9,0,0,,,,,,,5,0,5,0,0,20,20,39,,,,,,,,,,,,,,3,1.3066991999512538,3,0.3,0.3,10.81288,return,1.2200016001006588,,,,,,,,,,,,,,,,,p306,28,female,up_down_width,2025-11-25_16h40.51.267,exp1,2023.1.0,59.961708440637544,
,,,,,,,,,,,,,,,,5,8.2,9.1,10,10.9,11.8,0.9,0.35,0.55,4.15,10,initial,36.05,296,328,361,393,425,9,9,9,9,9,,,,,,,5,0,5,0,0,21,21,46,,,,,,,,,,,,,,4,0.8680866999784485,4,0.55,0.35000000000000003,12.61502,return,1.5685378999914974,,,,,,,,,,,,,,,,,p306,28,female,up_down_width,2025-11-25_16h40.51.267,exp1,2023.1.0,59.961708440637544,
,,,,,,,,,,,,,,,,4,8.9,9.633333333333333,10.366666666666667,11.1,0,0.7333333333333333,0.18333333333333326,0.55,2.75,10,match,36.05,321,347,374,400,0,9,9,9,9,0,,,,,,,5,0,5,0,0,22,22,1,,,,,,,,,,,,,,4,1.2467843000777066,4,0.4,0.45,16.21932,return,1.0841913999756798,,,,,,,,,,,,,,,,,p306,28,female,up_down_width,2025-11-25_16h40.51.267,exp1,2023.1.0,59.961708440637544,
