amount_p,posx1_p,posx2_p,posx3_p,posx4_p,posx5_p,center_to_center_p,edge_to_edge_p,w_p,stim_lengt_p,eccentricity_p,line1_p,line2_p,line3_p,line4_p,line5_p,amount,posx1,posx2,posx3,posx4,posx5,center_to_center,edge_to_edge,w,stim_length,eccentricity,trial_type,deg_to_pix_index,posx1_in_pix,posx2_in_pix,posx3_in_pix,posx4_in_pix,posx5_in_pix,line1,line2,line3,line4,line5,posx,setsize_cobdi,trials.thisRepN,trials.thisTrialN,trials.thisN,trials.thisIndex,blocks.thisRepN,blocks.thisTrialN,blocks.thisN,blocks.thisIndex,loop.thisRepN,loop.thisTrialN,loop.thisN,loop.thisIndex,first.thisRepN,first.thisTrialN,first.thisN,first.thisIndex,second.thisRepN,second.thisTrialN,second.thisN,second.thisIndex,thisRow.t,notes,key_resp_3.started,key_resp_3.keys,key_resp_3.rt,key_resp.keys,key_resp.rt,response,starting_width_deg,response_width_degree,response_width_pixel,next_5.keys,next_5.rt,key_resp_4.keys,key_resp_4.rt,text_3.started,text_4.started,key_resp_2.started,text_2.started,key_resp_2.keys,key_resp_2.rt,adjusting.started,next.keys,next.rt,text_control2.started,key_resp.started,key_resp.corr,text_bye.started,text_bye.stopped,participant,age,gender,resp_group,date,expName,psychopyVersion,frameRate
,,,,,,,,,,,,,,,,,,,,,,,,,,,,,,,,,,,,,,,,,,,,,,,,,,,,,,,,,,,,,,,80.0699254,c,249.4528209,,,,,,,,,,,,,,,,,,,,,,,,,p307,31,female,up_down_width,2025-11-26_10h46.13.411,exp1,2023.1.0,59.99109732
5,9,9.5,10,10.5,11,0.5,0.1,0.4,2.4,10,9,9,9,9,9,,,,,,,,,,,,,,,,,,,,,,,,,,0,0,0,8,,,,,,,,,,,,,,,,,,,,,,6,3.7515795,6,0.2,0.15,5.40644,return,6.8163234,,,,,,,,,,,,,,,,,p307,31,female,up_down_width,2025-11-26_10h46.13.411,exp1,2023.1.0,59.99109732
5,9.25,9.625,10,10.375,10.75,0.375,0.125,0.25,1.75,10,9,9,9,9,9,,,,,,,,,,,,,,,,,,,,,,,,,,0,1,1,6,,,,,,,,,,,,,,,,,,,,,,5,4.1129104,5,0.45,0.2,7.20859,return,4.2995363,,,,,,,,,,,,,,,,,p307,31,female,up_down_width,2025-11-26_10h46.13.411,exp1,2023.1.0,59.99109732
3,9,10,11,0,0,1,0.9,0.1,2.1,10,9,9,9,0,0,,,,,,,,,,,,,,,,,,,,,,,,,,0,2,2,1,,,,,,,,,,,,,,,,,,,,,,4,4.0136702,4,0.55,0.1,3.60429,return,5.3070031,,,,,,,,,,,,,,,,,p307,31,female,up_down_width,2025-11-26_10h46.13.411,exp1,2023.1.0,59.99109732
4,9.25,9.75,10.25,10.75,0,0.5,0.25,0.25,1.75,10,9,9,9,9,0,,,,,,,,,,,,,,,,,,,,,,,,,,0,3,3,4,,,,,,,,,,,,,,,,,,,,,,4,2.3791514,4,0.55,0.3,10.81288,return,3.4180212,,,,,,,,,,,,,,,,,p307,31,female,up_down_width,2025-11-26_10h46.13.411,exp1,2023.1.0,59.99109732
3,8.2,10,11.8,0,0,1.8,1.4,0.4,4,10,9,9,9,0,0,,,,,,,,,,,,,,,,,,,,,,,,,,0,4,4,2,,,,,,,,,,,,,,,,,,,,,,3,1.8452913,3,0.45,0.4,14.41717,return,2.2341672,,,,,,,,,,,,,,,,,p307,31,female,up_down_width,2025-11-26_10h46.13.411,exp1,2023.1.0,59.99109732
4,9.5,9.833333333,10.16666667,10.5,0,0.333333333,0.233333333,0.1,1.1,10,9,9,9,9,0,,,,,,,,,,,,,,,,,,,,,,,,,,0,5,5,3,,,,,,,,,,,,,,,,,,,,,,4,2.5325715,4,0.35,0.1,3.60429,return,2.3987096,,,,,,,,,,,,,,,,,p307,31,female,up_down_width,2025-11-26_10h46.13.411,exp1,2023.1.0,59.99109732
5,8.6,9.3,10,10.7,11.4,0.7,0.3,0.4,3.2,10,9,9,9,9,9,,,,,,,,,,,,,,,,,,,,,,,,,,0,6,6,7,,,,,,,,,,,,,,,,,,,,,,5,1.7653069,5,0.55,0.35,12.61502,return,2.6532224,,,,,,,,,,,,,,,,,p307,31,female,up_down_width,2025-11-26_10h46.13.411,exp1,2023.1.0,59.99109732
3,9.5,10,10.5,0,0,0.5,0.4,0.1,1.1,10,9,9,9,0,0,,,,,,,,,,,,,,,,,,,,,,,,,,0,7,7,0,,,,,,,,,,,,,,,,,,,,,,4,2.2820564,4,0.45,0.1,3.60429,return,2.4142229,,,,,,,,,,,,,,,,,p307,31,female,up_down_width,2025-11-26_10h46.13.411,exp1,2023.1.0,59.99109732
4,8.65,9.55,10.45,11.35,0,0.9,0.5,0.4,3.1,10,9,9,9,9,0,,,,,,,,,,,,,,,,,,,,,,,,,,0,8,8,5,,,,,,,,,,,,,,,,,,,,,,4,1.7755542,4,0.5,0.35,12.61502,return,1.7824783,,,,,,,,,,,,,,,,,p307,31,female,up_down_width,2025-11-26_10h46.13.411,exp1,2023.1.0,59.99109732
,,,,,,,,,,,,,,,,,,,,,,,,,,,,,,,,,,,,,,,,,,,,,,,,,,,,,,,,,,,,,,,,,,,,,,,,,,c,321.2138307,,,,,,,,,,,,,,,p307,31,female,up_down_width,2025-11-26_10h46.13.411,exp1,2023.1.0,59.99109732
,,,,,,,,,,,,,,,,5,8.95,9.475,10,10.525,11.05,0.525,0.125,0.4,2.5,10,match,36.05,323,342,361,379,398,9,9,9,9,9,,,,,,,0,0,0,0,0,0,0,27,,,,,,,,,,,,,,5,1.9398127,5,0.5,0.45,16.21932,return,2.8062373,,,,,,,,,,,,,,,,,p307,31,female,up_down_width,2025-11-26_10h46.13.411,exp1,2023.1.0,59.99109732
,,,,,,,,,,,,,,,,5,8.2,9.1,10,10.9,11.8,0.9,0.5,0.4,4,10,initial,36.05,296,328,361,393,425,9,9,9,9,9,,,,,,,0,0,0,0,0,1,1,50,,,,,,,,,,,,,,5,2.5782734,5,0.35,0.4,14.41717,return,2.2177172,,,,,,,,,,,,,,,,,p307,31,female,up_down_width,2025-11-26_10h46.13.411,exp1,2023.1.0,59.99109732
,,,,,,,,,,,,,,,,4,9.3,9.766666667,10.23333333,10.7,0,0.466666667,0.066666667,0.4,1.8,10,match,36.05,335,352,369,386,0,9,9,9,9,0,,,,,,,0,0,0,0,0,2,2,10,,,,,,,,,,,,,,4,1.5412992,4,0.3,0.35,12.61502,return,2.1491998,,,,,,,,,,,,,,,,,p307,31,female,up_down_width,2025-11-26_10h46.13.411,exp1,2023.1.0,59.99109732
,,,,,,,,,,,,,,,,3,8.2,10,11.8,0,0,1.8,1.25,0.55,4.15,10,match,36.05,296,361,425,0,0,9,9,9,0,0,,,,,,,0,0,0,0,0,3,3,47,,,,,,,,,,,,,,4,1.4898348,4,0.55,0.5,18.02146,return,1.6050985,,,,,,,,,,,,,,,,,p307,31,female,up_down_width,2025-11-26_10h46.13.411,exp1,2023.1.0,59.99109732
,,,,,,,,,,,,,,,,5,8.65,9.325,10,10.675,11.35,0.675,0.125,0.55,3.25,10,match,36.05,312,336,361,385,409,9,9,9,9,9,,,,,,,0,0,0,0,0,4,4,29,,,,,,,,,,,,,,6,2.273923,6,0.5,0.45,16.21932,return,1.572512,,,,,,,,,,,,,,,,,p307,31,female,up_down_width,2025-11-26_10h46.13.411,exp1,2023.1.0,59.99109732
,,,,,,,,,,,,,,,,4,8.35,9.45,10.55,11.65,0,1.1,0.7,0.4,3.7,10,initial,36.05,301,341,380,420,0,9,9,9,9,0,,,,,,,0,0,0,0,0,5,5,21,,,,,,,,,,,,,,5,2.8472693,5,0.3,0.45,16.21932,return,4.1093023,,,,,,,,,,,,,,,,,p307,31,female,up_down_width,2025-11-26_10h46.13.411,exp1,2023.1.0,59.99109732
,,,,,,,,,,,,,,,,3,9.1,10,10.9,0,0,0.9,0.65,0.25,2.05,10,initial,36.05,328,361,393,0,0,9,9,9,0,0,,,,,,,0,0,0,0,0,6,6,13,,,,,,,,,,,,,,4,1.8878092,4,0.35,0.2,7.20859,return,1.330951,,,,,,,,,,,,,,,,,p307,31,female,up_down_width,2025-11-26_10h46.13.411,exp1,2023.1.0,59.99109732
,,,,,,,,,,,,,,,,3,8.2,10,11.8,0,0,1.8,1.4,0.4,4,10,match,36.05,296,361,425,0,0,9,9,9,0,0,,,,,,,0,0,0,0,0,7,7,51,,,,,,,,,,,,,,3,1.3493652,3,0.55,0.4,14.41717,return,2.5262683,,,,,,,,,,,,,,,,,p307,31,female,up_down_width,2025-11-26_10h46.13.411,exp1,2023.1.0,59.99109732
,,,,,,,,,,,,,,,,4,8.9,9.633333333,10.36666667,11.1,0,0.733333333,0.183333333,0.55,2.75,10,match,36.05,321,347,374,400,0,9,9,9,9,0,,,,,,,0,0,0,0,0,8,8,1,,,,,,,,,,,,,,5,3.346246,5,0.35,0.45,16.21932,return,1.5477689,,,,,,,,,,,,,,,,,p307,31,female,up_down_width,2025-11-26_10h46.13.411,exp1,2023.1.0,59.99109732
,,,,,,,,,,,,,,,,5,8.275,9.1375,10,10.8625,11.725,0.8625,0.6125,0.25,3.7,10,match,36.05,298,329,361,392,423,9,9,9,9,9,,,,,,,0,0,0,0,0,9,9,22,,,,,,,,,,,,,,6,1.3508358,6,0.3,0.2,7.20859,return,1.5185158,,,,,,,,,,,,,,,,,p307,31,female,up_down_width,2025-11-26_10h46.13.411,exp1,2023.1.0,59.99109732
,,,,,,,,,,,,,,,,5,8.65,9.325,10,10.675,11.35,0.675,0.425,0.25,2.95,10,match,36.05,312,336,361,385,409,9,9,9,9,9,,,,,,,0,0,0,0,0,10,10,31,,,,,,,,,,,,,,5,3.4399178,5,0.2,0.25,9.01073,return,1.6041167,,,,,,,,,,,,,,,,,p307,31,female,up_down_width,2025-11-26_10h46.13.411,exp1,2023.1.0,59.99109732
,,,,,,,,,,,,,,,,3,9.3,10,10.7,0,0,0.7,0.3,0.4,1.8,10,initial,36.05,335,361,386,0,0,9,9,9,0,0,,,,,,,0,0,0,0,0,11,11,9,,,,,,,,,,,,,,4,1.415821,4,0.4,0.3,10.81288,return,2.0623411,,,,,,,,,,,,,,,,,p307,31,female,up_down_width,2025-11-26_10h46.13.411,exp1,2023.1.0,59.99109732
,,,,,,,,,,,,,,,,3,8.6,10,11.4,0,0,1.4,0.85,0.55,3.35,10,match,36.05,310,361,411,0,0,9,9,9,0,0,,,,,,,0,0,0,0,0,12,12,41,,,,,,,,,,,,,,4,1.1391796,4,0.45,0.45,16.21932,return,0.7873045,,,,,,,,,,,,,,,,,p307,31,female,up_down_width,2025-11-26_10h46.13.411,exp1,2023.1.0,59.99109732
,,,,,,,,,,,,,,,,4,9.3,9.766666667,10.23333333,10.7,0,0.466666667,0.216666667,0.25,1.65,10,match,36.05,335,352,369,386,0,9,9,9,9,0,,,,,,,0,0,0,0,0,13,13,8,,,,,,,,,,,,,,3,2.9078067,3,0.55,0.25,9.01073,return,2.2143614,,,,,,,,,,,,,,,,,p307,31,female,up_down_width,2025-11-26_10h46.13.411,exp1,2023.1.0,59.99109732
,,,,,,,,,,,,,,,,5,7.8,8.9,10,11.1,12.2,1.1,0.85,0.25,4.65,10,initial,36.05,281,321,361,400,440,9,9,9,9,9,,,,,,,0,0,0,0,0,14,14,36,,,,,,,,,,,,,,5,1.3328333,5,0.5,0.2,7.20859,return,2.2387049,,,,,,,,,,,,,,,,,p307,31,female,up_down_width,2025-11-26_10h46.13.411,exp1,2023.1.0,59.99109732
,,,,,,,,,,,,,,,,5,8.95,9.475,10,10.525,11.05,0.525,0.275,0.25,2.35,10,match,36.05,323,342,361,379,398,9,9,9,9,9,,,,,,,0,0,0,0,0,15,15,25,,,,,,,,,,,,,,6,1.7262324,6,0.45,0.25,9.01073,return,2.4396336,,,,,,,,,,,,,,,,,p307,31,female,up_down_width,2025-11-26_10h46.13.411,exp1,2023.1.0,59.99109732
,,,,,,,,,,,,,,,,3,7.8,10,12.2,0,0,2.2,1.65,0.55,4.95,10,match,36.05,281,361,440,0,0,9,9,9,0,0,,,,,,,0,0,0,0,0,16,16,35,,,,,,,,,,,,,,3,1.2737321,3,0.45,0.5,18.02146,return,1.1096067,,,,,,,,,,,,,,,,,p307,31,female,up_down_width,2025-11-26_10h46.13.411,exp1,2023.1.0,59.99109732
,,,,,,,,,,,,,,,,4,9.1,9.7,10.3,10.9,0,0.6,0.2,0.4,2.2,10,match,36.05,328,350,371,393,0,9,9,9,9,0,,,,,,,0,0,0,0,0,17,17,16,,,,,,,,,,,,,,6,1.957904,6,0.2,0.4,14.41717,return,3.7181211,,,,,,,,,,,,,,,,,p307,31,female,up_down_width,2025-11-26_10h46.13.411,exp1,2023.1.0,59.99109732
,,,,,,,,,,,,,,,,3,8.525,10,11.475,0,0,1.475,1.225,0.25,3.2,10,match,36.05,307,361,414,0,0,9,9,9,0,0,,,,,,,0,0,0,0,0,18,18,45,,,,,,,,,,,,,,3,1.8743956,3,0.4,0.25,9.01073,return,2.0864227,,,,,,,,,,,,,,,,,p307,31,female,up_down_width,2025-11-26_10h46.13.411,exp1,2023.1.0,59.99109732
,,,,,,,,,,,,,,,,5,8.6,9.3,10,10.7,11.4,0.7,0.15,0.55,3.35,10,initial,36.05,310,335,361,386,411,9,9,9,9,9,,,,,,,0,0,0,0,0,19,19,40,,,,,,,,,,,,,,5,2.0450922,5,0.55,0.45,16.21932,return,1.3214157,,,,,,,,,,,,,,,,,p307,31,female,up_down_width,2025-11-26_10h46.13.411,exp1,2023.1.0,59.99109732
,,,,,,,,,,,,,,,,4,9.1,9.7,10.3,10.9,0,0.6,0.05,0.55,2.35,10,match,36.05,328,350,371,393,0,9,9,9,9,0,,,,,,,0,0,0,0,0,20,20,12,,,,,,,,,,,,,,4,2.8864641,4,0.2,0.55,19.82361,return,1.6175196,,,,,,,,,,,,,,,,,p307,31,female,up_down_width,2025-11-26_10h46.13.411,exp1,2023.1.0,59.99109732
,,,,,,,,,,,,,,,,5,8.35,9.175,10,10.825,11.65,0.825,0.275,0.55,3.85,10,match,36.05,301,331,361,390,420,9,9,9,9,9,,,,,,,0,0,0,0,0,21,21,18,,,,,,,,,,,,,,6,1.185852,6,0.35,0.45,16.21932,return,1.5060313,,,,,,,,,,,,,,,,,p307,31,female,up_down_width,2025-11-26_10h46.13.411,exp1,2023.1.0,59.99109732
,,,,,,,,,,,,,,,,5,8.6,9.3,10,10.7,11.4,0.7,0.45,0.25,3.05,10,initial,36.05,310,335,361,386,411,9,9,9,9,9,,,,,,,0,0,0,0,0,22,22,42,,,,,,,,,,,,,,5,2.8598778,5,0.35,0.25,9.01073,return,1.6091119,,,,,,,,,,,,,,,,,p307,31,female,up_down_width,2025-11-26_10h46.13.411,exp1,2023.1.0,59.99109732
,,,,,,,,,,,,,,,,4,9.1,9.7,10.3,10.9,0,0.6,0.35,0.25,2.05,10,match,36.05,328,350,371,393,0,9,9,9,9,0,,,,,,,0,0,0,0,0,23,23,14,,,,,,,,,,,,,,4,1.3709981,4,0.35,0.2,7.20859,return,1.2515863,,,,,,,,,,,,,,,,,p307,31,female,up_down_width,2025-11-26_10h46.13.411,exp1,2023.1.0,59.99109732
,,,,,,,,,,,,,,,,4,8.95,9.65,10.35,11.05,0,0.7,0.15,0.55,2.65,10,initial,36.05,323,348,373,398,0,9,9,9,9,0,,,,,,,0,0,0,0,0,24,24,23,,,,,,,,,,,,,,5,1.7644499,5,0.3,0.4,14.41717,return,1.2770458,,,,,,,,,,,,,,,,,p307,31,female,up_down_width,2025-11-26_10h46.13.411,exp1,2023.1.0,59.99109732
,,,,,,,,,,,,,,,,5,8.6,9.3,10,10.7,11.4,0.7,0.3,0.4,3.2,10,initial,36.05,310,335,361,386,411,9,9,9,9,9,,,,,,,0,0,0,0,0,25,25,44,,,,,,,,,,,,,,5,2.4065617,5,0.2,0.35,12.61502,return,1.5419707,,,,,,,,,,,,,,,,,p307,31,female,up_down_width,2025-11-26_10h46.13.411,exp1,2023.1.0,59.99109732
,,,,,,,,,,,,,,,,4,8.35,9.45,10.55,11.65,0,1.1,0.85,0.25,3.55,10,initial,36.05,301,341,380,420,0,9,9,9,9,0,,,,,,,0,0,0,0,0,26,26,19,,,,,,,,,,,,,,4,2.451778,4,0.2,0.2,7.20859,return,1.3769512,,,,,,,,,,,,,,,,,p307,31,female,up_down_width,2025-11-26_10h46.13.411,exp1,2023.1.0,59.99109732
,,,,,,,,,,,,,,,,3,9.1,10,10.9,0,0,0.9,0.35,0.55,2.35,10,initial,36.05,328,361,393,0,0,9,9,9,0,0,,,,,,,0,0,0,0,0,27,27,11,,,,,,,,,,,,,,4,2.1470535,4,0.35,0.35,12.61502,return,1.2445442,,,,,,,,,,,,,,,,,p307,31,female,up_down_width,2025-11-26_10h46.13.411,exp1,2023.1.0,59.99109732
,,,,,,,,,,,,,,,,4,8.65,9.55,10.45,11.35,0,0.9,0.35,0.55,3.25,10,initial,36.05,312,344,377,409,0,9,9,9,9,0,,,,,,,0,0,0,0,0,28,28,28,,,,,,,,,,,,,,4,2.3329602,4,0.45,0.45,16.21932,return,2.3664204,,,,,,,,,,,,,,,,,p307,31,female,up_down_width,2025-11-26_10h46.13.411,exp1,2023.1.0,59.99109732
,,,,,,,,,,,,,,,,4,8.9,9.633333333,10.36666667,11.1,0,0.733333333,0.483333333,0.25,2.45,10,match,36.05,321,347,374,400,0,9,9,9,9,0,,,,,,,0,0,0,0,0,29,29,3,,,,,,,,,,,,,,4,2.9505511,4,0.3,0.2,7.20859,return,1.2791229,,,,,,,,,,,,,,,,,p307,31,female,up_down_width,2025-11-26_10h46.13.411,exp1,2023.1.0,59.99109732
,,,,,,,,,,,,,,,,4,8.65,9.55,10.45,11.35,0,0.9,0.5,0.4,3.1,10,initial,36.05,312,344,377,409,0,9,9,9,9,0,,,,,,,0,0,0,0,0,30,30,32,,,,,,,,,,,,,,5,2.8738301,5,0.35,0.35,12.61502,return,0.9491443,,,,,,,,,,,,,,,,,p307,31,female,up_down_width,2025-11-26_10h46.13.411,exp1,2023.1.0,59.99109732
,,,,,,,,,,,,,,,,3,9.3,10,10.7,0,0,0.7,0.15,0.55,1.95,10,initial,36.05,335,361,386,0,0,9,9,9,0,0,,,,,,,0,0,0,0,0,31,31,6,,,,,,,,,,,,,,3,1.3624286,3,0.45,0.45,16.21932,return,2.3792298,,,,,,,,,,,,,,,,,p307,31,female,up_down_width,2025-11-26_10h46.13.411,exp1,2023.1.0,59.99109732
,,,,,,,,,,,,,,,,4,8.95,9.65,10.35,11.05,0,0.7,0.45,0.25,2.35,10,initial,36.05,323,348,373,398,0,9,9,9,9,0,,,,,,,0,0,0,0,0,32,32,24,,,,,,,,,,,,,,5,1.4237586,5,0.4,0.2,7.20859,return,1.1892805,,,,,,,,,,,,,,,,,p307,31,female,up_down_width,2025-11-26_10h46.13.411,exp1,2023.1.0,59.99109732
,,,,,,,,,,,,,,,,3,8.6,10,11.4,0,0,1.4,1.15,0.25,3.05,10,match,36.05,310,361,411,0,0,9,9,9,0,0,,,,,,,0,0,0,0,0,33,33,43,,,,,,,,,,,,,,3,1.0657144,3,0.3,0.2,7.20859,return,0.9251053,,,,,,,,,,,,,,,,,p307,31,female,up_down_width,2025-11-26_10h46.13.411,exp1,2023.1.0,59.99109732
,,,,,,,,,,,,,,,,5,7.8,8.9,10,11.1,12.2,1.1,0.55,0.55,4.95,10,initial,36.05,281,321,361,400,440,9,9,9,9,9,,,,,,,0,0,0,0,0,34,34,34,,,,,,,,,,,,,,6,2.1933571,6,0.35,0.4,14.41717,return,1.5932554,,,,,,,,,,,,,,,,,p307,31,female,up_down_width,2025-11-26_10h46.13.411,exp1,2023.1.0,59.99109732
,,,,,,,,,,,,,,,,3,8.9,10,11.1,0,0,1.1,0.55,0.55,2.75,10,initial,36.05,321,361,400,0,0,9,9,9,0,0,,,,,,,0,0,0,0,0,35,35,0,,,,,,,,,,,,,,3,1.3065466,3,0.2,0.4,14.41717,return,2.4686071,,,,,,,,,,,,,,,,,p307,31,female,up_down_width,2025-11-26_10h46.13.411,exp1,2023.1.0,59.99109732
,,,,,,,,,,,,,,,,4,8.95,9.65,10.35,11.05,0,0.7,0.3,0.4,2.5,10,initial,36.05,323,348,373,398,0,9,9,9,9,0,,,,,,,0,0,0,0,0,36,36,26,,,,,,,,,,,,,,5,1.3798706,5,0.55,0.35,12.61502,return,2.3805515,,,,,,,,,,,,,,,,,p307,31,female,up_down_width,2025-11-26_10h46.13.411,exp1,2023.1.0,59.99109732
,,,,,,,,,,,,,,,,5,8.65,9.325,10,10.675,11.35,0.675,0.275,0.4,3.1,10,match,36.05,312,336,361,385,409,9,9,9,9,9,,,,,,,0,0,0,0,0,37,37,33,,,,,,,,,,,,,,6,1.2712213,6,0.55,0.35,12.61502,return,1.9233384,,,,,,,,,,,,,,,,,p307,31,female,up_down_width,2025-11-26_10h46.13.411,exp1,2023.1.0,59.99109732
,,,,,,,,,,,,,,,,4,8.35,9.45,10.55,11.65,0,1.1,0.55,0.55,3.85,10,initial,36.05,301,341,380,420,0,9,9,9,9,0,,,,,,,0,0,0,0,0,38,38,17,,,,,,,,,,,,,,5,1.6020935,5,0.3,0.45,16.21932,return,2.9611424,,,,,,,,,,,,,,,,,p307,31,female,up_down_width,2025-11-26_10h46.13.411,exp1,2023.1.0,59.99109732
,,,,,,,,,,,,,,,,4,8.65,9.55,10.45,11.35,0,0.9,0.65,0.25,2.95,10,initial,36.05,312,344,377,409,0,9,9,9,9,0,,,,,,,0,0,0,0,0,39,39,30,,,,,,,,,,,,,,5,1.4116771,5,0.3,0.2,7.20859,return,1.1466977,,,,,,,,,,,,,,,,,p307,31,female,up_down_width,2025-11-26_10h46.13.411,exp1,2023.1.0,59.99109732
,,,,,,,,,,,,,,,,5,7.8,8.9,10,11.1,12.2,1.1,0.7,0.4,4.8,10,initial,36.05,281,321,361,400,440,9,9,9,9,9,,,,,,,0,0,0,0,0,40,40,38,,,,,,,,,,,,,,5,1.6849407,5,0.3,0.4,14.41717,return,1.2158013,,,,,,,,,,,,,,,,,p307,31,female,up_down_width,2025-11-26_10h46.13.411,exp1,2023.1.0,59.99109732
,,,,,,,,,,,,,,,,4,8.825,9.608333333,10.39166667,11.175,0,0.783333333,0.533333333,0.25,2.6,10,match,36.05,318,346,375,403,0,9,9,9,9,0,,,,,,,0,0,0,0,0,41,41,5,,,,,,,,,,,,,,4,2.0882913,4,0.3,0.2,7.20859,return,0.8511133,,,,,,,,,,,,,,,,,p307,31,female,up_down_width,2025-11-26_10h46.13.411,exp1,2023.1.0,59.99109732
,,,,,,,,,,,,,,,,3,8.9,10,11.1,0,0,1.1,0.7,0.4,2.6,10,initial,36.05,321,361,400,0,0,9,9,9,0,0,,,,,,,0,0,0,0,0,42,42,4,,,,,,,,,,,,,,3,1.3849973,3,0.4,0.4,14.41717,return,1.5356532,,,,,,,,,,,,,,,,,p307,31,female,up_down_width,2025-11-26_10h46.13.411,exp1,2023.1.0,59.99109732
,,,,,,,,,,,,,,,,3,9.1,10,10.9,0,0,0.9,0.5,0.4,2.2,10,initial,36.05,328,361,393,0,0,9,9,9,0,0,,,,,,,0,0,0,0,0,43,43,15,,,,,,,,,,,,,,3,0.8408036,3,0.45,0.45,16.21932,return,1.7821214,,,,,,,,,,,,,,,,,p307,31,female,up_down_width,2025-11-26_10h46.13.411,exp1,2023.1.0,59.99109732
,,,,,,,,,,,,,,,,3,7.8,10,12.2,0,0,2.2,1.8,0.4,4.8,10,match,36.05,281,361,440,0,0,9,9,9,0,0,,,,,,,0,0,0,0,0,44,44,39,,,,,,,,,,,,,,3,0.7265376,3,0.25,0.4,14.41717,return,3.3364305,,,,,,,,,,,,,,,,,p307,31,female,up_down_width,2025-11-26_10h46.13.411,exp1,2023.1.0,59.99109732
,,,,,,,,,,,,,,,,3,7.8,10,12.2,0,0,2.2,1.95,0.25,4.65,10,match,36.05,281,361,440,0,0,9,9,9,0,0,,,,,,,0,0,0,0,0,45,45,37,,,,,,,,,,,,,,3,1.0726944,3,0.55,0.3,10.81288,return,3.4605186,,,,,,,,,,,,,,,,,p307,31,female,up_down_width,2025-11-26_10h46.13.411,exp1,2023.1.0,59.99109732
,,,,,,,,,,,,,,,,3,8.9,10,11.1,0,0,1.1,0.85,0.25,2.45,10,initial,36.05,321,361,400,0,0,9,9,9,0,0,,,,,,,0,0,0,0,0,46,46,2,,,,,,,,,,,,,,3,1.66586,3,0.4,0.2,7.20859,return,1.3750351,,,,,,,,,,,,,,,,,p307,31,female,up_down_width,2025-11-26_10h46.13.411,exp1,2023.1.0,59.99109732
,,,,,,,,,,,,,,,,3,8.2,10,11.8,0,0,1.8,1.55,0.25,3.85,10,match,36.05,296,361,425,0,0,9,9,9,0,0,,,,,,,0,0,0,0,0,47,47,49,,,,,,,,,,,,,,3,1.1038753,3,0.35,0.25,9.01073,return,2.1459938,,,,,,,,,,,,,,,,,p307,31,female,up_down_width,2025-11-26_10h46.13.411,exp1,2023.1.0,59.99109732
,,,,,,,,,,,,,,,,5,8.2,9.1,10,10.9,11.8,0.9,0.65,0.25,3.85,10,initial,36.05,296,328,361,393,425,9,9,9,9,9,,,,,,,0,0,0,0,0,48,48,48,,,,,,,,,,,,,,5,1.3278235,5,0.3,0.2,7.20859,return,1.5444251,,,,,,,,,,,,,,,,,p307,31,female,up_down_width,2025-11-26_10h46.13.411,exp1,2023.1.0,59.99109732
,,,,,,,,,,,,,,,,3,9.3,10,10.7,0,0,0.7,0.45,0.25,1.65,10,initial,36.05,335,361,386,0,0,9,9,9,0,0,,,,,,,0,0,0,0,0,49,49,7,,,,,,,,,,,,,,3,1.3849894,3,0.5,0.2,7.20859,return,1.743152,,,,,,,,,,,,,,,,,p307,31,female,up_down_width,2025-11-26_10h46.13.411,exp1,2023.1.0,59.99109732
,,,,,,,,,,,,,,,,5,8.2,9.1,10,10.9,11.8,0.9,0.35,0.55,4.15,10,initial,36.05,296,328,361,393,425,9,9,9,9,9,,,,,,,0,0,0,0,0,50,50,46,,,,,,,,,,,,,,5,2.1716996,5,0.2,0.4,14.41717,return,1.7463874,,,,,,,,,,,,,,,,,p307,31,female,up_down_width,2025-11-26_10h46.13.411,exp1,2023.1.0,59.99109732
,,,,,,,,,,,,,,,,5,8.35,9.175,10,10.825,11.65,0.825,0.575,0.25,3.55,10,match,36.05,301,331,361,390,420,9,9,9,9,9,,,,,,,0,0,0,0,0,51,51,20,,,,,,,,,,,,,,5,1.4066287,5,0.5,0.25,9.01073,return,2.5493881,,,,,,,,,,,,,,,,,p307,31,female,up_down_width,2025-11-26_10h46.13.411,exp1,2023.1.0,59.99109732
,,,,,,,,,,,,,,,,,,,,,,,,,,,,,,,,,,,,,,,,,,,,,0,0,0,0,,,,,,,,,,,,,,,,,,,,,,,,,,,,1001.907801,1001.907801,1001.907801,,,,,,,,,,,,p307,31,female,up_down_width,2025-11-26_10h46.13.411,exp1,2023.1.0,59.99109732
,,,,,,,,,,,,,,,,3,8.9,10,11.1,0,0,1.1,0.7,0.4,2.6,10,initial,36.05,321,361,400,0,0,9,9,9,0,0,,,,,,,1,0,1,0,0,0,0,4,,,,,,,,,,,,,,3,1.4565914,3,0.35,0.35,12.61502,return,2.228955,,,,,,,,,,,,,,,,,p307,31,female,up_down_width,2025-11-26_10h46.13.411,exp1,2023.1.0,59.99109732
,,,,,,,,,,,,,,,,4,8.65,9.55,10.45,11.35,0,0.9,0.35,0.55,3.25,10,initial,36.05,312,344,377,409,0,9,9,9,9,0,,,,,,,1,0,1,0,0,1,1,28,,,,,,,,,,,,,,4,1.7298474,4,0.25,0.55,19.82361,return,1.7252519,,,,,,,,,,,,,,,,,p307,31,female,up_down_width,2025-11-26_10h46.13.411,exp1,2023.1.0,59.99109732
,,,,,,,,,,,,,,,,5,8.35,9.175,10,10.825,11.65,0.825,0.575,0.25,3.55,10,match,36.05,301,331,361,390,420,9,9,9,9,9,,,,,,,1,0,1,0,0,2,2,20,,,,,,,,,,,,,,5,1.4606315,5,0.45,0.2,7.20859,return,1.8175311,,,,,,,,,,,,,,,,,p307,31,female,up_down_width,2025-11-26_10h46.13.411,exp1,2023.1.0,59.99109732
,,,,,,,,,,,,,,,,4,9.3,9.766666667,10.23333333,10.7,0,0.466666667,0.216666667,0.25,1.65,10,match,36.05,335,352,369,386,0,9,9,9,9,0,,,,,,,1,0,1,0,0,3,3,8,,,,,,,,,,,,,,4,1.1871988,4,0.35,0.2,7.20859,return,1.3799325,,,,,,,,,,,,,,,,,p307,31,female,up_down_width,2025-11-26_10h46.13.411,exp1,2023.1.0,59.99109732
,,,,,,,,,,,,,,,,4,9.3,9.766666667,10.23333333,10.7,0,0.466666667,0.066666667,0.4,1.8,10,match,36.05,335,352,369,386,0,9,9,9,9,0,,,,,,,1,0,1,0,0,4,4,10,,,,,,,,,,,,,,5,1.0600024,5,0.2,0.3,10.81288,return,1.5278328,,,,,,,,,,,,,,,,,p307,31,female,up_down_width,2025-11-26_10h46.13.411,exp1,2023.1.0,59.99109732
,,,,,,,,,,,,,,,,4,8.9,9.633333333,10.36666667,11.1,0,0.733333333,0.483333333,0.25,2.45,10,match,36.05,321,347,374,400,0,9,9,9,9,0,,,,,,,1,0,1,0,0,5,5,3,,,,,,,,,,,,,,4,1.1211611,4,0.55,0.25,9.01073,return,3.5876214,,,,,,,,,,,,,,,,,p307,31,female,up_down_width,2025-11-26_10h46.13.411,exp1,2023.1.0,59.99109732
,,,,,,,,,,,,,,,,4,8.65,9.55,10.45,11.35,0,0.9,0.5,0.4,3.1,10,initial,36.05,312,344,377,409,0,9,9,9,9,0,,,,,,,1,0,1,0,0,6,6,32,,,,,,,,,,,,,,5,1.5205695,5,0.5,0.3,10.81288,return,1.9551429,,,,,,,,,,,,,,,,,p307,31,female,up_down_width,2025-11-26_10h46.13.411,exp1,2023.1.0,59.99109732
,,,,,,,,,,,,,,,,3,7.8,10,12.2,0,0,2.2,1.95,0.25,4.65,10,match,36.05,281,361,440,0,0,9,9,9,0,0,,,,,,,1,0,1,0,0,7,7,37,,,,,,,,,,,,,,3,1.0940068,3,0.4,0.25,9.01073,return,1.5456091,,,,,,,,,,,,,,,,,p307,31,female,up_down_width,2025-11-26_10h46.13.411,exp1,2023.1.0,59.99109732
,,,,,,,,,,,,,,,,5,7.8,8.9,10,11.1,12.2,1.1,0.7,0.4,4.8,10,initial,36.05,281,321,361,400,440,9,9,9,9,9,,,,,,,1,0,1,0,0,8,8,38,,,,,,,,,,,,,,5,1.6763915,5,0.3,0.35,12.61502,return,1.9611691,,,,,,,,,,,,,,,,,p307,31,female,up_down_width,2025-11-26_10h46.13.411,exp1,2023.1.0,59.99109732
,,,,,,,,,,,,,,,,5,8.65,9.325,10,10.675,11.35,0.675,0.425,0.25,2.95,10,match,36.05,312,336,361,385,409,9,9,9,9,9,,,,,,,1,0,1,0,0,9,9,31,,,,,,,,,,,,,,5,1.2653511,5,0.5,0.25,9.01073,return,1.5342304,,,,,,,,,,,,,,,,,p307,31,female,up_down_width,2025-11-26_10h46.13.411,exp1,2023.1.0,59.99109732
,,,,,,,,,,,,,,,,4,8.35,9.45,10.55,11.65,0,1.1,0.85,0.25,3.55,10,initial,36.05,301,341,380,420,0,9,9,9,9,0,,,,,,,1,0,1,0,0,10,10,19,,,,,,,,,,,,,,4,1.3297342,4,0.45,0.2,7.20859,return,1.4684435,,,,,,,,,,,,,,,,,p307,31,female,up_down_width,2025-11-26_10h46.13.411,exp1,2023.1.0,59.99109732
,,,,,,,,,,,,,,,,5,7.8,8.9,10,11.1,12.2,1.1,0.55,0.55,4.95,10,initial,36.05,281,321,361,400,440,9,9,9,9,9,,,,,,,1,0,1,0,0,11,11,34,,,,,,,,,,,,,,5,1.2786215,5,0.45,0.35,12.61502,return,1.7219031,,,,,,,,,,,,,,,,,p307,31,female,up_down_width,2025-11-26_10h46.13.411,exp1,2023.1.0,59.99109732
,,,,,,,,,,,,,,,,3,8.2,10,11.8,0,0,1.8,1.55,0.25,3.85,10,match,36.05,296,361,425,0,0,9,9,9,0,0,,,,,,,1,0,1,0,0,12,12,49,,,,,,,,,,,,,,3,1.1805882,3,0.3,0.2,7.20859,return,0.8917653,,,,,,,,,,,,,,,,,p307,31,female,up_down_width,2025-11-26_10h46.13.411,exp1,2023.1.0,59.99109732
,,,,,,,,,,,,,,,,4,8.95,9.65,10.35,11.05,0,0.7,0.3,0.4,2.5,10,initial,36.05,323,348,373,398,0,9,9,9,9,0,,,,,,,1,0,1,0,0,13,13,26,,,,,,,,,,,,,,5,1.3723414,5,0.5,0.35,12.61502,return,1.1239632,,,,,,,,,,,,,,,,,p307,31,female,up_down_width,2025-11-26_10h46.13.411,exp1,2023.1.0,59.99109732
,,,,,,,,,,,,,,,,3,8.2,10,11.8,0,0,1.8,1.4,0.4,4,10,match,36.05,296,361,425,0,0,9,9,9,0,0,,,,,,,1,0,1,0,0,14,14,51,,,,,,,,,,,,,,3,1.3056553,3,0.4,0.5,18.02146,return,1.1082696,,,,,,,,,,,,,,,,,p307,31,female,up_down_width,2025-11-26_10h46.13.411,exp1,2023.1.0,59.99109732
,,,,,,,,,,,,,,,,3,9.1,10,10.9,0,0,0.9,0.65,0.25,2.05,10,initial,36.05,328,361,393,0,0,9,9,9,0,0,,,,,,,1,0,1,0,0,15,15,13,,,,,,,,,,,,,,3,1.2797513,3,0.35,0.2,7.20859,return,1.0365497,,,,,,,,,,,,,,,,,p307,31,female,up_down_width,2025-11-26_10h46.13.411,exp1,2023.1.0,59.99109732
,,,,,,,,,,,,,,,,5,8.6,9.3,10,10.7,11.4,0.7,0.45,0.25,3.05,10,initial,36.05,310,335,361,386,411,9,9,9,9,9,,,,,,,1,0,1,0,0,16,16,42,,,,,,,,,,,,,,5,2.1160128,5,0.35,0.2,7.20859,return,1.615178,,,,,,,,,,,,,,,,,p307,31,female,up_down_width,2025-11-26_10h46.13.411,exp1,2023.1.0,59.99109732
,,,,,,,,,,,,,,,,3,9.3,10,10.7,0,0,0.7,0.15,0.55,1.95,10,initial,36.05,335,361,386,0,0,9,9,9,0,0,,,,,,,1,0,1,0,0,17,17,6,,,,,,,,,,,,,,3,1.163228,3,0.45,0.45,16.21932,return,1.0997345,,,,,,,,,,,,,,,,,p307,31,female,up_down_width,2025-11-26_10h46.13.411,exp1,2023.1.0,59.99109732
,,,,,,,,,,,,,,,,5,8.2,9.1,10,10.9,11.8,0.9,0.35,0.55,4.15,10,initial,36.05,296,328,361,393,425,9,9,9,9,9,,,,,,,1,0,1,0,0,18,18,46,,,,,,,,,,,,,,6,1.2898327,6,0.3,0.45,16.21932,return,2.6773627,,,,,,,,,,,,,,,,,p307,31,female,up_down_width,2025-11-26_10h46.13.411,exp1,2023.1.0,59.99109732
,,,,,,,,,,,,,,,,3,8.2,10,11.8,0,0,1.8,1.25,0.55,4.15,10,match,36.05,296,361,425,0,0,9,9,9,0,0,,,,,,,1,0,1,0,0,19,19,47,,,,,,,,,,,,,,3,1.340639,3,0.2,0.6,21.62576,return,2.1829753,,,,,,,,,,,,,,,,,p307,31,female,up_down_width,2025-11-26_10h46.13.411,exp1,2023.1.0,59.99109732
,,,,,,,,,,,,,,,,5,8.95,9.475,10,10.525,11.05,0.525,0.275,0.25,2.35,10,match,36.05,323,342,361,379,398,9,9,9,9,9,,,,,,,1,0,1,0,0,20,20,25,,,,,,,,,,,,,,6,2.3382605,6,0.35,0.2,7.20859,return,1.3956579,,,,,,,,,,,,,,,,,p307,31,female,up_down_width,2025-11-26_10h46.13.411,exp1,2023.1.0,59.99109732
,,,,,,,,,,,,,,,,5,8.6,9.3,10,10.7,11.4,0.7,0.15,0.55,3.35,10,initial,36.05,310,335,361,386,411,9,9,9,9,9,,,,,,,1,0,1,0,0,21,21,40,,,,,,,,,,,,,,5,1.3938499,5,0.55,0.45,16.21932,return,2.96994,,,,,,,,,,,,,,,,,p307,31,female,up_down_width,2025-11-26_10h46.13.411,exp1,2023.1.0,59.99109732
,,,,,,,,,,,,,,,,5,8.2,9.1,10,10.9,11.8,0.9,0.5,0.4,4,10,initial,36.05,296,328,361,393,425,9,9,9,9,9,,,,,,,1,0,1,0,0,22,22,50,,,,,,,,,,,,,,5,1.9718893,5,0.25,0.45,16.21932,return,1.5563122,,,,,,,,,,,,,,,,,p307,31,female,up_down_width,2025-11-26_10h46.13.411,exp1,2023.1.0,59.99109732
,,,,,,,,,,,,,,,,3,9.3,10,10.7,0,0,0.7,0.3,0.4,1.8,10,initial,36.05,335,361,386,0,0,9,9,9,0,0,,,,,,,1,0,1,0,0,23,23,9,,,,,,,,,,,,,,3,1.1805054,3,0.45,0.4,14.41717,return,1.1965452,,,,,,,,,,,,,,,,,p307,31,female,up_down_width,2025-11-26_10h46.13.411,exp1,2023.1.0,59.99109732
,,,,,,,,,,,,,,,,5,8.95,9.475,10,10.525,11.05,0.525,0.125,0.4,2.5,10,match,36.05,323,342,361,379,398,9,9,9,9,9,,,,,,,1,0,1,0,0,24,24,27,,,,,,,,,,,,,,5,1.3158643,5,0.45,0.3,10.81288,return,1.2473085,,,,,,,,,,,,,,,,,p307,31,female,up_down_width,2025-11-26_10h46.13.411,exp1,2023.1.0,59.99109732
,,,,,,,,,,,,,,,,3,8.6,10,11.4,0,0,1.4,0.85,0.55,3.35,10,match,36.05,310,361,411,0,0,9,9,9,0,0,,,,,,,1,0,1,0,0,25,25,41,,,,,,,,,,,,,,3,1.3977118,3,0.35,0.6,21.62576,return,1.7405603,,,,,,,,,,,,,,,,,p307,31,female,up_down_width,2025-11-26_10h46.13.411,exp1,2023.1.0,59.99109732
,,,,,,,,,,,,,,,,3,7.8,10,12.2,0,0,2.2,1.8,0.4,4.8,10,match,36.05,281,361,440,0,0,9,9,9,0,0,,,,,,,1,0,1,0,0,26,26,39,,,,,,,,,,,,,,3,1.1878205,3,0.3,0.4,14.41717,return,2.1321381,,,,,,,,,,,,,,,,,p307,31,female,up_down_width,2025-11-26_10h46.13.411,exp1,2023.1.0,59.99109732
,,,,,,,,,,,,,,,,4,9.1,9.7,10.3,10.9,0,0.6,0.2,0.4,2.2,10,match,36.05,328,350,371,393,0,9,9,9,9,0,,,,,,,1,0,1,0,0,27,27,16,,,,,,,,,,,,,,5,1.7242302,5,0.35,0.4,14.41717,return,1.8943929,,,,,,,,,,,,,,,,,p307,31,female,up_down_width,2025-11-26_10h46.13.411,exp1,2023.1.0,59.99109732
,,,,,,,,,,,,,,,,5,8.2,9.1,10,10.9,11.8,0.9,0.65,0.25,3.85,10,initial,36.05,296,328,361,393,425,9,9,9,9,9,,,,,,,1,0,1,0,0,28,28,48,,,,,,,,,,,,,,5,2.1471683,5,0.3,0.15,5.40644,return,1.0846856,,,,,,,,,,,,,,,,,p307,31,female,up_down_width,2025-11-26_10h46.13.411,exp1,2023.1.0,59.99109732
,,,,,,,,,,,,,,,,4,8.65,9.55,10.45,11.35,0,0.9,0.65,0.25,2.95,10,initial,36.05,312,344,377,409,0,9,9,9,9,0,,,,,,,1,0,1,0,0,29,29,30,,,,,,,,,,,,,,4,1.1851099,4,0.4,0.2,7.20859,return,1.2326839,,,,,,,,,,,,,,,,,p307,31,female,up_down_width,2025-11-26_10h46.13.411,exp1,2023.1.0,59.99109732
,,,,,,,,,,,,,,,,4,8.35,9.45,10.55,11.65,0,1.1,0.7,0.4,3.7,10,initial,36.05,301,341,380,420,0,9,9,9,9,0,,,,,,,1,0,1,0,0,30,30,21,,,,,,,,,,,,,,4,1.313914,4,0.25,0.4,14.41717,return,1.2431685,,,,,,,,,,,,,,,,,p307,31,female,up_down_width,2025-11-26_10h46.13.411,exp1,2023.1.0,59.99109732
,,,,,,,,,,,,,,,,4,9.1,9.7,10.3,10.9,0,0.6,0.35,0.25,2.05,10,match,36.05,328,350,371,393,0,9,9,9,9,0,,,,,,,1,0,1,0,0,31,31,14,,,,,,,,,,,,,,4,1.2436499,4,0.3,0.2,7.20859,return,1.0965895,,,,,,,,,,,,,,,,,p307,31,female,up_down_width,2025-11-26_10h46.13.411,exp1,2023.1.0,59.99109732
,,,,,,,,,,,,,,,,4,8.95,9.65,10.35,11.05,0,0.7,0.45,0.25,2.35,10,initial,36.05,323,348,373,398,0,9,9,9,9,0,,,,,,,1,0,1,0,0,32,32,24,,,,,,,,,,,,,,4,1.2851552,4,0.25,0.15,5.40644,return,0.9132537,,,,,,,,,,,,,,,,,p307,31,female,up_down_width,2025-11-26_10h46.13.411,exp1,2023.1.0,59.99109732
,,,,,,,,,,,,,,,,4,8.825,9.608333333,10.39166667,11.175,0,0.783333333,0.533333333,0.25,2.6,10,match,36.05,318,346,375,403,0,9,9,9,9,0,,,,,,,1,0,1,0,0,33,33,5,,,,,,,,,,,,,,5,2.0224041,5,0.2,0.15,5.40644,return,0.8996817,,,,,,,,,,,,,,,,,p307,31,female,up_down_width,2025-11-26_10h46.13.411,exp1,2023.1.0,59.99109732
,,,,,,,,,,,,,,,,3,8.525,10,11.475,0,0,1.475,1.225,0.25,3.2,10,match,36.05,307,361,414,0,0,9,9,9,0,0,,,,,,,1,0,1,0,0,34,34,45,,,,,,,,,,,,,,3,1.5936777,3,0.45,0.2,7.20859,return,1.6727213,,,,,,,,,,,,,,,,,p307,31,female,up_down_width,2025-11-26_10h46.13.411,exp1,2023.1.0,59.99109732
,,,,,,,,,,,,,,,,3,9.1,10,10.9,0,0,0.9,0.35,0.55,2.35,10,initial,36.05,328,361,393,0,0,9,9,9,0,0,,,,,,,1,0,1,0,0,35,35,11,,,,,,,,,,,,,,3,1.2718757,3,0.2,0.45,16.21932,return,2.3724349,,,,,,,,,,,,,,,,,p307,31,female,up_down_width,2025-11-26_10h46.13.411,exp1,2023.1.0,59.99109732
,,,,,,,,,,,,,,,,4,9.1,9.7,10.3,10.9,0,0.6,0.05,0.55,2.35,10,match,36.05,328,350,371,393,0,9,9,9,9,0,,,,,,,1,0,1,0,0,36,36,12,,,,,,,,,,,,,,4,1.551038,4,0.2,0.5,18.02146,return,3.0864509,,,,,,,,,,,,,,,,,p307,31,female,up_down_width,2025-11-26_10h46.13.411,exp1,2023.1.0,59.99109732
,,,,,,,,,,,,,,,,5,8.275,9.1375,10,10.8625,11.725,0.8625,0.6125,0.25,3.7,10,match,36.05,298,329,361,392,423,9,9,9,9,9,,,,,,,1,0,1,0,0,37,37,22,,,,,,,,,,,,,,5,1.4688311,5,0.4,0.2,7.20859,return,1.2809843,,,,,,,,,,,,,,,,,p307,31,female,up_down_width,2025-11-26_10h46.13.411,exp1,2023.1.0,59.99109732
,,,,,,,,,,,,,,,,5,7.8,8.9,10,11.1,12.2,1.1,0.85,0.25,4.65,10,initial,36.05,281,321,361,400,440,9,9,9,9,9,,,,,,,1,0,1,0,0,38,38,36,,,,,,,,,,,,,,5,1.2154107,5,0.35,0.2,7.20859,return,1.7258993,,,,,,,,,,,,,,,,,p307,31,female,up_down_width,2025-11-26_10h46.13.411,exp1,2023.1.0,59.99109732
,,,,,,,,,,,,,,,,3,8.6,10,11.4,0,0,1.4,1.15,0.25,3.05,10,match,36.05,310,361,411,0,0,9,9,9,0,0,,,,,,,1,0,1,0,0,39,39,43,,,,,,,,,,,,,,3,1.0732833,3,0.25,0.2,7.20859,return,1.445025,,,,,,,,,,,,,,,,,p307,31,female,up_down_width,2025-11-26_10h46.13.411,exp1,2023.1.0,59.99109732
,,,,,,,,,,,,,,,,5,8.65,9.325,10,10.675,11.35,0.675,0.125,0.55,3.25,10,match,36.05,312,336,361,385,409,9,9,9,9,9,,,,,,,1,0,1,0,0,40,40,29,,,,,,,,,,,,,,5,1.4658213,5,0.25,0.45,16.21932,return,2.76623,,,,,,,,,,,,,,,,,p307,31,female,up_down_width,2025-11-26_10h46.13.411,exp1,2023.1.0,59.99109732
,,,,,,,,,,,,,,,,4,8.95,9.65,10.35,11.05,0,0.7,0.15,0.55,2.65,10,initial,36.05,323,348,373,398,0,9,9,9,9,0,,,,,,,1,0,1,0,0,41,41,23,,,,,,,,,,,,,,4,1.2016058,4,0.35,0.6,21.62576,return,1.4884229,,,,,,,,,,,,,,,,,p307,31,female,up_down_width,2025-11-26_10h46.13.411,exp1,2023.1.0,59.99109732
,,,,,,,,,,,,,,,,3,8.9,10,11.1,0,0,1.1,0.85,0.25,2.45,10,initial,36.05,321,361,400,0,0,9,9,9,0,0,,,,,,,1,0,1,0,0,42,42,2,,,,,,,,,,,,,,3,1.6719023,3,0.25,0.15,5.40644,return,0.7874768,,,,,,,,,,,,,,,,,p307,31,female,up_down_width,2025-11-26_10h46.13.411,exp1,2023.1.0,59.99109732
,,,,,,,,,,,,,,,,3,7.8,10,12.2,0,0,2.2,1.65,0.55,4.95,10,match,36.05,281,361,440,0,0,9,9,9,0,0,,,,,,,1,0,1,0,0,43,43,35,,,,,,,,,,,,,,3,1.2225429,3,0.45,0.6,21.62576,return,1.3018613,,,,,,,,,,,,,,,,,p307,31,female,up_down_width,2025-11-26_10h46.13.411,exp1,2023.1.0,59.99109732
,,,,,,,,,,,,,,,,3,9.3,10,10.7,0,0,0.7,0.45,0.25,1.65,10,initial,36.05,335,361,386,0,0,9,9,9,0,0,,,,,,,1,0,1,0,0,44,44,7,,,,,,,,,,,,,,3,1.3998776,3,0.25,0.15,5.40644,return,0.895275,,,,,,,,,,,,,,,,,p307,31,female,up_down_width,2025-11-26_10h46.13.411,exp1,2023.1.0,59.99109732
,,,,,,,,,,,,,,,,5,8.35,9.175,10,10.825,11.65,0.825,0.275,0.55,3.85,10,match,36.05,301,331,361,390,420,9,9,9,9,9,,,,,,,1,0,1,0,0,45,45,18,,,,,,,,,,,,,,5,1.5411561,5,0.45,0.5,18.02146,return,0.9341737,,,,,,,,,,,,,,,,,p307,31,female,up_down_width,2025-11-26_10h46.13.411,exp1,2023.1.0,59.99109732
,,,,,,,,,,,,,,,,4,8.9,9.633333333,10.36666667,11.1,0,0.733333333,0.183333333,0.55,2.75,10,match,36.05,321,347,374,400,0,9,9,9,9,0,,,,,,,1,0,1,0,0,46,46,1,,,,,,,,,,,,,,4,1.1926926,4,0.2,0.5,18.02146,return,1.8160967,,,,,,,,,,,,,,,,,p307,31,female,up_down_width,2025-11-26_10h46.13.411,exp1,2023.1.0,59.99109732
,,,,,,,,,,,,,,,,3,9.1,10,10.9,0,0,0.9,0.5,0.4,2.2,10,initial,36.05,328,361,393,0,0,9,9,9,0,0,,,,,,,1,0,1,0,0,47,47,15,,,,,,,,,,,,,,3,1.3282035,3,0.55,0.45,16.21932,return,1.5457432,,,,,,,,,,,,,,,,,p307,31,female,up_down_width,2025-11-26_10h46.13.411,exp1,2023.1.0,59.99109732
,,,,,,,,,,,,,,,,3,8.9,10,11.1,0,0,1.1,0.55,0.55,2.75,10,initial,36.05,321,361,400,0,0,9,9,9,0,0,,,,,,,1,0,1,0,0,48,48,0,,,,,,,,,,,,,,3,1.3174773,3,0.55,0.65,23.4279,return,1.4399676,,,,,,,,,,,,,,,,,p307,31,female,up_down_width,2025-11-26_10h46.13.411,exp1,2023.1.0,59.99109732
,,,,,,,,,,,,,,,,5,8.6,9.3,10,10.7,11.4,0.7,0.3,0.4,3.2,10,initial,36.05,310,335,361,386,411,9,9,9,9,9,,,,,,,1,0,1,0,0,49,49,44,,,,,,,,,,,,,,6,1.5223501,6,0.25,0.4,14.41717,return,1.8926245,,,,,,,,,,,,,,,,,p307,31,female,up_down_width,2025-11-26_10h46.13.411,exp1,2023.1.0,59.99109732
,,,,,,,,,,,,,,,,4,8.35,9.45,10.55,11.65,0,1.1,0.55,0.55,3.85,10,initial,36.05,301,341,380,420,0,9,9,9,9,0,,,,,,,1,0,1,0,0,50,50,17,,,,,,,,,,,,,,5,2.059201,5,0.2,0.5,18.02146,return,1.8160072,,,,,,,,,,,,,,,,,p307,31,female,up_down_width,2025-11-26_10h46.13.411,exp1,2023.1.0,59.99109732
,,,,,,,,,,,,,,,,5,8.65,9.325,10,10.675,11.35,0.675,0.275,0.4,3.1,10,match,36.05,312,336,361,385,409,9,9,9,9,9,,,,,,,1,0,1,0,0,51,51,33,,,,,,,,,,,,,,6,1.7785753,6,0.35,0.4,14.41717,return,1.1465505,,,,,,,,,,,,,,,,,p307,31,female,up_down_width,2025-11-26_10h46.13.411,exp1,2023.1.0,59.99109732
,,,,,,,,,,,,,,,,,,,,,,,,,,,,,,,,,,,,,,,,,,,,,1,0,1,0,,,,,,,,,,,,,,,,,,,,,,,,,,,,1277.557768,1277.557768,1277.557768,,,,,,,,,,,,p307,31,female,up_down_width,2025-11-26_10h46.13.411,exp1,2023.1.0,59.99109732
,,,,,,,,,,,,,,,,5,8.65,9.325,10,10.675,11.35,0.675,0.275,0.4,3.1,10,match,36.05,312,336,361,385,409,9,9,9,9,9,,,,,,,2,0,2,0,0,0,0,33,,,,,,,,,,,,,,6,1.3313223,6,0.55,0.35,12.61502,return,2.3805552,,,,,,,,,,,,,,,,,p307,31,female,up_down_width,2025-11-26_10h46.13.411,exp1,2023.1.0,59.99109732
,,,,,,,,,,,,,,,,3,7.8,10,12.2,0,0,2.2,1.8,0.4,4.8,10,match,36.05,281,361,440,0,0,9,9,9,0,0,,,,,,,2,0,2,0,0,1,1,39,,,,,,,,,,,,,,3,0.9972058,3,0.3,0.3,10.81288,return,2.5082805,,,,,,,,,,,,,,,,,p307,31,female,up_down_width,2025-11-26_10h46.13.411,exp1,2023.1.0,59.99109732
,,,,,,,,,,,,,,,,4,9.1,9.7,10.3,10.9,0,0.6,0.05,0.55,2.35,10,match,36.05,328,350,371,393,0,9,9,9,9,0,,,,,,,2,0,2,0,0,2,2,12,,,,,,,,,,,,,,4,1.1466892,4,0.4,0.55,19.82361,return,1.0672384,,,,,,,,,,,,,,,,,p307,31,female,up_down_width,2025-11-26_10h46.13.411,exp1,2023.1.0,59.99109732
,,,,,,,,,,,,,,,,3,8.525,10,11.475,0,0,1.475,1.225,0.25,3.2,10,match,36.05,307,361,414,0,0,9,9,9,0,0,,,,,,,2,0,2,0,0,3,3,45,,,,,,,,,,,,,,3,0.9647886,3,0.4,0.2,7.20859,return,1.5326333,,,,,,,,,,,,,,,,,p307,31,female,up_down_width,2025-11-26_10h46.13.411,exp1,2023.1.0,59.99109732
,,,,,,,,,,,,,,,,3,8.2,10,11.8,0,0,1.8,1.25,0.55,4.15,10,match,36.05,296,361,425,0,0,9,9,9,0,0,,,,,,,2,0,2,0,0,4,4,47,,,,,,,,,,,,,,3,1.0921394,3,0.55,0.55,19.82361,return,0.9994789,,,,,,,,,,,,,,,,,p307,31,female,up_down_width,2025-11-26_10h46.13.411,exp1,2023.1.0,59.99109732
,,,,,,,,,,,,,,,,4,8.65,9.55,10.45,11.35,0,0.9,0.65,0.25,2.95,10,initial,36.05,312,344,377,409,0,9,9,9,9,0,,,,,,,2,0,2,0,0,5,5,30,,,,,,,,,,,,,,4,1.2380647,4,0.45,0.2,7.20859,return,1.2516197,,,,,,,,,,,,,,,,,p307,31,female,up_down_width,2025-11-26_10h46.13.411,exp1,2023.1.0,59.99109732
,,,,,,,,,,,,,,,,4,9.1,9.7,10.3,10.9,0,0.6,0.2,0.4,2.2,10,match,36.05,328,350,371,393,0,9,9,9,9,0,,,,,,,2,0,2,0,0,6,6,16,,,,,,,,,,,,,,4,0.9680205,4,0.2,0.3,10.81288,return,1.1512914,,,,,,,,,,,,,,,,,p307,31,female,up_down_width,2025-11-26_10h46.13.411,exp1,2023.1.0,59.99109732
,,,,,,,,,,,,,,,,4,8.825,9.608333333,10.39166667,11.175,0,0.783333333,0.533333333,0.25,2.6,10,match,36.05,318,346,375,403,0,9,9,9,9,0,,,,,,,2,0,2,0,0,7,7,5,,,,,,,,,,,,,,4,0.9007982,4,0.45,0.2,7.20859,return,1.7281428,,,,,,,,,,,,,,,,,p307,31,female,up_down_width,2025-11-26_10h46.13.411,exp1,2023.1.0,59.99109732
,,,,,,,,,,,,,,,,3,9.1,10,10.9,0,0,0.9,0.35,0.55,2.35,10,initial,36.05,328,361,393,0,0,9,9,9,0,0,,,,,,,2,0,2,0,0,8,8,11,,,,,,,,,,,,,,3,1.0765769,3,0.4,0.45,16.21932,return,1.1446117,,,,,,,,,,,,,,,,,p307,31,female,up_down_width,2025-11-26_10h46.13.411,exp1,2023.1.0,59.99109732
,,,,,,,,,,,,,,,,4,8.95,9.65,10.35,11.05,0,0.7,0.15,0.55,2.65,10,initial,36.05,323,348,373,398,0,9,9,9,9,0,,,,,,,2,0,2,0,0,9,9,23,,,,,,,,,,,,,,4,2.5636936,4,0.2,0.55,19.82361,return,2.059748,,,,,,,,,,,,,,,,,p307,31,female,up_down_width,2025-11-26_10h46.13.411,exp1,2023.1.0,59.99109732
,,,,,,,,,,,,,,,,5,8.65,9.325,10,10.675,11.35,0.675,0.425,0.25,2.95,10,match,36.05,312,336,361,385,409,9,9,9,9,9,,,,,,,2,0,2,0,0,10,10,31,,,,,,,,,,,,,,6,1.0046362,6,0.5,0.25,9.01073,return,2.8029914,,,,,,,,,,,,,,,,,p307,31,female,up_down_width,2025-11-26_10h46.13.411,exp1,2023.1.0,59.99109732
,,,,,,,,,,,,,,,,4,8.9,9.633333333,10.36666667,11.1,0,0.733333333,0.483333333,0.25,2.45,10,match,36.05,321,347,374,400,0,9,9,9,9,0,,,,,,,2,0,2,0,0,11,11,3,,,,,,,,,,,,,,5,1.0431976,5,0.55,0.25,9.01073,return,1.5611595,,,,,,,,,,,,,,,,,p307,31,female,up_down_width,2025-11-26_10h46.13.411,exp1,2023.1.0,59.99109732
,,,,,,,,,,,,,,,,3,8.6,10,11.4,0,0,1.4,1.15,0.25,3.05,10,match,36.05,310,361,411,0,0,9,9,9,0,0,,,,,,,2,0,2,0,0,12,12,43,,,,,,,,,,,,,,3,1.1858637,3,0.45,0.2,7.20859,return,1.4253037,,,,,,,,,,,,,,,,,p307,31,female,up_down_width,2025-11-26_10h46.13.411,exp1,2023.1.0,59.99109732
,,,,,,,,,,,,,,,,5,7.8,8.9,10,11.1,12.2,1.1,0.85,0.25,4.65,10,initial,36.05,281,321,361,400,440,9,9,9,9,9,,,,,,,2,0,2,0,0,13,13,36,,,,,,,,,,,,,,5,1.3385223,5,0.45,0.2,7.20859,return,1.188869,,,,,,,,,,,,,,,,,p307,31,female,up_down_width,2025-11-26_10h46.13.411,exp1,2023.1.0,59.99109732
,,,,,,,,,,,,,,,,3,7.8,10,12.2,0,0,2.2,1.95,0.25,4.65,10,match,36.05,281,361,440,0,0,9,9,9,0,0,,,,,,,2,0,2,0,0,14,14,37,,,,,,,,,,,,,,3,2.1566365,3,0.35,0.2,7.20859,return,2.0048095,,,,,,,,,,,,,,,,,p307,31,female,up_down_width,2025-11-26_10h46.13.411,exp1,2023.1.0,59.99109732
,,,,,,,,,,,,,,,,3,8.6,10,11.4,0,0,1.4,0.85,0.55,3.35,10,match,36.05,310,361,411,0,0,9,9,9,0,0,,,,,,,2,0,2,0,0,15,15,41,,,,,,,,,,,,,,3,2.1672779,3,0.25,0.65,23.4279,return,2.8163394,,,,,,,,,,,,,,,,,p307,31,female,up_down_width,2025-11-26_10h46.13.411,exp1,2023.1.0,59.99109732
,,,,,,,,,,,,,,,,3,9.3,10,10.7,0,0,0.7,0.45,0.25,1.65,10,initial,36.05,335,361,386,0,0,9,9,9,0,0,,,,,,,2,0,2,0,0,16,16,7,,,,,,,,,,,,,,3,1.2498554,3,0.35,0.15,5.40644,return,1.3279397,,,,,,,,,,,,,,,,,p307,31,female,up_down_width,2025-11-26_10h46.13.411,exp1,2023.1.0,59.99109732
,,,,,,,,,,,,,,,,3,7.8,10,12.2,0,0,2.2,1.65,0.55,4.95,10,match,36.05,281,361,440,0,0,9,9,9,0,0,,,,,,,2,0,2,0,0,17,17,35,,,,,,,,,,,,,,3,1.1954912,3,0.35,0.65,23.4279,return,2.2017892,,,,,,,,,,,,,,,,,p307,31,female,up_down_width,2025-11-26_10h46.13.411,exp1,2023.1.0,59.99109732
,,,,,,,,,,,,,,,,5,8.2,9.1,10,10.9,11.8,0.9,0.5,0.4,4,10,initial,36.05,296,328,361,393,425,9,9,9,9,9,,,,,,,2,0,2,0,0,18,18,50,,,,,,,,,,,,,,5,2.4372558,5,0.45,0.55,19.82361,return,1.0267717,,,,,,,,,,,,,,,,,p307,31,female,up_down_width,2025-11-26_10h46.13.411,exp1,2023.1.0,59.99109732
,,,,,,,,,,,,,,,,5,8.95,9.475,10,10.525,11.05,0.525,0.275,0.25,2.35,10,match,36.05,323,342,361,379,398,9,9,9,9,9,,,,,,,2,0,2,0,0,19,19,25,,,,,,,,,,,,,,5,1.4019095,5,0.5,0.2,7.20859,return,2.049116,,,,,,,,,,,,,,,,,p307,31,female,up_down_width,2025-11-26_10h46.13.411,exp1,2023.1.0,59.99109732
,,,,,,,,,,,,,,,,4,8.65,9.55,10.45,11.35,0,0.9,0.5,0.4,3.1,10,initial,36.05,312,344,377,409,0,9,9,9,9,0,,,,,,,2,0,2,0,0,20,20,32,,,,,,,,,,,,,,4,1.6889952,4,0.2,0.45,16.21932,return,2.4355633,,,,,,,,,,,,,,,,,p307,31,female,up_down_width,2025-11-26_10h46.13.411,exp1,2023.1.0,59.99109732
,,,,,,,,,,,,,,,,5,8.95,9.475,10,10.525,11.05,0.525,0.125,0.4,2.5,10,match,36.05,323,342,361,379,398,9,9,9,9,9,,,,,,,2,0,2,0,0,21,21,27,,,,,,,,,,,,,,5,1.2989355,5,0.25,0.45,16.21932,return,1.1820023,,,,,,,,,,,,,,,,,p307,31,female,up_down_width,2025-11-26_10h46.13.411,exp1,2023.1.0,59.99109732
,,,,,,,,,,,,,,,,3,8.2,10,11.8,0,0,1.8,1.55,0.25,3.85,10,match,36.05,296,361,425,0,0,9,9,9,0,0,,,,,,,2,0,2,0,0,22,22,49,,,,,,,,,,,,,,3,1.4563861,3,0.45,0.2,7.20859,return,1.3977682,,,,,,,,,,,,,,,,,p307,31,female,up_down_width,2025-11-26_10h46.13.411,exp1,2023.1.0,59.99109732
,,,,,,,,,,,,,,,,5,8.35,9.175,10,10.825,11.65,0.825,0.275,0.55,3.85,10,match,36.05,301,331,361,390,420,9,9,9,9,9,,,,,,,2,0,2,0,0,23,23,18,,,,,,,,,,,,,,6,1.8392015,6,0.2,0.45,16.21932,return,4.2760196,,,,,,,,,,,,,,,,,p307,31,female,up_down_width,2025-11-26_10h46.13.411,exp1,2023.1.0,59.99109732
,,,,,,,,,,,,,,,,5,7.8,8.9,10,11.1,12.2,1.1,0.7,0.4,4.8,10,initial,36.05,281,321,361,400,440,9,9,9,9,9,,,,,,,2,0,2,0,0,24,24,38,,,,,,,,,,,,,,6,1.1323548,6,0.35,0.35,12.61502,return,0.9420769,,,,,,,,,,,,,,,,,p307,31,female,up_down_width,2025-11-26_10h46.13.411,exp1,2023.1.0,59.99109732
,,,,,,,,,,,,,,,,3,9.1,10,10.9,0,0,0.9,0.5,0.4,2.2,10,initial,36.05,328,361,393,0,0,9,9,9,0,0,,,,,,,2,0,2,0,0,25,25,15,,,,,,,,,,,,,,3,1.6792267,3,0.2,0.35,12.61502,return,1.3866401,,,,,,,,,,,,,,,,,p307,31,female,up_down_width,2025-11-26_10h46.13.411,exp1,2023.1.0,59.99109732
,,,,,,,,,,,,,,,,3,9.1,10,10.9,0,0,0.9,0.65,0.25,2.05,10,initial,36.05,328,361,393,0,0,9,9,9,0,0,,,,,,,2,0,2,0,0,26,26,13,,,,,,,,,,,,,,3,1.3069951,3,0.2,0.2,7.20859,return,0.9494277,,,,,,,,,,,,,,,,,p307,31,female,up_down_width,2025-11-26_10h46.13.411,exp1,2023.1.0,59.99109732
,,,,,,,,,,,,,,,,5,8.2,9.1,10,10.9,11.8,0.9,0.35,0.55,4.15,10,initial,36.05,296,328,361,393,425,9,9,9,9,9,,,,,,,2,0,2,0,0,27,27,46,,,,,,,,,,,,,,5,1.0359056,5,0.45,0.45,16.21932,return,0.9466307,,,,,,,,,,,,,,,,,p307,31,female,up_down_width,2025-11-26_10h46.13.411,exp1,2023.1.0,59.99109732
,,,,,,,,,,,,,,,,4,8.95,9.65,10.35,11.05,0,0.7,0.45,0.25,2.35,10,initial,36.05,323,348,373,398,0,9,9,9,9,0,,,,,,,2,0,2,0,0,28,28,24,,,,,,,,,,,,,,4,1.2192915,4,0.25,0.2,7.20859,return,0.8972933,,,,,,,,,,,,,,,,,p307,31,female,up_down_width,2025-11-26_10h46.13.411,exp1,2023.1.0,59.99109732
,,,,,,,,,,,,,,,,4,9.3,9.766666667,10.23333333,10.7,0,0.466666667,0.216666667,0.25,1.65,10,match,36.05,335,352,369,386,0,9,9,9,9,0,,,,,,,2,0,2,0,0,29,29,8,,,,,,,,,,,,,,4,3.0384217,4,0.55,0.2,7.20859,return,2.2438774,,,,,,,,,,,,,,,,,p307,31,female,up_down_width,2025-11-26_10h46.13.411,exp1,2023.1.0,59.99109732
,,,,,,,,,,,,,,,,5,8.65,9.325,10,10.675,11.35,0.675,0.125,0.55,3.25,10,match,36.05,312,336,361,385,409,9,9,9,9,9,,,,,,,2,0,2,0,0,30,30,29,,,,,,,,,,,,,,5,1.5653915,5,0.3,0.6,21.62576,return,1.4698735,,,,,,,,,,,,,,,,,p307,31,female,up_down_width,2025-11-26_10h46.13.411,exp1,2023.1.0,59.99109732
,,,,,,,,,,,,,,,,4,8.65,9.55,10.45,11.35,0,0.9,0.35,0.55,3.25,10,initial,36.05,312,344,377,409,0,9,9,9,9,0,,,,,,,2,0,2,0,0,31,31,28,,,,,,,,,,,,,,4,1.1423876,4,0.5,0.5,18.02146,return,0.6157985,,,,,,,,,,,,,,,,,p307,31,female,up_down_width,2025-11-26_10h46.13.411,exp1,2023.1.0,59.99109732
,,,,,,,,,,,,,,,,4,8.35,9.45,10.55,11.65,0,1.1,0.55,0.55,3.85,10,initial,36.05,301,341,380,420,0,9,9,9,9,0,,,,,,,2,0,2,0,0,32,32,17,,,,,,,,,,,,,,5,1.1513288,5,0.5,0.5,18.02146,return,0.5612502,,,,,,,,,,,,,,,,,p307,31,female,up_down_width,2025-11-26_10h46.13.411,exp1,2023.1.0,59.99109732
,,,,,,,,,,,,,,,,4,8.35,9.45,10.55,11.65,0,1.1,0.7,0.4,3.7,10,initial,36.05,301,341,380,420,0,9,9,9,9,0,,,,,,,2,0,2,0,0,33,33,21,,,,,,,,,,,,,,4,1.201355,4,0.3,0.4,14.41717,return,1.5361145,,,,,,,,,,,,,,,,,p307,31,female,up_down_width,2025-11-26_10h46.13.411,exp1,2023.1.0,59.99109732
,,,,,,,,,,,,,,,,5,8.275,9.1375,10,10.8625,11.725,0.8625,0.6125,0.25,3.7,10,match,36.05,298,329,361,392,423,9,9,9,9,9,,,,,,,2,0,2,0,0,34,34,22,,,,,,,,,,,,,,5,1.5323243,5,0.25,0.2,7.20859,return,0.8772047,,,,,,,,,,,,,,,,,p307,31,female,up_down_width,2025-11-26_10h46.13.411,exp1,2023.1.0,59.99109732
,,,,,,,,,,,,,,,,5,7.8,8.9,10,11.1,12.2,1.1,0.55,0.55,4.95,10,initial,36.05,281,321,361,400,440,9,9,9,9,9,,,,,,,2,0,2,0,0,35,35,34,,,,,,,,,,,,,,5,1.1389544,5,0.45,0.45,16.21932,return,1.0132761,,,,,,,,,,,,,,,,,p307,31,female,up_down_width,2025-11-26_10h46.13.411,exp1,2023.1.0,59.99109732
,,,,,,,,,,,,,,,,3,9.3,10,10.7,0,0,0.7,0.3,0.4,1.8,10,initial,36.05,335,361,386,0,0,9,9,9,0,0,,,,,,,2,0,2,0,0,36,36,9,,,,,,,,,,,,,,3,1.20551,3,0.35,0.3,10.81288,return,1.2032191,,,,,,,,,,,,,,,,,p307,31,female,up_down_width,2025-11-26_10h46.13.411,exp1,2023.1.0,59.99109732
,,,,,,,,,,,,,,,,5,8.2,9.1,10,10.9,11.8,0.9,0.65,0.25,3.85,10,initial,36.05,296,328,361,393,425,9,9,9,9,9,,,,,,,2,0,2,0,0,37,37,48,,,,,,,,,,,,,,5,2.2825331,5,0.55,0.25,9.01073,return,1.6467787,,,,,,,,,,,,,,,,,p307,31,female,up_down_width,2025-11-26_10h46.13.411,exp1,2023.1.0,59.99109732
,,,,,,,,,,,,,,,,5,8.6,9.3,10,10.7,11.4,0.7,0.3,0.4,3.2,10,initial,36.05,310,335,361,386,411,9,9,9,9,9,,,,,,,2,0,2,0,0,38,38,44,,,,,,,,,,,,,,5,1.1743496,5,0.25,0.3,10.81288,return,1.3342259,,,,,,,,,,,,,,,,,p307,31,female,up_down_width,2025-11-26_10h46.13.411,exp1,2023.1.0,59.99109732
,,,,,,,,,,,,,,,,3,9.3,10,10.7,0,0,0.7,0.15,0.55,1.95,10,initial,36.05,335,361,386,0,0,9,9,9,0,0,,,,,,,2,0,2,0,0,39,39,6,,,,,,,,,,,,,,2,2.3398464,2,0.25,0.5,18.02146,return,2.7415899,,,,,,,,,,,,,,,,,p307,31,female,up_down_width,2025-11-26_10h46.13.411,exp1,2023.1.0,59.99109732
,,,,,,,,,,,,,,,,4,9.3,9.766666667,10.23333333,10.7,0,0.466666667,0.066666667,0.4,1.8,10,match,36.05,335,352,369,386,0,9,9,9,9,0,,,,,,,2,0,2,0,0,40,40,10,,,,,,,,,,,,,,4,1.4858948,4,0.2,0.3,10.81288,return,1.3612442,,,,,,,,,,,,,,,,,p307,31,female,up_down_width,2025-11-26_10h46.13.411,exp1,2023.1.0,59.99109732
,,,,,,,,,,,,,,,,3,8.9,10,11.1,0,0,1.1,0.55,0.55,2.75,10,initial,36.05,321,361,400,0,0,9,9,9,0,0,,,,,,,2,0,2,0,0,41,41,0,,,,,,,,,,,,,,3,0.9972904,3,0.25,0.45,16.21932,return,2.0758955,,,,,,,,,,,,,,,,,p307,31,female,up_down_width,2025-11-26_10h46.13.411,exp1,2023.1.0,59.99109732
,,,,,,,,,,,,,,,,4,8.95,9.65,10.35,11.05,0,0.7,0.3,0.4,2.5,10,initial,36.05,323,348,373,398,0,9,9,9,9,0,,,,,,,2,0,2,0,0,42,42,26,,,,,,,,,,,,,,4,1.1674226,4,0.4,0.3,10.81288,return,1.279213,,,,,,,,,,,,,,,,,p307,31,female,up_down_width,2025-11-26_10h46.13.411,exp1,2023.1.0,59.99109732
,,,,,,,,,,,,,,,,5,8.6,9.3,10,10.7,11.4,0.7,0.45,0.25,3.05,10,initial,36.05,310,335,361,386,411,9,9,9,9,9,,,,,,,2,0,2,0,0,43,43,42,,,,,,,,,,,,,,5,1.1992978,5,0.3,0.2,7.20859,return,1.6636469,,,,,,,,,,,,,,,,,p307,31,female,up_down_width,2025-11-26_10h46.13.411,exp1,2023.1.0,59.99109732
,,,,,,,,,,,,,,,,3,8.2,10,11.8,0,0,1.8,1.4,0.4,4,10,match,36.05,296,361,425,0,0,9,9,9,0,0,,,,,,,2,0,2,0,0,44,44,51,,,,,,,,,,,,,,3,1.1584904,3,0.4,0.4,14.41717,return,1.2059506,,,,,,,,,,,,,,,,,p307,31,female,up_down_width,2025-11-26_10h46.13.411,exp1,2023.1.0,59.99109732
,,,,,,,,,,,,,,,,4,8.9,9.633333333,10.36666667,11.1,0,0.733333333,0.183333333,0.55,2.75,10,match,36.05,321,347,374,400,0,9,9,9,9,0,,,,,,,2,0,2,0,0,45,45,1,,,,,,,,,,,,,,5,1.8527397,5,0.35,0.35,12.61502,return,0.9946101,,,,,,,,,,,,,,,,,p307,31,female,up_down_width,2025-11-26_10h46.13.411,exp1,2023.1.0,59.99109732
,,,,,,,,,,,,,,,,3,8.9,10,11.1,0,0,1.1,0.85,0.25,2.45,10,initial,36.05,321,361,400,0,0,9,9,9,0,0,,,,,,,2,0,2,0,0,46,46,2,,,,,,,,,,,,,,3,1.0592964,3,0.3,0.15,5.40644,return,1.6871525,,,,,,,,,,,,,,,,,p307,31,female,up_down_width,2025-11-26_10h46.13.411,exp1,2023.1.0,59.99109732
,,,,,,,,,,,,,,,,3,8.9,10,11.1,0,0,1.1,0.7,0.4,2.6,10,initial,36.05,321,361,400,0,0,9,9,9,0,0,,,,,,,2,0,2,0,0,47,47,4,,,,,,,,,,,,,,3,1.4834174,3,0.2,0.35,12.61502,return,1.4708173,,,,,,,,,,,,,,,,,p307,31,female,up_down_width,2025-11-26_10h46.13.411,exp1,2023.1.0,59.99109732
,,,,,,,,,,,,,,,,4,9.1,9.7,10.3,10.9,0,0.6,0.35,0.25,2.05,10,match,36.05,328,350,371,393,0,9,9,9,9,0,,,,,,,2,0,2,0,0,48,48,14,,,,,,,,,,,,,,4,1.4833199,4,0.35,0.2,7.20859,return,1.343293,,,,,,,,,,,,,,,,,p307,31,female,up_down_width,2025-11-26_10h46.13.411,exp1,2023.1.0,59.99109732
,,,,,,,,,,,,,,,,5,8.35,9.175,10,10.825,11.65,0.825,0.575,0.25,3.55,10,match,36.05,301,331,361,390,420,9,9,9,9,9,,,,,,,2,0,2,0,0,49,49,20,,,,,,,,,,,,,,5,1.3927546,5,0.5,0.2,7.20859,return,3.9447798,,,,,,,,,,,,,,,,,p307,31,female,up_down_width,2025-11-26_10h46.13.411,exp1,2023.1.0,59.99109732
,,,,,,,,,,,,,,,,4,8.35,9.45,10.55,11.65,0,1.1,0.85,0.25,3.55,10,initial,36.05,301,341,380,420,0,9,9,9,9,0,,,,,,,2,0,2,0,0,50,50,19,,,,,,,,,,,,,,4,1.1599078,4,0.35,0.2,7.20859,return,2.3753899,,,,,,,,,,,,,,,,,p307,31,female,up_down_width,2025-11-26_10h46.13.411,exp1,2023.1.0,59.99109732
,,,,,,,,,,,,,,,,5,8.6,9.3,10,10.7,11.4,0.7,0.15,0.55,3.35,10,initial,36.05,310,335,361,386,411,9,9,9,9,9,,,,,,,2,0,2,0,0,51,51,40,,,,,,,,,,,,,,5,3.1684735,5,0.55,0.4,14.41717,return,2.0633272,,,,,,,,,,,,,,,,,p307,31,female,up_down_width,2025-11-26_10h46.13.411,exp1,2023.1.0,59.99109732
,,,,,,,,,,,,,,,,,,,,,,,,,,,,,,,,,,,,,,,,,,,,,2,0,2,0,,,,,,,,,,,,,,,,,,,,,,,,,,,,1555.157689,1555.157689,1555.157689,,,,,,,,,,,,p307,31,female,up_down_width,2025-11-26_10h46.13.411,exp1,2023.1.0,59.99109732
,,,,,,,,,,,,,,,,5,7.8,8.9,10,11.1,12.2,1.1,0.55,0.55,4.95,10,initial,36.05,281,321,361,400,440,9,9,9,9,9,,,,,,,3,0,3,0,0,0,0,34,,,,,,,,,,,,,,5,1.3625456,5,0.25,0.45,16.21932,return,1.6439956,,,,,,,,,,,,,,,,,p307,31,female,up_down_width,2025-11-26_10h46.13.411,exp1,2023.1.0,59.99109732
,,,,,,,,,,,,,,,,5,8.65,9.325,10,10.675,11.35,0.675,0.125,0.55,3.25,10,match,36.05,312,336,361,385,409,9,9,9,9,9,,,,,,,3,0,3,0,0,1,1,29,,,,,,,,,,,,,,5,1.6858391,5,0.35,0.45,16.21932,return,1.7621957,,,,,,,,,,,,,,,,,p307,31,female,up_down_width,2025-11-26_10h46.13.411,exp1,2023.1.0,59.99109732
,,,,,,,,,,,,,,,,3,8.6,10,11.4,0,0,1.4,0.85,0.55,3.35,10,match,36.05,310,361,411,0,0,9,9,9,0,0,,,,,,,3,0,3,0,0,2,2,41,,,,,,,,,,,,,,3,1.1406716,3,0.2,0.55,19.82361,return,1.573926,,,,,,,,,,,,,,,,,p307,31,female,up_down_width,2025-11-26_10h46.13.411,exp1,2023.1.0,59.99109732
,,,,,,,,,,,,,,,,4,8.95,9.65,10.35,11.05,0,0.7,0.3,0.4,2.5,10,initial,36.05,323,348,373,398,0,9,9,9,9,0,,,,,,,3,0,3,0,0,3,3,26,,,,,,,,,,,,,,4,1.1519949,4,0.4,0.3,10.81288,return,0.8491908,,,,,,,,,,,,,,,,,p307,31,female,up_down_width,2025-11-26_10h46.13.411,exp1,2023.1.0,59.99109732
,,,,,,,,,,,,,,,,4,9.1,9.7,10.3,10.9,0,0.6,0.05,0.55,2.35,10,match,36.05,328,350,371,393,0,9,9,9,9,0,,,,,,,3,0,3,0,0,4,4,12,,,,,,,,,,,,,,4,2.0377197,4,0.55,0.55,19.82361,return,1.1231366,,,,,,,,,,,,,,,,,p307,31,female,up_down_width,2025-11-26_10h46.13.411,exp1,2023.1.0,59.99109732
,,,,,,,,,,,,,,,,4,8.825,9.608333333,10.39166667,11.175,0,0.783333333,0.533333333,0.25,2.6,10,match,36.05,318,346,375,403,0,9,9,9,9,0,,,,,,,3,0,3,0,0,5,5,5,,,,,,,,,,,,,,4,1.082405,4,0.35,0.2,7.20859,return,0.972953,,,,,,,,,,,,,,,,,p307,31,female,up_down_width,2025-11-26_10h46.13.411,exp1,2023.1.0,59.99109732
,,,,,,,,,,,,,,,,5,8.2,9.1,10,10.9,11.8,0.9,0.35,0.55,4.15,10,initial,36.05,296,328,361,393,425,9,9,9,9,9,,,,,,,3,0,3,0,0,6,6,46,,,,,,,,,,,,,,5,0.9519034,5,0.4,0.45,16.21932,return,0.8008879,,,,,,,,,,,,,,,,,p307,31,female,up_down_width,2025-11-26_10h46.13.411,exp1,2023.1.0,59.99109732
,,,,,,,,,,,,,,,,5,8.65,9.325,10,10.675,11.35,0.675,0.425,0.25,2.95,10,match,36.05,312,336,361,385,409,9,9,9,9,9,,,,,,,3,0,3,0,0,7,7,31,,,,,,,,,,,,,,6,1.1919769,6,0.5,0.2,7.20859,return,1.5592538,,,,,,,,,,,,,,,,,p307,31,female,up_down_width,2025-11-26_10h46.13.411,exp1,2023.1.0,59.99109732
,,,,,,,,,,,,,,,,3,9.1,10,10.9,0,0,0.9,0.5,0.4,2.2,10,initial,36.05,328,361,393,0,0,9,9,9,0,0,,,,,,,3,0,3,0,0,8,8,15,,,,,,,,,,,,,,3,1.6381854,3,0.4,0.4,14.41717,return,1.1220037,,,,,,,,,,,,,,,,,p307,31,female,up_down_width,2025-11-26_10h46.13.411,exp1,2023.1.0,59.99109732
,,,,,,,,,,,,,,,,4,9.1,9.7,10.3,10.9,0,0.6,0.35,0.25,2.05,10,match,36.05,328,350,371,393,0,9,9,9,9,0,,,,,,,3,0,3,0,0,9,9,14,,,,,,,,,,,,,,5,1.8274682,5,0.4,0.2,7.20859,return,1.3041864,,,,,,,,,,,,,,,,,p307,31,female,up_down_width,2025-11-26_10h46.13.411,exp1,2023.1.0,59.99109732
,,,,,,,,,,,,,,,,5,7.8,8.9,10,11.1,12.2,1.1,0.85,0.25,4.65,10,initial,36.05,281,321,361,400,440,9,9,9,9,9,,,,,,,3,0,3,0,0,10,10,36,,,,,,,,,,,,,,5,1.4156136,5,0.55,0.15,5.40644,return,2.8939293,,,,,,,,,,,,,,,,,p307,31,female,up_down_width,2025-11-26_10h46.13.411,exp1,2023.1.0,59.99109732
,,,,,,,,,,,,,,,,5,8.2,9.1,10,10.9,11.8,0.9,0.5,0.4,4,10,initial,36.05,296,328,361,393,425,9,9,9,9,9,,,,,,,3,0,3,0,0,11,11,50,,,,,,,,,,,,,,6,2.1255327,6,0.55,0.35,12.61502,return,1.5114446,,,,,,,,,,,,,,,,,p307,31,female,up_down_width,2025-11-26_10h46.13.411,exp1,2023.1.0,59.99109732
,,,,,,,,,,,,,,,,4,8.65,9.55,10.45,11.35,0,0.9,0.5,0.4,3.1,10,initial,36.05,312,344,377,409,0,9,9,9,9,0,,,,,,,3,0,3,0,0,12,12,32,,,,,,,,,,,,,,4,1.2614742,4,0.4,0.35,12.61502,return,1.0666252,,,,,,,,,,,,,,,,,p307,31,female,up_down_width,2025-11-26_10h46.13.411,exp1,2023.1.0,59.99109732
,,,,,,,,,,,,,,,,5,8.6,9.3,10,10.7,11.4,0.7,0.15,0.55,3.35,10,initial,36.05,310,335,361,386,411,9,9,9,9,9,,,,,,,3,0,3,0,0,13,13,40,,,,,,,,,,,,,,5,1.0752778,5,0.2,0.4,14.41717,return,1.4634658,,,,,,,,,,,,,,,,,p307,31,female,up_down_width,2025-11-26_10h46.13.411,exp1,2023.1.0,59.99109732
,,,,,,,,,,,,,,,,3,8.9,10,11.1,0,0,1.1,0.55,0.55,2.75,10,initial,36.05,321,361,400,0,0,9,9,9,0,0,,,,,,,3,0,3,0,0,14,14,0,,,,,,,,,,,,,,3,1.2059238,3,0.5,0.5,18.02146,return,1.6202808,,,,,,,,,,,,,,,,,p307,31,female,up_down_width,2025-11-26_10h46.13.411,exp1,2023.1.0,59.99109732
,,,,,,,,,,,,,,,,4,8.95,9.65,10.35,11.05,0,0.7,0.45,0.25,2.35,10,initial,36.05,323,348,373,398,0,9,9,9,9,0,,,,,,,3,0,3,0,0,15,15,24,,,,,,,,,,,,,,4,1.2909057,4,0.2,0.2,7.20859,return,0.9183158,,,,,,,,,,,,,,,,,p307,31,female,up_down_width,2025-11-26_10h46.13.411,exp1,2023.1.0,59.99109732
,,,,,,,,,,,,,,,,4,8.95,9.65,10.35,11.05,0,0.7,0.15,0.55,2.65,10,initial,36.05,323,348,373,398,0,9,9,9,9,0,,,,,,,3,0,3,0,0,16,16,23,,,,,,,,,,,,,,4,1.2173574,4,0.45,0.35,12.61502,return,1.1050636,,,,,,,,,,,,,,,,,p307,31,female,up_down_width,2025-11-26_10h46.13.411,exp1,2023.1.0,59.99109732
,,,,,,,,,,,,,,,,4,9.3,9.766666667,10.23333333,10.7,0,0.466666667,0.066666667,0.4,1.8,10,match,36.05,335,352,369,386,0,9,9,9,9,0,,,,,,,3,0,3,0,0,17,17,10,,,,,,,,,,,,,,4,1.0879801,4,0.35,0.3,10.81288,return,1.2203425,,,,,,,,,,,,,,,,,p307,31,female,up_down_width,2025-11-26_10h46.13.411,exp1,2023.1.0,59.99109732
,,,,,,,,,,,,,,,,3,8.9,10,11.1,0,0,1.1,0.85,0.25,2.45,10,initial,36.05,321,361,400,0,0,9,9,9,0,0,,,,,,,3,0,3,0,0,18,18,2,,,,,,,,,,,,,,3,1.2764642,3,0.2,0.15,5.40644,return,0.8874212,,,,,,,,,,,,,,,,,p307,31,female,up_down_width,2025-11-26_10h46.13.411,exp1,2023.1.0,59.99109732
,,,,,,,,,,,,,,,,5,8.95,9.475,10,10.525,11.05,0.525,0.275,0.25,2.35,10,match,36.05,323,342,361,379,398,9,9,9,9,9,,,,,,,3,0,3,0,0,19,19,25,,,,,,,,,,,,,,5,3.1178251,5,0.25,0.15,5.40644,return,1.1186206,,,,,,,,,,,,,,,,,p307,31,female,up_down_width,2025-11-26_10h46.13.411,exp1,2023.1.0,59.99109732
,,,,,,,,,,,,,,,,3,7.8,10,12.2,0,0,2.2,1.95,0.25,4.65,10,match,36.05,281,361,440,0,0,9,9,9,0,0,,,,,,,3,0,3,0,0,20,20,37,,,,,,,,,,,,,,3,1.1792494,3,0.3,0.15,5.40644,return,1.2915941,,,,,,,,,,,,,,,,,p307,31,female,up_down_width,2025-11-26_10h46.13.411,exp1,2023.1.0,59.99109732
,,,,,,,,,,,,,,,,4,8.65,9.55,10.45,11.35,0,0.9,0.35,0.55,3.25,10,initial,36.05,312,344,377,409,0,9,9,9,9,0,,,,,,,3,0,3,0,0,21,21,28,,,,,,,,,,,,,,5,1.5177848,5,0.45,0.45,16.21932,return,0.6566249,,,,,,,,,,,,,,,,,p307,31,female,up_down_width,2025-11-26_10h46.13.411,exp1,2023.1.0,59.99109732
,,,,,,,,,,,,,,,,5,8.35,9.175,10,10.825,11.65,0.825,0.275,0.55,3.85,10,match,36.05,301,331,361,390,420,9,9,9,9,9,,,,,,,3,0,3,0,0,22,22,18,,,,,,,,,,,,,,5,1.6040141,5,0.3,0.5,18.02146,return,2.882737,,,,,,,,,,,,,,,,,p307,31,female,up_down_width,2025-11-26_10h46.13.411,exp1,2023.1.0,59.99109732
,,,,,,,,,,,,,,,,3,9.3,10,10.7,0,0,0.7,0.15,0.55,1.95,10,initial,36.05,335,361,386,0,0,9,9,9,0,0,,,,,,,3,0,3,0,0,23,23,6,,,,,,,,,,,,,,3,0.9972113,3,0.45,0.45,16.21932,return,1.388582,,,,,,,,,,,,,,,,,p307,31,female,up_down_width,2025-11-26_10h46.13.411,exp1,2023.1.0,59.99109732
,,,,,,,,,,,,,,,,3,8.9,10,11.1,0,0,1.1,0.7,0.4,2.6,10,initial,36.05,321,361,400,0,0,9,9,9,0,0,,,,,,,3,0,3,0,0,24,24,4,,,,,,,,,,,,,,3,1.1226985,3,0.3,0.35,12.61502,return,1.5406083,,,,,,,,,,,,,,,,,p307,31,female,up_down_width,2025-11-26_10h46.13.411,exp1,2023.1.0,59.99109732
,,,,,,,,,,,,,,,,3,9.3,10,10.7,0,0,0.7,0.3,0.4,1.8,10,initial,36.05,335,361,386,0,0,9,9,9,0,0,,,,,,,3,0,3,0,0,25,25,9,,,,,,,,,,,,,,3,1.1754425,3,0.35,0.35,12.61502,return,0.7606644,,,,,,,,,,,,,,,,,p307,31,female,up_down_width,2025-11-26_10h46.13.411,exp1,2023.1.0,59.99109732
,,,,,,,,,,,,,,,,3,9.1,10,10.9,0,0,0.9,0.65,0.25,2.05,10,initial,36.05,328,361,393,0,0,9,9,9,0,0,,,,,,,3,0,3,0,0,26,26,13,,,,,,,,,,,,,,3,1.2163713,3,0.35,0.15,5.40644,return,1.1185564,,,,,,,,,,,,,,,,,p307,31,female,up_down_width,2025-11-26_10h46.13.411,exp1,2023.1.0,59.99109732
,,,,,,,,,,,,,,,,4,8.9,9.633333333,10.36666667,11.1,0,0.733333333,0.183333333,0.55,2.75,10,match,36.05,321,347,374,400,0,9,9,9,9,0,,,,,,,3,0,3,0,0,27,27,1,,,,,,,,,,,,,,4,1.4778368,4,0.35,0.45,16.21932,return,1.2726163,,,,,,,,,,,,,,,,,p307,31,female,up_down_width,2025-11-26_10h46.13.411,exp1,2023.1.0,59.99109732
,,,,,,,,,,,,,,,,5,8.6,9.3,10,10.7,11.4,0.7,0.3,0.4,3.2,10,initial,36.05,310,335,361,386,411,9,9,9,9,9,,,,,,,3,0,3,0,0,28,28,44,,,,,,,,,,,,,,5,1.6246271,5,0.4,0.3,10.81288,return,1.2237574,,,,,,,,,,,,,,,,,p307,31,female,up_down_width,2025-11-26_10h46.13.411,exp1,2023.1.0,59.99109732
,,,,,,,,,,,,,,,,4,8.65,9.55,10.45,11.35,0,0.9,0.65,0.25,2.95,10,initial,36.05,312,344,377,409,0,9,9,9,9,0,,,,,,,3,0,3,0,0,29,29,30,,,,,,,,,,,,,,4,0.9987702,4,0.55,0.2,7.20859,return,2.3511173,,,,,,,,,,,,,,,,,p307,31,female,up_down_width,2025-11-26_10h46.13.411,exp1,2023.1.0,59.99109732
,,,,,,,,,,,,,,,,3,8.2,10,11.8,0,0,1.8,1.4,0.4,4,10,match,36.05,296,361,425,0,0,9,9,9,0,0,,,,,,,3,0,3,0,0,30,30,51,,,,,,,,,,,,,,3,1.2231886,3,0.35,0.4,14.41717,return,1.3017549,,,,,,,,,,,,,,,,,p307,31,female,up_down_width,2025-11-26_10h46.13.411,exp1,2023.1.0,59.99109732
,,,,,,,,,,,,,,,,3,9.3,10,10.7,0,0,0.7,0.45,0.25,1.65,10,initial,36.05,335,361,386,0,0,9,9,9,0,0,,,,,,,3,0,3,0,0,31,31,7,,,,,,,,,,,,,,3,1.437392,3,0.55,0.25,9.01073,return,2.4346241,,,,,,,,,,,,,,,,,p307,31,female,up_down_width,2025-11-26_10h46.13.411,exp1,2023.1.0,59.99109732
,,,,,,,,,,,,,,,,4,8.35,9.45,10.55,11.65,0,1.1,0.7,0.4,3.7,10,initial,36.05,301,341,380,420,0,9,9,9,9,0,,,,,,,3,0,3,0,0,32,32,21,,,,,,,,,,,,,,4,1.1092676,4,0.55,0.4,14.41717,return,1.5759767,,,,,,,,,,,,,,,,,p307,31,female,up_down_width,2025-11-26_10h46.13.411,exp1,2023.1.0,59.99109732
,,,,,,,,,,,,,,,,4,8.35,9.45,10.55,11.65,0,1.1,0.55,0.55,3.85,10,initial,36.05,301,341,380,420,0,9,9,9,9,0,,,,,,,3,0,3,0,0,33,33,17,,,,,,,,,,,,,,5,1.5138342,5,0.25,0.45,16.21932,return,1.7406105,,,,,,,,,,,,,,,,,p307,31,female,up_down_width,2025-11-26_10h46.13.411,exp1,2023.1.0,59.99109732
,,,,,,,,,,,,,,,,5,8.35,9.175,10,10.825,11.65,0.825,0.575,0.25,3.55,10,match,36.05,301,331,361,390,420,9,9,9,9,9,,,,,,,3,0,3,0,0,34,34,20,,,,,,,,,,,,,,6,1.1991523,6,0.35,0.2,7.20859,return,2.0793829,,,,,,,,,,,,,,,,,p307,31,female,up_down_width,2025-11-26_10h46.13.411,exp1,2023.1.0,59.99109732
,,,,,,,,,,,,,,,,4,9.1,9.7,10.3,10.9,0,0.6,0.2,0.4,2.2,10,match,36.05,328,350,371,393,0,9,9,9,9,0,,,,,,,3,0,3,0,0,35,35,16,,,,,,,,,,,,,,5,1.1926471,5,0.35,0.3,10.81288,return,1.1279065,,,,,,,,,,,,,,,,,p307,31,female,up_down_width,2025-11-26_10h46.13.411,exp1,2023.1.0,59.99109732
,,,,,,,,,,,,,,,,3,7.8,10,12.2,0,0,2.2,1.8,0.4,4.8,10,match,36.05,281,361,440,0,0,9,9,9,0,0,,,,,,,3,0,3,0,0,36,36,39,,,,,,,,,,,,,,3,0.9080278,3,0.25,0.4,14.41717,return,1.0799761,,,,,,,,,,,,,,,,,p307,31,female,up_down_width,2025-11-26_10h46.13.411,exp1,2023.1.0,59.99109732
,,,,,,,,,,,,,,,,4,8.9,9.633333333,10.36666667,11.1,0,0.733333333,0.483333333,0.25,2.45,10,match,36.05,321,347,374,400,0,9,9,9,9,0,,,,,,,3,0,3,0,0,37,37,3,,,,,,,,,,,,,,5,1.0654715,5,0.3,0.2,7.20859,return,1.0865527,,,,,,,,,,,,,,,,,p307,31,female,up_down_width,2025-11-26_10h46.13.411,exp1,2023.1.0,59.99109732
,,,,,,,,,,,,,,,,5,8.95,9.475,10,10.525,11.05,0.525,0.125,0.4,2.5,10,match,36.05,323,342,361,379,398,9,9,9,9,9,,,,,,,3,0,3,0,0,38,38,27,,,,,,,,,,,,,,5,1.5478948,5,0.4,0.3,10.81288,return,1.8365449,,,,,,,,,,,,,,,,,p307,31,female,up_down_width,2025-11-26_10h46.13.411,exp1,2023.1.0,59.99109732
,,,,,,,,,,,,,,,,4,8.35,9.45,10.55,11.65,0,1.1,0.85,0.25,3.55,10,initial,36.05,301,341,380,420,0,9,9,9,9,0,,,,,,,3,0,3,0,0,39,39,19,,,,,,,,,,,,,,4,1.3986698,4,0.2,0.15,5.40644,return,3.0685535,,,,,,,,,,,,,,,,,p307,31,female,up_down_width,2025-11-26_10h46.13.411,exp1,2023.1.0,59.99109732
,,,,,,,,,,,,,,,,5,8.6,9.3,10,10.7,11.4,0.7,0.45,0.25,3.05,10,initial,36.05,310,335,361,386,411,9,9,9,9,9,,,,,,,3,0,3,0,0,40,40,42,,,,,,,,,,,,,,5,1.6197556,5,0.45,0.2,7.20859,return,1.8740212,,,,,,,,,,,,,,,,,p307,31,female,up_down_width,2025-11-26_10h46.13.411,exp1,2023.1.0,59.99109732
,,,,,,,,,,,,,,,,3,8.525,10,11.475,0,0,1.475,1.225,0.25,3.2,10,match,36.05,307,361,414,0,0,9,9,9,0,0,,,,,,,3,0,3,0,0,41,41,45,,,,,,,,,,,,,,3,1.3691641,3,0.45,0.2,7.20859,return,1.681915,,,,,,,,,,,,,,,,,p307,31,female,up_down_width,2025-11-26_10h46.13.411,exp1,2023.1.0,59.99109732
,,,,,,,,,,,,,,,,3,8.6,10,11.4,0,0,1.4,1.15,0.25,3.05,10,match,36.05,310,361,411,0,0,9,9,9,0,0,,,,,,,3,0,3,0,0,42,42,43,,,,,,,,,,,,,,3,1.23392,3,0.5,0.2,7.20859,return,1.902752,,,,,,,,,,,,,,,,,p307,31,female,up_down_width,2025-11-26_10h46.13.411,exp1,2023.1.0,59.99109732
,,,,,,,,,,,,,,,,3,8.2,10,11.8,0,0,1.8,1.55,0.25,3.85,10,match,36.05,296,361,425,0,0,9,9,9,0,0,,,,,,,3,0,3,0,0,43,43,49,,,,,,,,,,,,,,3,1.2348442,3,0.25,0.2,7.20859,return,1.5212342,,,,,,,,,,,,,,,,,p307,31,female,up_down_width,2025-11-26_10h46.13.411,exp1,2023.1.0,59.99109732
,,,,,,,,,,,,,,,,5,7.8,8.9,10,11.1,12.2,1.1,0.7,0.4,4.8,10,initial,36.05,281,321,361,400,440,9,9,9,9,9,,,,,,,3,0,3,0,0,44,44,38,,,,,,,,,,,,,,5,2.8711382,5,0.4,0.25,9.01073,return,3.7619134,,,,,,,,,,,,,,,,,p307,31,female,up_down_width,2025-11-26_10h46.13.411,exp1,2023.1.0,59.99109732
,,,,,,,,,,,,,,,,5,8.65,9.325,10,10.675,11.35,0.675,0.275,0.4,3.1,10,match,36.05,312,336,361,385,409,9,9,9,9,9,,,,,,,3,0,3,0,0,45,45,33,,,,,,,,,,,,,,5,1.1176376,5,0.55,0.35,12.61502,return,1.6947198,,,,,,,,,,,,,,,,,p307,31,female,up_down_width,2025-11-26_10h46.13.411,exp1,2023.1.0,59.99109732
,,,,,,,,,,,,,,,,3,8.2,10,11.8,0,0,1.8,1.25,0.55,4.15,10,match,36.05,296,361,425,0,0,9,9,9,0,0,,,,,,,3,0,3,0,0,46,46,47,,,,,,,,,,,,,,3,1.1446863,3,0.45,0.65,23.4279,return,1.3857106,,,,,,,,,,,,,,,,,p307,31,female,up_down_width,2025-11-26_10h46.13.411,exp1,2023.1.0,59.99109732
,,,,,,,,,,,,,,,,5,8.2,9.1,10,10.9,11.8,0.9,0.65,0.25,3.85,10,initial,36.05,296,328,361,393,425,9,9,9,9,9,,,,,,,3,0,3,0,0,47,47,48,,,,,,,,,,,,,,5,1.6509737,5,0.45,0.15,5.40644,return,1.8719787,,,,,,,,,,,,,,,,,p307,31,female,up_down_width,2025-11-26_10h46.13.411,exp1,2023.1.0,59.99109732
,,,,,,,,,,,,,,,,4,9.3,9.766666667,10.23333333,10.7,0,0.466666667,0.216666667,0.25,1.65,10,match,36.05,335,352,369,386,0,9,9,9,9,0,,,,,,,3,0,3,0,0,48,48,8,,,,,,,,,,,,,,4,0.9872127,4,0.25,0.15,5.40644,return,1.3318169,,,,,,,,,,,,,,,,,p307,31,female,up_down_width,2025-11-26_10h46.13.411,exp1,2023.1.0,59.99109732
,,,,,,,,,,,,,,,,3,9.1,10,10.9,0,0,0.9,0.35,0.55,2.35,10,initial,36.05,328,361,393,0,0,9,9,9,0,0,,,,,,,3,0,3,0,0,49,49,11,,,,,,,,,,,,,,3,1.0400381,3,0.3,0.55,19.82361,return,1.6042311,,,,,,,,,,,,,,,,,p307,31,female,up_down_width,2025-11-26_10h46.13.411,exp1,2023.1.0,59.99109732
,,,,,,,,,,,,,,,,5,8.275,9.1375,10,10.8625,11.725,0.8625,0.6125,0.25,3.7,10,match,36.05,298,329,361,392,423,9,9,9,9,9,,,,,,,3,0,3,0,0,50,50,22,,,,,,,,,,,,,,6,1.4261744,6,0.35,0.15,5.40644,return,1.2871703,,,,,,,,,,,,,,,,,p307,31,female,up_down_width,2025-11-26_10h46.13.411,exp1,2023.1.0,59.99109732
,,,,,,,,,,,,,,,,3,7.8,10,12.2,0,0,2.2,1.65,0.55,4.95,10,match,36.05,281,361,440,0,0,9,9,9,0,0,,,,,,,3,0,3,0,0,51,51,35,,,,,,,,,,,,,,3,1.0512304,3,0.55,0.5,18.02146,return,2.2553953,,,,,,,,,,,,,,,,,p307,31,female,up_down_width,2025-11-26_10h46.13.411,exp1,2023.1.0,59.99109732
,,,,,,,,,,,,,,,,,,,,,,,,,,,,,,,,,,,,,,,,,,,,,3,0,3,0,,,,,,,,,,,,,,,,,,,,,,,,,,,,1844.174313,1844.174313,1844.174313,,,,,,,,,,,,p307,31,female,up_down_width,2025-11-26_10h46.13.411,exp1,2023.1.0,59.99109732
,,,,,,,,,,,,,,,,4,8.825,9.608333333,10.39166667,11.175,0,0.783333333,0.533333333,0.25,2.6,10,match,36.05,318,346,375,403,0,9,9,9,9,0,,,,,,,4,0,4,0,0,0,0,5,,,,,,,,,,,,,,4,0.9927125,4,0.35,0.25,9.01073,return,2.2965562,,,,,,,,,,,,,,,,,p307,31,female,up_down_width,2025-11-26_10h46.13.411,exp1,2023.1.0,59.99109732
,,,,,,,,,,,,,,,,4,8.95,9.65,10.35,11.05,0,0.7,0.15,0.55,2.65,10,initial,36.05,323,348,373,398,0,9,9,9,9,0,,,,,,,4,0,4,0,0,1,1,23,,,,,,,,,,,,,,4,1.1629072,4,0.2,0.5,18.02146,return,1.5476512,,,,,,,,,,,,,,,,,p307,31,female,up_down_width,2025-11-26_10h46.13.411,exp1,2023.1.0,59.99109732
,,,,,,,,,,,,,,,,4,8.65,9.55,10.45,11.35,0,0.9,0.65,0.25,2.95,10,initial,36.05,312,344,377,409,0,9,9,9,9,0,,,,,,,4,0,4,0,0,2,2,30,,,,,,,,,,,,,,4,1.1744327,4,0.35,0.2,7.20859,return,1.1262007,,,,,,,,,,,,,,,,,p307,31,female,up_down_width,2025-11-26_10h46.13.411,exp1,2023.1.0,59.99109732
,,,,,,,,,,,,,,,,5,8.65,9.325,10,10.675,11.35,0.675,0.425,0.25,2.95,10,match,36.05,312,336,361,385,409,9,9,9,9,9,,,,,,,4,0,4,0,0,3,3,31,,,,,,,,,,,,,,5,0.9658755,5,0.55,0.2,7.20859,return,2.047366,,,,,,,,,,,,,,,,,p307,31,female,up_down_width,2025-11-26_10h46.13.411,exp1,2023.1.0,59.99109732
,,,,,,,,,,,,,,,,5,7.8,8.9,10,11.1,12.2,1.1,0.7,0.4,4.8,10,initial,36.05,281,321,361,400,440,9,9,9,9,9,,,,,,,4,0,4,0,0,4,4,38,,,,,,,,,,,,,,5,1.9423621,5,0.3,0.35,12.61502,return,1.1118668,,,,,,,,,,,,,,,,,p307,31,female,up_down_width,2025-11-26_10h46.13.411,exp1,2023.1.0,59.99109732
,,,,,,,,,,,,,,,,4,9.3,9.766666667,10.23333333,10.7,0,0.466666667,0.066666667,0.4,1.8,10,match,36.05,335,352,369,386,0,9,9,9,9,0,,,,,,,4,0,4,0,0,5,5,10,,,,,,,,,,,,,,4,1.3043855,4,0.5,0.35,12.61502,return,2.4509998,,,,,,,,,,,,,,,,,p307,31,female,up_down_width,2025-11-26_10h46.13.411,exp1,2023.1.0,59.99109732
,,,,,,,,,,,,,,,,5,8.6,9.3,10,10.7,11.4,0.7,0.15,0.55,3.35,10,initial,36.05,310,335,361,386,411,9,9,9,9,9,,,,,,,4,0,4,0,0,6,6,40,,,,,,,,,,,,,,5,2.8707516,5,0.4,0.4,14.41717,return,0.8198066,,,,,,,,,,,,,,,,,p307,31,female,up_down_width,2025-11-26_10h46.13.411,exp1,2023.1.0,59.99109732
,,,,,,,,,,,,,,,,3,8.525,10,11.475,0,0,1.475,1.225,0.25,3.2,10,match,36.05,307,361,414,0,0,9,9,9,0,0,,,,,,,4,0,4,0,0,7,7,45,,,,,,,,,,,,,,3,0.9368856,3,0.3,0.25,9.01073,return,1.7158048,,,,,,,,,,,,,,,,,p307,31,female,up_down_width,2025-11-26_10h46.13.411,exp1,2023.1.0,59.99109732
,,,,,,,,,,,,,,,,5,7.8,8.9,10,11.1,12.2,1.1,0.55,0.55,4.95,10,initial,36.05,281,321,361,400,440,9,9,9,9,9,,,,,,,4,0,4,0,0,8,8,34,,,,,,,,,,,,,,5,1.2858593,5,0.25,0.4,14.41717,return,3.0240072,,,,,,,,,,,,,,,,,p307,31,female,up_down_width,2025-11-26_10h46.13.411,exp1,2023.1.0,59.99109732
,,,,,,,,,,,,,,,,5,7.8,8.9,10,11.1,12.2,1.1,0.85,0.25,4.65,10,initial,36.05,281,321,361,400,440,9,9,9,9,9,,,,,,,4,0,4,0,0,9,9,36,,,,,,,,,,,,,,5,1.227534,5,0.45,0.3,10.81288,return,1.4321059,,,,,,,,,,,,,,,,,p307,31,female,up_down_width,2025-11-26_10h46.13.411,exp1,2023.1.0,59.99109732
,,,,,,,,,,,,,,,,5,8.2,9.1,10,10.9,11.8,0.9,0.35,0.55,4.15,10,initial,36.05,296,328,361,393,425,9,9,9,9,9,,,,,,,4,0,4,0,0,10,10,46,,,,,,,,,,,,,,6,1.2573883,6,0.2,0.5,18.02146,return,2.1663458,,,,,,,,,,,,,,,,,p307,31,female,up_down_width,2025-11-26_10h46.13.411,exp1,2023.1.0,59.99109732
,,,,,,,,,,,,,,,,4,8.35,9.45,10.55,11.65,0,1.1,0.55,0.55,3.85,10,initial,36.05,301,341,380,420,0,9,9,9,9,0,,,,,,,4,0,4,0,0,11,11,17,,,,,,,,,,,,,,4,1.4942304,4,0.25,0.55,19.82361,return,1.4326363,,,,,,,,,,,,,,,,,p307,31,female,up_down_width,2025-11-26_10h46.13.411,exp1,2023.1.0,59.99109732
,,,,,,,,,,,,,,,,4,8.95,9.65,10.35,11.05,0,0.7,0.3,0.4,2.5,10,initial,36.05,323,348,373,398,0,9,9,9,9,0,,,,,,,4,0,4,0,0,12,12,26,,,,,,,,,,,,,,4,1.0326284,4,0.25,0.5,18.02146,return,2.3987095,,,,,,,,,,,,,,,,,p307,31,female,up_down_width,2025-11-26_10h46.13.411,exp1,2023.1.0,59.99109732
,,,,,,,,,,,,,,,,4,8.35,9.45,10.55,11.65,0,1.1,0.85,0.25,3.55,10,initial,36.05,301,341,380,420,0,9,9,9,9,0,,,,,,,4,0,4,0,0,13,13,19,,,,,,,,,,,,,,4,1.2091175,4,0.2,0.2,7.20859,return,1.3507937,,,,,,,,,,,,,,,,,p307,31,female,up_down_width,2025-11-26_10h46.13.411,exp1,2023.1.0,59.99109732
,,,,,,,,,,,,,,,,4,9.1,9.7,10.3,10.9,0,0.6,0.35,0.25,2.05,10,match,36.05,328,350,371,393,0,9,9,9,9,0,,,,,,,4,0,4,0,0,14,14,14,,,,,,,,,,,,,,4,1.3005441,4,0.45,0.2,7.20859,return,1.7278287,,,,,,,,,,,,,,,,,p307,31,female,up_down_width,2025-11-26_10h46.13.411,exp1,2023.1.0,59.99109732
,,,,,,,,,,,,,,,,4,8.9,9.633333333,10.36666667,11.1,0,0.733333333,0.483333333,0.25,2.45,10,match,36.05,321,347,374,400,0,9,9,9,9,0,,,,,,,4,0,4,0,0,15,15,3,,,,,,,,,,,,,,4,1.4162799,4,0.25,0.15,5.40644,return,2.3824214,,,,,,,,,,,,,,,,,p307,31,female,up_down_width,2025-11-26_10h46.13.411,exp1,2023.1.0,59.99109732
,,,,,,,,,,,,,,,,3,8.2,10,11.8,0,0,1.8,1.55,0.25,3.85,10,match,36.05,296,361,425,0,0,9,9,9,0,0,,,,,,,4,0,4,0,0,16,16,49,,,,,,,,,,,,,,3,1.2349676,3,0.5,0.2,7.20859,return,2.7194486,,,,,,,,,,,,,,,,,p307,31,female,up_down_width,2025-11-26_10h46.13.411,exp1,2023.1.0,59.99109732
,,,,,,,,,,,,,,,,5,8.6,9.3,10,10.7,11.4,0.7,0.3,0.4,3.2,10,initial,36.05,310,335,361,386,411,9,9,9,9,9,,,,,,,4,0,4,0,0,17,17,44,,,,,,,,,,,,,,5,1.5563328,5,0.4,0.3,10.81288,return,1.6686633,,,,,,,,,,,,,,,,,p307,31,female,up_down_width,2025-11-26_10h46.13.411,exp1,2023.1.0,59.99109732
,,,,,,,,,,,,,,,,3,7.8,10,12.2,0,0,2.2,1.65,0.55,4.95,10,match,36.05,281,361,440,0,0,9,9,9,0,0,,,,,,,4,0,4,0,0,18,18,35,,,,,,,,,,,,,,3,1.1154252,3,0.3,0.6,21.62576,return,2.0621278,,,,,,,,,,,,,,,,,p307,31,female,up_down_width,2025-11-26_10h46.13.411,exp1,2023.1.0,59.99109732
,,,,,,,,,,,,,,,,3,9.3,10,10.7,0,0,0.7,0.45,0.25,1.65,10,initial,36.05,335,361,386,0,0,9,9,9,0,0,,,,,,,4,0,4,0,0,19,19,7,,,,,,,,,,,,,,3,1.6937023,3,0.45,0.15,5.40644,return,1.4976323,,,,,,,,,,,,,,,,,p307,31,female,up_down_width,2025-11-26_10h46.13.411,exp1,2023.1.0,59.99109732
,,,,,,,,,,,,,,,,3,8.2,10,11.8,0,0,1.8,1.4,0.4,4,10,match,36.05,296,361,425,0,0,9,9,9,0,0,,,,,,,4,0,4,0,0,20,20,51,,,,,,,,,,,,,,3,1.1157613,3,0.5,0.35,12.61502,return,3.0205619,,,,,,,,,,,,,,,,,p307,31,female,up_down_width,2025-11-26_10h46.13.411,exp1,2023.1.0,59.99109732
,,,,,,,,,,,,,,,,4,9.3,9.766666667,10.23333333,10.7,0,0.466666667,0.216666667,0.25,1.65,10,match,36.05,335,352,369,386,0,9,9,9,9,0,,,,,,,4,0,4,0,0,21,21,8,,,,,,,,,,,,,,4,1.368281,4,0.4,0.2,7.20859,return,1.7920108,,,,,,,,,,,,,,,,,p307,31,female,up_down_width,2025-11-26_10h46.13.411,exp1,2023.1.0,59.99109732
,,,,,,,,,,,,,,,,4,8.9,9.633333333,10.36666667,11.1,0,0.733333333,0.183333333,0.55,2.75,10,match,36.05,321,347,374,400,0,9,9,9,9,0,,,,,,,4,0,4,0,0,22,22,1,,,,,,,,,,,,,,4,1.4248027,4,0.4,0.45,16.21932,return,1.3342022,,,,,,,,,,,,,,,,,p307,31,female,up_down_width,2025-11-26_10h46.13.411,exp1,2023.1.0,59.99109732
,,,,,,,,,,,,,,,,5,8.95,9.475,10,10.525,11.05,0.525,0.275,0.25,2.35,10,match,36.05,323,342,361,379,398,9,9,9,9,9,,,,,,,4,0,4,0,0,23,23,25,,,,,,,,,,,,,,4,2.2496905,4,0.35,0.2,7.20859,return,1.2789649,,,,,,,,,,,,,,,,,p307,31,female,up_down_width,2025-11-26_10h46.13.411,exp1,2023.1.0,59.99109732
,,,,,,,,,,,,,,,,3,8.2,10,11.8,0,0,1.8,1.25,0.55,4.15,10,match,36.05,296,361,425,0,0,9,9,9,0,0,,,,,,,4,0,4,0,0,24,24,47,,,,,,,,,,,,,,3,1.2564465,3,0.4,0.5,18.02146,return,1.0451065,,,,,,,,,,,,,,,,,p307,31,female,up_down_width,2025-11-26_10h46.13.411,exp1,2023.1.0,59.99109732
,,,,,,,,,,,,,,,,5,8.95,9.475,10,10.525,11.05,0.525,0.125,0.4,2.5,10,match,36.05,323,342,361,379,398,9,9,9,9,9,,,,,,,4,0,4,0,0,25,25,27,,,,,,,,,,,,,,4,1.2392649,4,0.3,0.4,14.41717,return,1.5578315,,,,,,,,,,,,,,,,,p307,31,female,up_down_width,2025-11-26_10h46.13.411,exp1,2023.1.0,59.99109732
,,,,,,,,,,,,,,,,3,8.6,10,11.4,0,0,1.4,0.85,0.55,3.35,10,match,36.05,310,361,411,0,0,9,9,9,0,0,,,,,,,4,0,4,0,0,26,26,41,,,,,,,,,,,,,,3,1.0233645,3,0.45,0.4,14.41717,return,2.0053076,,,,,,,,,,,,,,,,,p307,31,female,up_down_width,2025-11-26_10h46.13.411,exp1,2023.1.0,59.99109732
,,,,,,,,,,,,,,,,3,8.9,10,11.1,0,0,1.1,0.55,0.55,2.75,10,initial,36.05,321,361,400,0,0,9,9,9,0,0,,,,,,,4,0,4,0,0,27,27,0,,,,,,,,,,,,,,3,1.272939,3,0.35,0.5,18.02146,return,1.8924526,,,,,,,,,,,,,,,,,p307,31,female,up_down_width,2025-11-26_10h46.13.411,exp1,2023.1.0,59.99109732
,,,,,,,,,,,,,,,,4,8.65,9.55,10.45,11.35,0,0.9,0.35,0.55,3.25,10,initial,36.05,312,344,377,409,0,9,9,9,9,0,,,,,,,4,0,4,0,0,28,28,28,,,,,,,,,,,,,,4,1.0143716,4,0.3,0.6,21.62576,return,2.3008692,,,,,,,,,,,,,,,,,p307,31,female,up_down_width,2025-11-26_10h46.13.411,exp1,2023.1.0,59.99109732
,,,,,,,,,,,,,,,,3,9.1,10,10.9,0,0,0.9,0.5,0.4,2.2,10,initial,36.05,328,361,393,0,0,9,9,9,0,0,,,,,,,4,0,4,0,0,29,29,15,,,,,,,,,,,,,,3,1.0658003,3,0.5,0.35,12.61502,return,1.2632256,,,,,,,,,,,,,,,,,p307,31,female,up_down_width,2025-11-26_10h46.13.411,exp1,2023.1.0,59.99109732
,,,,,,,,,,,,,,,,3,7.8,10,12.2,0,0,2.2,1.8,0.4,4.8,10,match,36.05,281,361,440,0,0,9,9,9,0,0,,,,,,,4,0,4,0,0,30,30,39,,,,,,,,,,,,,,3,1.1065528,3,0.3,0.3,10.81288,return,1.3185096,,,,,,,,,,,,,,,,,p307,31,female,up_down_width,2025-11-26_10h46.13.411,exp1,2023.1.0,59.99109732
,,,,,,,,,,,,,,,,4,8.95,9.65,10.35,11.05,0,0.7,0.45,0.25,2.35,10,initial,36.05,323,348,373,398,0,9,9,9,9,0,,,,,,,4,0,4,0,0,31,31,24,,,,,,,,,,,,,,4,1.1943506,4,0.4,0.2,7.20859,return,1.2248531,,,,,,,,,,,,,,,,,p307,31,female,up_down_width,2025-11-26_10h46.13.411,exp1,2023.1.0,59.99109732
,,,,,,,,,,,,,,,,3,8.9,10,11.1,0,0,1.1,0.7,0.4,2.6,10,initial,36.05,321,361,400,0,0,9,9,9,0,0,,,,,,,4,0,4,0,0,32,32,4,,,,,,,,,,,,,,3,1.0101146,3,0.35,0.3,10.81288,return,1.2085491,,,,,,,,,,,,,,,,,p307,31,female,up_down_width,2025-11-26_10h46.13.411,exp1,2023.1.0,59.99109732
,,,,,,,,,,,,,,,,5,8.35,9.175,10,10.825,11.65,0.825,0.275,0.55,3.85,10,match,36.05,301,331,361,390,420,9,9,9,9,9,,,,,,,4,0,4,0,0,33,33,18,,,,,,,,,,,,,,5,1.1078999,5,0.25,0.45,16.21932,return,1.3831165,,,,,,,,,,,,,,,,,p307,31,female,up_down_width,2025-11-26_10h46.13.411,exp1,2023.1.0,59.99109732
,,,,,,,,,,,,,,,,3,9.3,10,10.7,0,0,0.7,0.15,0.55,1.95,10,initial,36.05,335,361,386,0,0,9,9,9,0,0,,,,,,,4,0,4,0,0,34,34,6,,,,,,,,,,,,,,2,1.1180694,2,0.3,0.45,16.21932,return,1.3122204,,,,,,,,,,,,,,,,,p307,31,female,up_down_width,2025-11-26_10h46.13.411,exp1,2023.1.0,59.99109732
,,,,,,,,,,,,,,,,3,9.1,10,10.9,0,0,0.9,0.65,0.25,2.05,10,initial,36.05,328,361,393,0,0,9,9,9,0,0,,,,,,,4,0,4,0,0,35,35,13,,,,,,,,,,,,,,3,1.6141043,3,0.5,0.25,9.01073,return,1.8519312,,,,,,,,,,,,,,,,,p307,31,female,up_down_width,2025-11-26_10h46.13.411,exp1,2023.1.0,59.99109732
,,,,,,,,,,,,,,,,5,8.35,9.175,10,10.825,11.65,0.825,0.575,0.25,3.55,10,match,36.05,301,331,361,390,420,9,9,9,9,9,,,,,,,4,0,4,0,0,36,36,20,,,,,,,,,,,,,,5,1.087496,5,0.55,0.15,5.40644,return,2.6906623,,,,,,,,,,,,,,,,,p307,31,female,up_down_width,2025-11-26_10h46.13.411,exp1,2023.1.0,59.99109732
,,,,,,,,,,,,,,,,3,9.3,10,10.7,0,0,0.7,0.3,0.4,1.8,10,initial,36.05,335,361,386,0,0,9,9,9,0,0,,,,,,,4,0,4,0,0,37,37,9,,,,,,,,,,,,,,3,1.7606285,3,0.4,0.3,10.81288,return,1.1447836,,,,,,,,,,,,,,,,,p307,31,female,up_down_width,2025-11-26_10h46.13.411,exp1,2023.1.0,59.99109732
,,,,,,,,,,,,,,,,5,8.2,9.1,10,10.9,11.8,0.9,0.65,0.25,3.85,10,initial,36.05,296,328,361,393,425,9,9,9,9,9,,,,,,,4,0,4,0,0,38,38,48,,,,,,,,,,,,,,6,1.1129486,6,0.45,0.2,7.20859,return,1.2755039,,,,,,,,,,,,,,,,,p307,31,female,up_down_width,2025-11-26_10h46.13.411,exp1,2023.1.0,59.99109732
,,,,,,,,,,,,,,,,5,8.65,9.325,10,10.675,11.35,0.675,0.275,0.4,3.1,10,match,36.05,312,336,361,385,409,9,9,9,9,9,,,,,,,4,0,4,0,0,39,39,33,,,,,,,,,,,,,,6,1.2913123,6,0.45,0.35,12.61502,return,1.1108821,,,,,,,,,,,,,,,,,p307,31,female,up_down_width,2025-11-26_10h46.13.411,exp1,2023.1.0,59.99109732
,,,,,,,,,,,,,,,,3,8.6,10,11.4,0,0,1.4,1.15,0.25,3.05,10,match,36.05,310,361,411,0,0,9,9,9,0,0,,,,,,,4,0,4,0,0,40,40,43,,,,,,,,,,,,,,3,1.3713287,3,0.3,0.15,5.40644,return,1.6346364,,,,,,,,,,,,,,,,,p307,31,female,up_down_width,2025-11-26_10h46.13.411,exp1,2023.1.0,59.99109732
,,,,,,,,,,,,,,,,5,8.6,9.3,10,10.7,11.4,0.7,0.45,0.25,3.05,10,initial,36.05,310,335,361,386,411,9,9,9,9,9,,,,,,,4,0,4,0,0,41,41,42,,,,,,,,,,,,,,5,1.1634182,5,0.2,0.2,7.20859,return,0.69944,,,,,,,,,,,,,,,,,p307,31,female,up_down_width,2025-11-26_10h46.13.411,exp1,2023.1.0,59.99109732
,,,,,,,,,,,,,,,,3,7.8,10,12.2,0,0,2.2,1.95,0.25,4.65,10,match,36.05,281,361,440,0,0,9,9,9,0,0,,,,,,,4,0,4,0,0,42,42,37,,,,,,,,,,,,,,3,2.1119139,3,0.25,0.2,7.20859,return,1.1947572,,,,,,,,,,,,,,,,,p307,31,female,up_down_width,2025-11-26_10h46.13.411,exp1,2023.1.0,59.99109732
,,,,,,,,,,,,,,,,4,8.65,9.55,10.45,11.35,0,0.9,0.5,0.4,3.1,10,initial,36.05,312,344,377,409,0,9,9,9,9,0,,,,,,,4,0,4,0,0,43,43,32,,,,,,,,,,,,,,4,0.9152197,4,0.55,0.3,10.81288,return,2.013533,,,,,,,,,,,,,,,,,p307,31,female,up_down_width,2025-11-26_10h46.13.411,exp1,2023.1.0,59.99109732
,,,,,,,,,,,,,,,,5,8.2,9.1,10,10.9,11.8,0.9,0.5,0.4,4,10,initial,36.05,296,328,361,393,425,9,9,9,9,9,,,,,,,4,0,4,0,0,44,44,50,,,,,,,,,,,,,,5,1.651747,5,0.2,0.3,10.81288,return,1.3612782,,,,,,,,,,,,,,,,,p307,31,female,up_down_width,2025-11-26_10h46.13.411,exp1,2023.1.0,59.99109732
,,,,,,,,,,,,,,,,5,8.65,9.325,10,10.675,11.35,0.675,0.125,0.55,3.25,10,match,36.05,312,336,361,385,409,9,9,9,9,9,,,,,,,4,0,4,0,0,45,45,29,,,,,,,,,,,,,,5,1.2400413,5,0.3,0.5,18.02146,return,1.5085704,,,,,,,,,,,,,,,,,p307,31,female,up_down_width,2025-11-26_10h46.13.411,exp1,2023.1.0,59.99109732
,,,,,,,,,,,,,,,,3,8.9,10,11.1,0,0,1.1,0.85,0.25,2.45,10,initial,36.05,321,361,400,0,0,9,9,9,0,0,,,,,,,4,0,4,0,0,46,46,2,,,,,,,,,,,,,,3,1.1414362,3,0.25,0.15,5.40644,return,0.9666893,,,,,,,,,,,,,,,,,p307,31,female,up_down_width,2025-11-26_10h46.13.411,exp1,2023.1.0,59.99109732
,,,,,,,,,,,,,,,,4,9.1,9.7,10.3,10.9,0,0.6,0.2,0.4,2.2,10,match,36.05,328,350,371,393,0,9,9,9,9,0,,,,,,,4,0,4,0,0,47,47,16,,,,,,,,,,,,,,4,1.4093803,4,0.55,0.35,12.61502,return,1.7842934,,,,,,,,,,,,,,,,,p307,31,female,up_down_width,2025-11-26_10h46.13.411,exp1,2023.1.0,59.99109732
,,,,,,,,,,,,,,,,5,8.275,9.1375,10,10.8625,11.725,0.8625,0.6125,0.25,3.7,10,match,36.05,298,329,361,392,423,9,9,9,9,9,,,,,,,4,0,4,0,0,48,48,22,,,,,,,,,,,,,,5,1.3486036,5,0.4,0.2,7.20859,return,2.1575508,,,,,,,,,,,,,,,,,p307,31,female,up_down_width,2025-11-26_10h46.13.411,exp1,2023.1.0,59.99109732
,,,,,,,,,,,,,,,,4,9.1,9.7,10.3,10.9,0,0.6,0.05,0.55,2.35,10,match,36.05,328,350,371,393,0,9,9,9,9,0,,,,,,,4,0,4,0,0,49,49,12,,,,,,,,,,,,,,3,1.2140279,3,0.4,0.6,21.62576,return,2.0286777,,,,,,,,,,,,,,,,,p307,31,female,up_down_width,2025-11-26_10h46.13.411,exp1,2023.1.0,59.99109732
,,,,,,,,,,,,,,,,3,9.1,10,10.9,0,0,0.9,0.35,0.55,2.35,10,initial,36.05,328,361,393,0,0,9,9,9,0,0,,,,,,,4,0,4,0,0,50,50,11,,,,,,,,,,,,,,3,1.2245319,3,0.2,0.55,19.82361,return,2.4877804,,,,,,,,,,,,,,,,,p307,31,female,up_down_width,2025-11-26_10h46.13.411,exp1,2023.1.0,59.99109732
,,,,,,,,,,,,,,,,4,8.35,9.45,10.55,11.65,0,1.1,0.7,0.4,3.7,10,initial,36.05,301,341,380,420,0,9,9,9,9,0,,,,,,,4,0,4,0,0,51,51,21,,,,,,,,,,,,,,4,1.2444657,4,0.35,0.35,12.61502,return,1.049392,,,,,,,,,,,,,,,,,p307,31,female,up_down_width,2025-11-26_10h46.13.411,exp1,2023.1.0,59.99109732
,,,,,,,,,,,,,,,,,,,,,,,,,,,,,,,,,,,,,,,,,,,,,4,0,4,0,,,,,,,,,,,,,,,,,,,,,,,,,,,,2128.30763,2128.30763,2128.30763,,,,,,,,,,,,p307,31,female,up_down_width,2025-11-26_10h46.13.411,exp1,2023.1.0,59.99109732
,,,,,,,,,,,,,,,,4,9.1,9.7,10.3,10.9,0,0.6,0.2,0.4,2.2,10,match,36.05,328,350,371,393,0,9,9,9,9,0,,,,,,,5,0,5,0,0,0,0,16,,,,,,,,,,,,,,5,1.3554979,5,0.45,0.35,12.61502,return,1.3161442,,,,,,,,,,,,,,,,,p307,31,female,up_down_width,2025-11-26_10h46.13.411,exp1,2023.1.0,59.99109732
,,,,,,,,,,,,,,,,4,8.35,9.45,10.55,11.65,0,1.1,0.7,0.4,3.7,10,initial,36.05,301,341,380,420,0,9,9,9,9,0,,,,,,,5,0,5,0,0,1,1,21,,,,,,,,,,,,,,4,1.216313,4,0.35,0.35,12.61502,return,0.6714555,,,,,,,,,,,,,,,,,p307,31,female,up_down_width,2025-11-26_10h46.13.411,exp1,2023.1.0,59.99109732
,,,,,,,,,,,,,,,,5,7.8,8.9,10,11.1,12.2,1.1,0.7,0.4,4.8,10,initial,36.05,281,321,361,400,440,9,9,9,9,9,,,,,,,5,0,5,0,0,2,2,38,,,,,,,,,,,,,,6,1.1752202,6,0.35,0.35,12.61502,return,1.1907135,,,,,,,,,,,,,,,,,p307,31,female,up_down_width,2025-11-26_10h46.13.411,exp1,2023.1.0,59.99109732
,,,,,,,,,,,,,,,,3,8.2,10,11.8,0,0,1.8,1.55,0.25,3.85,10,match,36.05,296,361,425,0,0,9,9,9,0,0,,,,,,,5,0,5,0,0,3,3,49,,,,,,,,,,,,,,3,1.2410084,3,0.45,0.2,7.20859,return,1.46188,,,,,,,,,,,,,,,,,p307,31,female,up_down_width,2025-11-26_10h46.13.411,exp1,2023.1.0,59.99109732
,,,,,,,,,,,,,,,,5,8.65,9.325,10,10.675,11.35,0.675,0.125,0.55,3.25,10,match,36.05,312,336,361,385,409,9,9,9,9,9,,,,,,,5,0,5,0,0,4,4,29,,,,,,,,,,,,,,5,1.0812504,5,0.35,0.55,19.82361,return,1.2131559,,,,,,,,,,,,,,,,,p307,31,female,up_down_width,2025-11-26_10h46.13.411,exp1,2023.1.0,59.99109732
,,,,,,,,,,,,,,,,5,8.2,9.1,10,10.9,11.8,0.9,0.5,0.4,4,10,initial,36.05,296,328,361,393,425,9,9,9,9,9,,,,,,,5,0,5,0,0,5,5,50,,,,,,,,,,,,,,5,1.018058,5,0.45,0.35,12.61502,return,1.1186672,,,,,,,,,,,,,,,,,p307,31,female,up_down_width,2025-11-26_10h46.13.411,exp1,2023.1.0,59.99109732
,,,,,,,,,,,,,,,,3,9.3,10,10.7,0,0,0.7,0.45,0.25,1.65,10,initial,36.05,335,361,386,0,0,9,9,9,0,0,,,,,,,5,0,5,0,0,6,6,7,,,,,,,,,,,,,,3,1.077307,3,0.35,0.2,7.20859,return,1.6259524,,,,,,,,,,,,,,,,,p307,31,female,up_down_width,2025-11-26_10h46.13.411,exp1,2023.1.0,59.99109732
,,,,,,,,,,,,,,,,5,8.2,9.1,10,10.9,11.8,0.9,0.65,0.25,3.85,10,initial,36.05,296,328,361,393,425,9,9,9,9,9,,,,,,,5,0,5,0,0,7,7,48,,,,,,,,,,,,,,5,1.0020414,5,0.3,0.2,7.20859,return,1.0402149,,,,,,,,,,,,,,,,,p307,31,female,up_down_width,2025-11-26_10h46.13.411,exp1,2023.1.0,59.99109732
,,,,,,,,,,,,,,,,5,8.2,9.1,10,10.9,11.8,0.9,0.35,0.55,4.15,10,initial,36.05,296,328,361,393,425,9,9,9,9,9,,,,,,,5,0,5,0,0,8,8,46,,,,,,,,,,,,,,6,1.0058902,6,0.25,0.4,14.41717,return,1.379908,,,,,,,,,,,,,,,,,p307,31,female,up_down_width,2025-11-26_10h46.13.411,exp1,2023.1.0,59.99109732
,,,,,,,,,,,,,,,,4,8.95,9.65,10.35,11.05,0,0.7,0.3,0.4,2.5,10,initial,36.05,323,348,373,398,0,9,9,9,9,0,,,,,,,5,0,5,0,0,9,9,26,,,,,,,,,,,,,,5,1.3127299,5,0.55,0.3,10.81288,return,2.266013,,,,,,,,,,,,,,,,,p307,31,female,up_down_width,2025-11-26_10h46.13.411,exp1,2023.1.0,59.99109732
,,,,,,,,,,,,,,,,3,8.6,10,11.4,0,0,1.4,1.15,0.25,3.05,10,match,36.05,310,361,411,0,0,9,9,9,0,0,,,,,,,5,0,5,0,0,10,10,43,,,,,,,,,,,,,,3,1.4440517,3,0.55,0.2,7.20859,return,2.0240562,,,,,,,,,,,,,,,,,p307,31,female,up_down_width,2025-11-26_10h46.13.411,exp1,2023.1.0,59.99109732
,,,,,,,,,,,,,,,,4,8.35,9.45,10.55,11.65,0,1.1,0.85,0.25,3.55,10,initial,36.05,301,341,380,420,0,9,9,9,9,0,,,,,,,5,0,5,0,0,11,11,19,,,,,,,,,,,,,,4,1.8805135,4,0.35,0.2,7.20859,return,2.2368178,,,,,,,,,,,,,,,,,p307,31,female,up_down_width,2025-11-26_10h46.13.411,exp1,2023.1.0,59.99109732
,,,,,,,,,,,,,,,,4,8.35,9.45,10.55,11.65,0,1.1,0.55,0.55,3.85,10,initial,36.05,301,341,380,420,0,9,9,9,9,0,,,,,,,5,0,5,0,0,12,12,17,,,,,,,,,,,,,,5,2.0969996,5,0.55,0.4,14.41717,return,1.5472553,,,,,,,,,,,,,,,,,p307,31,female,up_down_width,2025-11-26_10h46.13.411,exp1,2023.1.0,59.99109732
,,,,,,,,,,,,,,,,3,7.8,10,12.2,0,0,2.2,1.8,0.4,4.8,10,match,36.05,281,361,440,0,0,9,9,9,0,0,,,,,,,5,0,5,0,0,13,13,39,,,,,,,,,,,,,,3,1.1156717,3,0.3,0.4,14.41717,return,1.038385,,,,,,,,,,,,,,,,,p307,31,female,up_down_width,2025-11-26_10h46.13.411,exp1,2023.1.0,59.99109732
,,,,,,,,,,,,,,,,3,9.3,10,10.7,0,0,0.7,0.15,0.55,1.95,10,initial,36.05,335,361,386,0,0,9,9,9,0,0,,,,,,,5,0,5,0,0,14,14,6,,,,,,,,,,,,,,3,1.0505667,3,0.5,0.5,18.02146,return,0.8466555,,,,,,,,,,,,,,,,,p307,31,female,up_down_width,2025-11-26_10h46.13.411,exp1,2023.1.0,59.99109732
,,,,,,,,,,,,,,,,4,9.1,9.7,10.3,10.9,0,0.6,0.05,0.55,2.35,10,match,36.05,328,350,371,393,0,9,9,9,9,0,,,,,,,5,0,5,0,0,15,15,12,,,,,,,,,,,,,,4,1.0035796,4,0.2,0.55,19.82361,return,1.8094781,,,,,,,,,,,,,,,,,p307,31,female,up_down_width,2025-11-26_10h46.13.411,exp1,2023.1.0,59.99109732
,,,,,,,,,,,,,,,,5,8.6,9.3,10,10.7,11.4,0.7,0.3,0.4,3.2,10,initial,36.05,310,335,361,386,411,9,9,9,9,9,,,,,,,5,0,5,0,0,16,16,44,,,,,,,,,,,,,,6,1.2225397,6,0.55,0.3,10.81288,return,1.8281743,,,,,,,,,,,,,,,,,p307,31,female,up_down_width,2025-11-26_10h46.13.411,exp1,2023.1.0,59.99109732
,,,,,,,,,,,,,,,,5,8.35,9.175,10,10.825,11.65,0.825,0.275,0.55,3.85,10,match,36.05,301,331,361,390,420,9,9,9,9,9,,,,,,,5,0,5,0,0,17,17,18,,,,,,,,,,,,,,5,0.962898,5,0.25,0.55,19.82361,return,1.6585848,,,,,,,,,,,,,,,,,p307,31,female,up_down_width,2025-11-26_10h46.13.411,exp1,2023.1.0,59.99109732
,,,,,,,,,,,,,,,,5,8.65,9.325,10,10.675,11.35,0.675,0.275,0.4,3.1,10,match,36.05,312,336,361,385,409,9,9,9,9,9,,,,,,,5,0,5,0,0,18,18,33,,,,,,,,,,,,,,6,2.9488404,6,0.5,0.3,10.81288,return,1.8392275,,,,,,,,,,,,,,,,,p307,31,female,up_down_width,2025-11-26_10h46.13.411,exp1,2023.1.0,59.99109732
,,,,,,,,,,,,,,,,5,7.8,8.9,10,11.1,12.2,1.1,0.85,0.25,4.65,10,initial,36.05,281,321,361,400,440,9,9,9,9,9,,,,,,,5,0,5,0,0,19,19,36,,,,,,,,,,,,,,6,2.4918212,6,0.5,0.15,5.40644,return,2.1826873,,,,,,,,,,,,,,,,,p307,31,female,up_down_width,2025-11-26_10h46.13.411,exp1,2023.1.0,59.99109732
,,,,,,,,,,,,,,,,3,8.525,10,11.475,0,0,1.475,1.225,0.25,3.2,10,match,36.05,307,361,414,0,0,9,9,9,0,0,,,,,,,5,0,5,0,0,20,20,45,,,,,,,,,,,,,,3,1.4340101,3,0.35,0.2,7.20859,return,1.2632681,,,,,,,,,,,,,,,,,p307,31,female,up_down_width,2025-11-26_10h46.13.411,exp1,2023.1.0,59.99109732
,,,,,,,,,,,,,,,,3,7.8,10,12.2,0,0,2.2,1.95,0.25,4.65,10,match,36.05,281,361,440,0,0,9,9,9,0,0,,,,,,,5,0,5,0,0,21,21,37,,,,,,,,,,,,,,3,1.3381479,3,0.5,0.2,7.20859,return,1.5861861,,,,,,,,,,,,,,,,,p307,31,female,up_down_width,2025-11-26_10h46.13.411,exp1,2023.1.0,59.99109732
,,,,,,,,,,,,,,,,3,8.6,10,11.4,0,0,1.4,0.85,0.55,3.35,10,match,36.05,310,361,411,0,0,9,9,9,0,0,,,,,,,5,0,5,0,0,22,22,41,,,,,,,,,,,,,,3,1.2326736,3,0.2,0.6,21.62576,return,1.8374321,,,,,,,,,,,,,,,,,p307,31,female,up_down_width,2025-11-26_10h46.13.411,exp1,2023.1.0,59.99109732
,,,,,,,,,,,,,,,,5,7.8,8.9,10,11.1,12.2,1.1,0.55,0.55,4.95,10,initial,36.05,281,321,361,400,440,9,9,9,9,9,,,,,,,5,0,5,0,0,23,23,34,,,,,,,,,,,,,,6,1.249075,6,0.35,0.55,19.82361,return,2.0633053,,,,,,,,,,,,,,,,,p307,31,female,up_down_width,2025-11-26_10h46.13.411,exp1,2023.1.0,59.99109732
,,,,,,,,,,,,,,,,3,7.8,10,12.2,0,0,2.2,1.65,0.55,4.95,10,match,36.05,281,361,440,0,0,9,9,9,0,0,,,,,,,5,0,5,0,0,24,24,35,,,,,,,,,,,,,,3,2.0345964,3,0.25,0.55,19.82361,return,2.288037,,,,,,,,,,,,,,,,,p307,31,female,up_down_width,2025-11-26_10h46.13.411,exp1,2023.1.0,59.99109732
,,,,,,,,,,,,,,,,3,8.2,10,11.8,0,0,1.8,1.25,0.55,4.15,10,match,36.05,296,361,425,0,0,9,9,9,0,0,,,,,,,5,0,5,0,0,25,25,47,,,,,,,,,,,,,,3,1.0428982,3,0.55,0.6,21.62576,return,1.5274027,,,,,,,,,,,,,,,,,p307,31,female,up_down_width,2025-11-26_10h46.13.411,exp1,2023.1.0,59.99109732
,,,,,,,,,,,,,,,,4,8.95,9.65,10.35,11.05,0,0.7,0.15,0.55,2.65,10,initial,36.05,323,348,373,398,0,9,9,9,9,0,,,,,,,5,0,5,0,0,26,26,23,,,,,,,,,,,,,,3,1.2617933,3,0.2,0.6,21.62576,return,2.1229293,,,,,,,,,,,,,,,,,p307,31,female,up_down_width,2025-11-26_10h46.13.411,exp1,2023.1.0,59.99109732
,,,,,,,,,,,,,,,,5,8.65,9.325,10,10.675,11.35,0.675,0.425,0.25,2.95,10,match,36.05,312,336,361,385,409,9,9,9,9,9,,,,,,,5,0,5,0,0,27,27,31,,,,,,,,,,,,,,4,1.317714,4,0.5,0.15,5.40644,return,2.512287,,,,,,,,,,,,,,,,,p307,31,female,up_down_width,2025-11-26_10h46.13.411,exp1,2023.1.0,59.99109732
,,,,,,,,,,,,,,,,4,8.9,9.633333333,10.36666667,11.1,0,0.733333333,0.483333333,0.25,2.45,10,match,36.05,321,347,374,400,0,9,9,9,9,0,,,,,,,5,0,5,0,0,28,28,3,,,,,,,,,,,,,,4,1.1241048,4,0.4,0.15,5.40644,return,1.5426629,,,,,,,,,,,,,,,,,p307,31,female,up_down_width,2025-11-26_10h46.13.411,exp1,2023.1.0,59.99109732
,,,,,,,,,,,,,,,,4,8.825,9.608333333,10.39166667,11.175,0,0.783333333,0.533333333,0.25,2.6,10,match,36.05,318,346,375,403,0,9,9,9,9,0,,,,,,,5,0,5,0,0,29,29,5,,,,,,,,,,,,,,4,0.6018425,4,0.4,0.15,5.40644,return,1.5364899,,,,,,,,,,,,,,,,,p307,31,female,up_down_width,2025-11-26_10h46.13.411,exp1,2023.1.0,59.99109732
,,,,,,,,,,,,,,,,3,8.9,10,11.1,0,0,1.1,0.55,0.55,2.75,10,initial,36.05,321,361,400,0,0,9,9,9,0,0,,,,,,,5,0,5,0,0,30,30,0,,,,,,,,,,,,,,3,1.8442887,3,0.3,0.55,19.82361,return,1.4978721,,,,,,,,,,,,,,,,,p307,31,female,up_down_width,2025-11-26_10h46.13.411,exp1,2023.1.0,59.99109732
,,,,,,,,,,,,,,,,3,9.1,10,10.9,0,0,0.9,0.65,0.25,2.05,10,initial,36.05,328,361,393,0,0,9,9,9,0,0,,,,,,,5,0,5,0,0,31,31,13,,,,,,,,,,,,,,3,1.2657036,3,0.5,0.15,5.40644,return,1.5821504,,,,,,,,,,,,,,,,,p307,31,female,up_down_width,2025-11-26_10h46.13.411,exp1,2023.1.0,59.99109732
,,,,,,,,,,,,,,,,5,8.6,9.3,10,10.7,11.4,0.7,0.15,0.55,3.35,10,initial,36.05,310,335,361,386,411,9,9,9,9,9,,,,,,,5,0,5,0,0,32,32,40,,,,,,,,,,,,,,5,1.5846499,5,0.5,0.45,16.21932,return,0.9441183,,,,,,,,,,,,,,,,,p307,31,female,up_down_width,2025-11-26_10h46.13.411,exp1,2023.1.0,59.99109732
,,,,,,,,,,,,,,,,4,9.3,9.766666667,10.23333333,10.7,0,0.466666667,0.066666667,0.4,1.8,10,match,36.05,335,352,369,386,0,9,9,9,9,0,,,,,,,5,0,5,0,0,33,33,10,,,,,,,,,,,,,,4,1.5566114,4,0.2,0.3,10.81288,return,1.4772,,,,,,,,,,,,,,,,,p307,31,female,up_down_width,2025-11-26_10h46.13.411,exp1,2023.1.0,59.99109732
,,,,,,,,,,,,,,,,3,9.3,10,10.7,0,0,0.7,0.3,0.4,1.8,10,initial,36.05,335,361,386,0,0,9,9,9,0,0,,,,,,,5,0,5,0,0,34,34,9,,,,,,,,,,,,,,3,1.1379123,3,0.3,0.35,12.61502,return,0.7561971,,,,,,,,,,,,,,,,,p307,31,female,up_down_width,2025-11-26_10h46.13.411,exp1,2023.1.0,59.99109732
,,,,,,,,,,,,,,,,3,8.9,10,11.1,0,0,1.1,0.85,0.25,2.45,10,initial,36.05,321,361,400,0,0,9,9,9,0,0,,,,,,,5,0,5,0,0,35,35,2,,,,,,,,,,,,,,3,1.3667228,3,0.5,0.25,9.01073,return,1.5987713,,,,,,,,,,,,,,,,,p307,31,female,up_down_width,2025-11-26_10h46.13.411,exp1,2023.1.0,59.99109732
,,,,,,,,,,,,,,,,4,8.9,9.633333333,10.36666667,11.1,0,0.733333333,0.183333333,0.55,2.75,10,match,36.05,321,347,374,400,0,9,9,9,9,0,,,,,,,5,0,5,0,0,36,36,1,,,,,,,,,,,,,,4,1.513416,4,0.2,0.45,16.21932,return,2.1716394,,,,,,,,,,,,,,,,,p307,31,female,up_down_width,2025-11-26_10h46.13.411,exp1,2023.1.0,59.99109732
,,,,,,,,,,,,,,,,3,9.1,10,10.9,0,0,0.9,0.35,0.55,2.35,10,initial,36.05,328,361,393,0,0,9,9,9,0,0,,,,,,,5,0,5,0,0,37,37,11,,,,,,,,,,,,,,3,1.2236529,3,0.3,0.45,16.21932,return,1.3341691,,,,,,,,,,,,,,,,,p307,31,female,up_down_width,2025-11-26_10h46.13.411,exp1,2023.1.0,59.99109732
,,,,,,,,,,,,,,,,4,8.65,9.55,10.45,11.35,0,0.9,0.65,0.25,2.95,10,initial,36.05,312,344,377,409,0,9,9,9,9,0,,,,,,,5,0,5,0,0,38,38,30,,,,,,,,,,,,,,5,1.3046302,5,0.5,0.2,7.20859,return,2.0993359,,,,,,,,,,,,,,,,,p307,31,female,up_down_width,2025-11-26_10h46.13.411,exp1,2023.1.0,59.99109732
,,,,,,,,,,,,,,,,4,8.95,9.65,10.35,11.05,0,0.7,0.45,0.25,2.35,10,initial,36.05,323,348,373,398,0,9,9,9,9,0,,,,,,,5,0,5,0,0,39,39,24,,,,,,,,,,,,,,4,1.1851213,4,0.55,0.2,7.20859,return,2.2252646,,,,,,,,,,,,,,,,,p307,31,female,up_down_width,2025-11-26_10h46.13.411,exp1,2023.1.0,59.99109732
,,,,,,,,,,,,,,,,3,9.1,10,10.9,0,0,0.9,0.5,0.4,2.2,10,initial,36.05,328,361,393,0,0,9,9,9,0,0,,,,,,,5,0,5,0,0,40,40,15,,,,,,,,,,,,,,3,1.1149833,3,0.45,0.3,10.81288,return,1.182123,,,,,,,,,,,,,,,,,p307,31,female,up_down_width,2025-11-26_10h46.13.411,exp1,2023.1.0,59.99109732
,,,,,,,,,,,,,,,,4,9.3,9.766666667,10.23333333,10.7,0,0.466666667,0.216666667,0.25,1.65,10,match,36.05,335,352,369,386,0,9,9,9,9,0,,,,,,,5,0,5,0,0,41,41,8,,,,,,,,,,,,,,5,1.0261799,5,0.35,0.15,5.40644,return,1.4637601,,,,,,,,,,,,,,,,,p307,31,female,up_down_width,2025-11-26_10h46.13.411,exp1,2023.1.0,59.99109732
,,,,,,,,,,,,,,,,3,8.9,10,11.1,0,0,1.1,0.7,0.4,2.6,10,initial,36.05,321,361,400,0,0,9,9,9,0,0,,,,,,,5,0,5,0,0,42,42,4,,,,,,,,,,,,,,3,1.7108902,3,0.3,0.3,10.81288,return,0.7288842,,,,,,,,,,,,,,,,,p307,31,female,up_down_width,2025-11-26_10h46.13.411,exp1,2023.1.0,59.99109732
,,,,,,,,,,,,,,,,4,9.1,9.7,10.3,10.9,0,0.6,0.35,0.25,2.05,10,match,36.05,328,350,371,393,0,9,9,9,9,0,,,,,,,5,0,5,0,0,43,43,14,,,,,,,,,,,,,,4,1.1655805,4,0.35,0.2,7.20859,return,1.9175674,,,,,,,,,,,,,,,,,p307,31,female,up_down_width,2025-11-26_10h46.13.411,exp1,2023.1.0,59.99109732
,,,,,,,,,,,,,,,,5,8.95,9.475,10,10.525,11.05,0.525,0.125,0.4,2.5,10,match,36.05,323,342,361,379,398,9,9,9,9,9,,,,,,,5,0,5,0,0,44,44,27,,,,,,,,,,,,,,6,1.2845303,6,0.3,0.25,9.01073,return,1.0227629,,,,,,,,,,,,,,,,,p307,31,female,up_down_width,2025-11-26_10h46.13.411,exp1,2023.1.0,59.99109732
,,,,,,,,,,,,,,,,5,8.35,9.175,10,10.825,11.65,0.825,0.575,0.25,3.55,10,match,36.05,301,331,361,390,420,9,9,9,9,9,,,,,,,5,0,5,0,0,45,45,20,,,,,,,,,,,,,,5,1.4235201,5,0.2,0.2,7.20859,return,0.7576717,,,,,,,,,,,,,,,,,p307,31,female,up_down_width,2025-11-26_10h46.13.411,exp1,2023.1.0,59.99109732
,,,,,,,,,,,,,,,,4,8.65,9.55,10.45,11.35,0,0.9,0.5,0.4,3.1,10,initial,36.05,312,344,377,409,0,9,9,9,9,0,,,,,,,5,0,5,0,0,46,46,32,,,,,,,,,,,,,,5,1.7321571,5,0.5,0.3,10.81288,return,1.5177138,,,,,,,,,,,,,,,,,p307,31,female,up_down_width,2025-11-26_10h46.13.411,exp1,2023.1.0,59.99109732
,,,,,,,,,,,,,,,,4,8.65,9.55,10.45,11.35,0,0.9,0.35,0.55,3.25,10,initial,36.05,312,344,377,409,0,9,9,9,9,0,,,,,,,5,0,5,0,0,47,47,28,,,,,,,,,,,,,,4,1.7594123,4,0.5,0.4,14.41717,return,1.2550754,,,,,,,,,,,,,,,,,p307,31,female,up_down_width,2025-11-26_10h46.13.411,exp1,2023.1.0,59.99109732
,,,,,,,,,,,,,,,,5,8.95,9.475,10,10.525,11.05,0.525,0.275,0.25,2.35,10,match,36.05,323,342,361,379,398,9,9,9,9,9,,,,,,,5,0,5,0,0,48,48,25,,,,,,,,,,,,,,5,1.1225913,5,0.55,0.2,7.20859,return,2.019907,,,,,,,,,,,,,,,,,p307,31,female,up_down_width,2025-11-26_10h46.13.411,exp1,2023.1.0,59.99109732
,,,,,,,,,,,,,,,,5,8.6,9.3,10,10.7,11.4,0.7,0.45,0.25,3.05,10,initial,36.05,310,335,361,386,411,9,9,9,9,9,,,,,,,5,0,5,0,0,49,49,42,,,,,,,,,,,,,,6,1.7181222,6,0.45,0.2,7.20859,return,1.712304,,,,,,,,,,,,,,,,,p307,31,female,up_down_width,2025-11-26_10h46.13.411,exp1,2023.1.0,59.99109732
,,,,,,,,,,,,,,,,3,8.2,10,11.8,0,0,1.8,1.4,0.4,4,10,match,36.05,296,361,425,0,0,9,9,9,0,0,,,,,,,5,0,5,0,0,50,50,51,,,,,,,,,,,,,,3,1.7654365,3,0.5,0.45,16.21932,return,1.0534253,,,,,,,,,,,,,,,,,p307,31,female,up_down_width,2025-11-26_10h46.13.411,exp1,2023.1.0,59.99109732
,,,,,,,,,,,,,,,,5,8.275,9.1375,10,10.8625,11.725,0.8625,0.6125,0.25,3.7,10,match,36.05,298,329,361,392,423,9,9,9,9,9,,,,,,,5,0,5,0,0,51,51,22,,,,,,,,,,,,,,5,1.2968173,5,0.25,0.2,7.20859,return,0.9712105,,,,,,,,,,,,,,,,,p307,31,female,up_down_width,2025-11-26_10h46.13.411,exp1,2023.1.0,59.99109732
,,,,,,,,,,,,,,,,,,,,,,,,,,,,,,,,,,,,,,,,,,,,,5,0,5,0,,,,,,,,,,,,,,,,,,,,,,,,,,,,2432.190901,2432.190901,2432.190901,,,,,,,,,,,,p307,31,female,up_down_width,2025-11-26_10h46.13.411,exp1,2023.1.0,59.99109732
,,,,,,,,,,,,,,,,5,8.95,9.475,10,10.525,11.05,0.525,0.125,0.4,2.5,10,match,36.05,323,342,361,379,398,9,9,9,9,9,,,,,,,6,0,6,0,0,0,0,27,,,,,,,,,,,,,,5,1.1439385,5,0.2,0.25,9.01073,return,1.1612464,,,,,,,,,,,,,,,,,p307,31,female,up_down_width,2025-11-26_10h46.13.411,exp1,2023.1.0,59.99109732
,,,,,,,,,,,,,,,,3,7.8,10,12.2,0,0,2.2,1.65,0.55,4.95,10,match,36.05,281,361,440,0,0,9,9,9,0,0,,,,,,,6,0,6,0,0,1,1,35,,,,,,,,,,,,,,3,1.1397756,3,0.45,0.45,16.21932,return,1.1414719,,,,,,,,,,,,,,,,,p307,31,female,up_down_width,2025-11-26_10h46.13.411,exp1,2023.1.0,59.99109732
,,,,,,,,,,,,,,,,4,9.1,9.7,10.3,10.9,0,0.6,0.2,0.4,2.2,10,match,36.05,328,350,371,393,0,9,9,9,9,0,,,,,,,6,0,6,0,0,2,2,16,,,,,,,,,,,,,,4,0.9491604,4,0.55,0.3,10.81288,return,1.7256683,,,,,,,,,,,,,,,,,p307,31,female,up_down_width,2025-11-26_10h46.13.411,exp1,2023.1.0,59.99109732
,,,,,,,,,,,,,,,,5,8.35,9.175,10,10.825,11.65,0.825,0.575,0.25,3.55,10,match,36.05,301,331,361,390,420,9,9,9,9,9,,,,,,,6,0,6,0,0,3,3,20,,,,,,,,,,,,,,5,1.474071,5,0.25,0.25,9.01073,return,0.7897766,,,,,,,,,,,,,,,,,p307,31,female,up_down_width,2025-11-26_10h46.13.411,exp1,2023.1.0,59.99109732
,,,,,,,,,,,,,,,,3,9.1,10,10.9,0,0,0.9,0.65,0.25,2.05,10,initial,36.05,328,361,393,0,0,9,9,9,0,0,,,,,,,6,0,6,0,0,4,4,13,,,,,,,,,,,,,,3,0.9845632,3,0.55,0.2,7.20859,return,1.9998042,,,,,,,,,,,,,,,,,p307,31,female,up_down_width,2025-11-26_10h46.13.411,exp1,2023.1.0,59.99109732
,,,,,,,,,,,,,,,,5,8.2,9.1,10,10.9,11.8,0.9,0.35,0.55,4.15,10,initial,36.05,296,328,361,393,425,9,9,9,9,9,,,,,,,6,0,6,0,0,5,5,46,,,,,,,,,,,,,,5,1.1868144,5,0.25,0.45,16.21932,return,1.3628689,,,,,,,,,,,,,,,,,p307,31,female,up_down_width,2025-11-26_10h46.13.411,exp1,2023.1.0,59.99109732
,,,,,,,,,,,,,,,,4,8.35,9.45,10.55,11.65,0,1.1,0.7,0.4,3.7,10,initial,36.05,301,341,380,420,0,9,9,9,9,0,,,,,,,6,0,6,0,0,6,6,21,,,,,,,,,,,,,,4,1.3308736,4,0.5,0.35,12.61502,return,1.5174545,,,,,,,,,,,,,,,,,p307,31,female,up_down_width,2025-11-26_10h46.13.411,exp1,2023.1.0,59.99109732
,,,,,,,,,,,,,,,,5,8.6,9.3,10,10.7,11.4,0.7,0.45,0.25,3.05,10,initial,36.05,310,335,361,386,411,9,9,9,9,9,,,,,,,6,0,6,0,0,7,7,42,,,,,,,,,,,,,,5,1.1654155,5,0.55,0.25,9.01073,return,2.4151404,,,,,,,,,,,,,,,,,p307,31,female,up_down_width,2025-11-26_10h46.13.411,exp1,2023.1.0,59.99109732
,,,,,,,,,,,,,,,,5,8.65,9.325,10,10.675,11.35,0.675,0.125,0.55,3.25,10,match,36.05,312,336,361,385,409,9,9,9,9,9,,,,,,,6,0,6,0,0,8,8,29,,,,,,,,,,,,,,5,1.4576146,5,0.4,0.45,16.21932,return,1.5268867,,,,,,,,,,,,,,,,,p307,31,female,up_down_width,2025-11-26_10h46.13.411,exp1,2023.1.0,59.99109732
,,,,,,,,,,,,,,,,3,8.6,10,11.4,0,0,1.4,0.85,0.55,3.35,10,match,36.05,310,361,411,0,0,9,9,9,0,0,,,,,,,6,0,6,0,0,9,9,41,,,,,,,,,,,,,,3,1.2341134,3,0.4,0.5,18.02146,return,2.0479027,,,,,,,,,,,,,,,,,p307,31,female,up_down_width,2025-11-26_10h46.13.411,exp1,2023.1.0,59.99109732
,,,,,,,,,,,,,,,,4,8.9,9.633333333,10.36666667,11.1,0,0.733333333,0.483333333,0.25,2.45,10,match,36.05,321,347,374,400,0,9,9,9,9,0,,,,,,,6,0,6,0,0,10,10,3,,,,,,,,,,,,,,4,1.0626167,4,0.3,0.2,7.20859,return,0.8281343,,,,,,,,,,,,,,,,,p307,31,female,up_down_width,2025-11-26_10h46.13.411,exp1,2023.1.0,59.99109732
,,,,,,,,,,,,,,,,5,8.95,9.475,10,10.525,11.05,0.525,0.275,0.25,2.35,10,match,36.05,323,342,361,379,398,9,9,9,9,9,,,,,,,6,0,6,0,0,11,11,25,,,,,,,,,,,,,,5,1.2774409,5,0.35,0.2,7.20859,return,1.3851744,,,,,,,,,,,,,,,,,p307,31,female,up_down_width,2025-11-26_10h46.13.411,exp1,2023.1.0,59.99109732
,,,,,,,,,,,,,,,,4,8.35,9.45,10.55,11.65,0,1.1,0.85,0.25,3.55,10,initial,36.05,301,341,380,420,0,9,9,9,9,0,,,,,,,6,0,6,0,0,12,12,19,,,,,,,,,,,,,,4,1.3208006,4,0.55,0.2,7.20859,return,1.8101705,,,,,,,,,,,,,,,,,p307,31,female,up_down_width,2025-11-26_10h46.13.411,exp1,2023.1.0,59.99109732
,,,,,,,,,,,,,,,,3,9.3,10,10.7,0,0,0.7,0.3,0.4,1.8,10,initial,36.05,335,361,386,0,0,9,9,9,0,0,,,,,,,6,0,6,0,0,13,13,9,,,,,,,,,,,,,,3,1.1558007,3,0.4,0.3,10.81288,return,1.8602015,,,,,,,,,,,,,,,,,p307,31,female,up_down_width,2025-11-26_10h46.13.411,exp1,2023.1.0,59.99109732
,,,,,,,,,,,,,,,,3,7.8,10,12.2,0,0,2.2,1.8,0.4,4.8,10,match,36.05,281,361,440,0,0,9,9,9,0,0,,,,,,,6,0,6,0,0,14,14,39,,,,,,,,,,,,,,3,1.25492,3,0.5,0.35,12.61502,return,1.9555771,,,,,,,,,,,,,,,,,p307,31,female,up_down_width,2025-11-26_10h46.13.411,exp1,2023.1.0,59.99109732
,,,,,,,,,,,,,,,,5,8.2,9.1,10,10.9,11.8,0.9,0.5,0.4,4,10,initial,36.05,296,328,361,393,425,9,9,9,9,9,,,,,,,6,0,6,0,0,15,15,50,,,,,,,,,,,,,,6,1.1108579,6,0.5,0.35,12.61502,return,1.5453756,,,,,,,,,,,,,,,,,p307,31,female,up_down_width,2025-11-26_10h46.13.411,exp1,2023.1.0,59.99109732
,,,,,,,,,,,,,,,,4,8.35,9.45,10.55,11.65,0,1.1,0.55,0.55,3.85,10,initial,36.05,301,341,380,420,0,9,9,9,9,0,,,,,,,6,0,6,0,0,16,16,17,,,,,,,,,,,,,,4,1.1663843,4,0.55,0.55,19.82361,return,1.0868623,,,,,,,,,,,,,,,,,p307,31,female,up_down_width,2025-11-26_10h46.13.411,exp1,2023.1.0,59.99109732
,,,,,,,,,,,,,,,,4,9.1,9.7,10.3,10.9,0,0.6,0.35,0.25,2.05,10,match,36.05,328,350,371,393,0,9,9,9,9,0,,,,,,,6,0,6,0,0,17,17,14,,,,,,,,,,,,,,4,1.9461346,4,0.55,0.3,10.81288,return,2.3308177,,,,,,,,,,,,,,,,,p307,31,female,up_down_width,2025-11-26_10h46.13.411,exp1,2023.1.0,59.99109732
,,,,,,,,,,,,,,,,3,8.9,10,11.1,0,0,1.1,0.55,0.55,2.75,10,initial,36.05,321,361,400,0,0,9,9,9,0,0,,,,,,,6,0,6,0,0,18,18,0,,,,,,,,,,,,,,3,1.1477819,3,0.45,0.45,16.21932,return,0.6522878,,,,,,,,,,,,,,,,,p307,31,female,up_down_width,2025-11-26_10h46.13.411,exp1,2023.1.0,59.99109732
,,,,,,,,,,,,,,,,5,8.6,9.3,10,10.7,11.4,0.7,0.15,0.55,3.35,10,initial,36.05,310,335,361,386,411,9,9,9,9,9,,,,,,,6,0,6,0,0,19,19,40,,,,,,,,,,,,,,5,2.5559359,5,0.5,0.45,16.21932,return,1.0125519,,,,,,,,,,,,,,,,,p307,31,female,up_down_width,2025-11-26_10h46.13.411,exp1,2023.1.0,59.99109732
,,,,,,,,,,,,,,,,5,8.2,9.1,10,10.9,11.8,0.9,0.65,0.25,3.85,10,initial,36.05,296,328,361,393,425,9,9,9,9,9,,,,,,,6,0,6,0,0,20,20,48,,,,,,,,,,,,,,5,2.0775169,5,0.5,0.2,7.20859,return,1.5760874,,,,,,,,,,,,,,,,,p307,31,female,up_down_width,2025-11-26_10h46.13.411,exp1,2023.1.0,59.99109732
