amount_p,posx1_p,posx2_p,posx3_p,posx4_p,posx5_p,center_to_center_p,edge_to_edge_p,w_p,stim_lengt_p,eccentricity_p,line1_p,line2_p,line3_p,line4_p,line5_p,amount,posx1,posx2,posx3,posx4,posx5,center_to_center,edge_to_edge,w,stim_length,eccentricity,trial_type,deg_to_pix_index,posx1_in_pix,posx2_in_pix,posx3_in_pix,posx4_in_pix,posx5_in_pix,line1,line2,line3,line4,line5,posx,setsize_cobdi,trials.thisRepN,trials.thisTrialN,trials.thisN,trials.thisIndex,blocks.thisRepN,blocks.thisTrialN,blocks.thisN,blocks.thisIndex,loop.thisRepN,loop.thisTrialN,loop.thisN,loop.thisIndex,first.thisRepN,first.thisTrialN,first.thisN,first.thisIndex,second.thisRepN,second.thisTrialN,second.thisN,second.thisIndex,thisRow.t,notes,key_resp_3.started,key_resp_3.keys,key_resp_3.rt,key_resp.keys,key_resp.rt,response,starting_width_deg,response_width_degree,response_width_pixel,next_5.keys,next_5.rt,key_resp_4.keys,key_resp_4.rt,text_3.started,text_4.started,key_resp_2.started,text_2.started,key_resp_2.keys,key_resp_2.rt,adjusting.started,next.keys,next.rt,text_control2.started,key_resp.started,key_resp.corr,text_bye.started,text_bye.stopped,participant,age,gender,resp_group,date,expName,psychopyVersion,frameRate,
,,,,,,,,,,,,,,,,,,,,,,,,,,,,,,,,,,,,,,,,,,,,,,,,,,,,,,,,,,,,,,,506.6403655000031,c,133.88942590006627,,,,,,,,,,,,,,,,,,,,,,,,,p308,22,female,left_right_width,2025-11-26_13h34.56.245,exp1,2023.1.0,60.07788496163604,
3,9,10,11,0,0,1,0.9,0.1,2.1,10,9,9,9,0,0,,,,,,,,,,,,,,,,,,,,,,,,,,0,0,0,1,,,,,,,,,,,,,,,,,,,,,,3,2.479384999955073,3,0.5,0.15000000000000008,5.40644,return,7.83515429997351,,,,,,,,,,,,,,,,,p308,22,female,left_right_width,2025-11-26_13h34.56.245,exp1,2023.1.0,60.07788496163604,
5,9.25,9.625,10,10.375,10.75,0.375,0.125,0.25,1.75,10,9,9,9,9,9,,,,,,,,,,,,,,,,,,,,,,,,,,0,1,1,6,,,,,,,,,,,,,,,,,,,,,,4,1.5300906000193208,4,0.3,0.2,7.20859,return,2.2364934000652283,,,,,,,,,,,,,,,,,p308,22,female,left_right_width,2025-11-26_13h34.56.245,exp1,2023.1.0,60.07788496163604,
5,8.6,9.3,10,10.7,11.4,0.7,0.29999999999999993,0.4,3.1999999999999997,10,9,9,9,9,9,,,,,,,,,,,,,,,,,,,,,,,,,,0,2,2,7,,,,,,,,,,,,,,,,,,,,,,5,3.4832117999903858,5,0.45,0.20000000000000007,7.20859,return,3.904255200061016,,,,,,,,,,,,,,,,,p308,22,female,left_right_width,2025-11-26_13h34.56.245,exp1,2023.1.0,60.07788496163604,
5,9,9.5,10,10.5,11,0.5,0.09999999999999998,0.4,2.4,10,9,9,9,9,9,,,,,,,,,,,,,,,,,,,,,,,,,,0,3,3,8,,,,,,,,,,,,,,,,,,,,,,4,1.5049745000433177,4,0.35,0.35,12.61502,return,1.7633258000714704,,,,,,,,,,,,,,,,,p308,22,female,left_right_width,2025-11-26_13h34.56.245,exp1,2023.1.0,60.07788496163604,
4,8.65,9.55,10.45,11.35,0,0.9,0.5,0.4,3.1,10,9,9,9,9,0,,,,,,,,,,,,,,,,,,,,,,,,,,0,4,4,5,,,,,,,,,,,,,,,,,,,,,,3,1.3427522999700159,3,0.55,0.35000000000000003,12.61502,return,3.5435850999783725,,,,,,,,,,,,,,,,,p308,22,female,left_right_width,2025-11-26_13h34.56.245,exp1,2023.1.0,60.07788496163604,
4,9.25,9.75,10.25,10.75,0,0.5,0.25,0.25,1.75,10,9,9,9,9,0,,,,,,,,,,,,,,,,,,,,,,,,,,0,5,5,4,,,,,,,,,,,,,,,,,,,,,,3,1.9554941999958828,3,0.4,0.30000000000000004,10.81288,return,3.155393799999729,,,,,,,,,,,,,,,,,p308,22,female,left_right_width,2025-11-26_13h34.56.245,exp1,2023.1.0,60.07788496163604,
3,8.2,10,11.8,0,0,1.7999999999999998,1.4,0.4,4,10,9,9,9,0,0,,,,,,,,,,,,,,,,,,,,,,,,,,0,6,6,2,,,,,,,,,,,,,,,,,,,,,,3,1.707642300054431,3,0.5,0.45,16.21932,return,2.470928099937737,,,,,,,,,,,,,,,,,p308,22,female,left_right_width,2025-11-26_13h34.56.245,exp1,2023.1.0,60.07788496163604,
3,9.5,10,10.5,0,0,0.5,0.4,0.1,1.1,10,9,9,9,0,0,,,,,,,,,,,,,,,,,,,,,,,,,,0,7,7,0,,,,,,,,,,,,,,,,,,,,,,3,1.5153681000228971,3,0.2,0.10000000000000002,3.60429,return,2.1733412999892607,,,,,,,,,,,,,,,,,p308,22,female,left_right_width,2025-11-26_13h34.56.245,exp1,2023.1.0,60.07788496163604,
4,9.5,9.833333333333334,10.166666666666666,10.5,0,0.33333333333333337,0.23333333333333336,0.1,1.1,10,9,9,9,9,0,,,,,,,,,,,,,,,,,,,,,,,,,,0,8,8,3,,,,,,,,,,,,,,,,,,,,,,3,1.923317699925974,3,0.25,0.10000000000000002,3.60429,return,1.9575858999742195,,,,,,,,,,,,,,,,,p308,22,female,left_right_width,2025-11-26_13h34.56.245,exp1,2023.1.0,60.07788496163604,
,,,,,,,,,,,,,,,,,,,,,,,,,,,,,,,,,,,,,,,,,,,,,,,,,,,,,,,,,,,,,,,,,,,,,,,,,,c,141.4133658000501,,,,,,,,,,,,,,,p308,22,female,left_right_width,2025-11-26_13h34.56.245,exp1,2023.1.0,60.07788496163604,
,,,,,,,,,,,,,,,,5,8.35,9.175,10,10.825,11.65,0.825,0.575,0.25,3.55,10,match,36.05,301,331,361,390,420,9,9,9,9,9,,,,,,,0,0,0,0,0,0,0,20,,,,,,,,,,,,,,4,1.7747577000409365,4,0.2,0.15000000000000002,5.40644,return,1.4632308000000194,,,,,,,,,,,,,,,,,p308,22,female,left_right_width,2025-11-26_13h34.56.245,exp1,2023.1.0,60.07788496163604,
,,,,,,,,,,,,,,,,5,8.2,9.1,10,10.9,11.8,0.9,0.5,0.4,4,10,initial,36.05,296,328,361,393,425,9,9,9,9,9,,,,,,,0,0,0,0,0,1,1,50,,,,,,,,,,,,,,4,1.3332765999948606,4,0.5,0.35000000000000003,12.61502,return,1.8085806999588385,,,,,,,,,,,,,,,,,p308,22,female,left_right_width,2025-11-26_13h34.56.245,exp1,2023.1.0,60.07788496163604,
,,,,,,,,,,,,,,,,4,8.65,9.55,10.45,11.35,0,0.9,0.5,0.4,3.1,10,initial,36.05,312,344,377,409,0,9,9,9,9,0,,,,,,,0,0,0,0,0,2,2,32,,,,,,,,,,,,,,4,1.7714148999657482,4,0.2,0.3,10.81288,return,1.9709478999720886,,,,,,,,,,,,,,,,,p308,22,female,left_right_width,2025-11-26_13h34.56.245,exp1,2023.1.0,60.07788496163604,
,,,,,,,,,,,,,,,,4,8.35,9.45,10.55,11.65,0,1.1,0.7000000000000001,0.4,3.7,10,initial,36.05,301,341,380,420,0,9,9,9,9,0,,,,,,,0,0,0,0,0,3,3,21,,,,,,,,,,,,,,3,2.2618304999778047,3,0.2,0.25,9.01073,return,1.400998100056313,,,,,,,,,,,,,,,,,p308,22,female,left_right_width,2025-11-26_13h34.56.245,exp1,2023.1.0,60.07788496163604,
,,,,,,,,,,,,,,,,5,8.6,9.3,10,10.7,11.4,0.7,0.29999999999999993,0.4,3.1999999999999997,10,initial,36.05,310,335,361,386,411,9,9,9,9,9,,,,,,,0,0,0,0,0,4,4,44,,,,,,,,,,,,,,4,1.1609312000218779,4,0.45,0.35000000000000003,12.61502,return,1.7049468000186607,,,,,,,,,,,,,,,,,p308,22,female,left_right_width,2025-11-26_13h34.56.245,exp1,2023.1.0,60.07788496163604,
,,,,,,,,,,,,,,,,3,8.2,10,11.8,0,0,1.8,1.25,0.55,4.15,10,match,36.05,296,361,425,0,0,9,9,9,0,0,,,,,,,0,0,0,0,0,5,5,47,,,,,,,,,,,,,,3,1.2919372000033036,3,0.25,0.25,9.01073,return,3.7663173000328243,,,,,,,,,,,,,,,,,p308,22,female,left_right_width,2025-11-26_13h34.56.245,exp1,2023.1.0,60.07788496163604,
,,,,,,,,,,,,,,,,4,8.35,9.45,10.55,11.65,0,1.1,0.8500000000000001,0.25,3.5500000000000003,10,initial,36.05,301,341,380,420,0,9,9,9,9,0,,,,,,,0,0,0,0,0,6,6,19,,,,,,,,,,,,,,3,1.2094998999964446,3,0.35,0.2,7.20859,return,1.4013084000907838,,,,,,,,,,,,,,,,,p308,22,female,left_right_width,2025-11-26_13h34.56.245,exp1,2023.1.0,60.07788496163604,
,,,,,,,,,,,,,,,,3,9.1,10,10.9,0,0,0.9,0.5,0.4,2.2,10,initial,36.05,328,361,393,0,0,9,9,9,0,0,,,,,,,0,0,0,0,0,7,7,15,,,,,,,,,,,,,,3,1.990618500043638,3,0.25,0.25,9.01073,return,0.8853257999289781,,,,,,,,,,,,,,,,,p308,22,female,left_right_width,2025-11-26_13h34.56.245,exp1,2023.1.0,60.07788496163604,
,,,,,,,,,,,,,,,,5,7.8,8.9,10,11.1,12.2,1.1,0.8500000000000001,0.25,4.65,10,initial,36.05,281,321,361,400,440,9,9,9,9,9,,,,,,,0,0,0,0,0,8,8,36,,,,,,,,,,,,,,5,1.9618131999159232,5,0.5,0.25000000000000006,9.01073,return,2.0262965000001714,,,,,,,,,,,,,,,,,p308,22,female,left_right_width,2025-11-26_13h34.56.245,exp1,2023.1.0,60.07788496163604,
,,,,,,,,,,,,,,,,3,9.3,10,10.7,0,0,0.7,0.29999999999999993,0.4,1.8,10,initial,36.05,335,361,386,0,0,9,9,9,0,0,,,,,,,0,0,0,0,0,9,9,9,,,,,,,,,,,,,,3,1.4845692000817508,3,0.35,0.39999999999999997,14.41717,return,1.1994464999297634,,,,,,,,,,,,,,,,,p308,22,female,left_right_width,2025-11-26_13h34.56.245,exp1,2023.1.0,60.07788496163604,
,,,,,,,,,,,,,,,,5,8.35,9.175,10,10.825,11.65,0.8250000000000001,0.275,0.55,3.85,10,match,36.05,301,331,361,390,420,9,9,9,9,9,,,,,,,0,0,0,0,0,10,10,18,,,,,,,,,,,,,,5,1.5815586999524385,5,0.5,0.45,16.21932,return,1.3415100999409333,,,,,,,,,,,,,,,,,p308,22,female,left_right_width,2025-11-26_13h34.56.245,exp1,2023.1.0,60.07788496163604,
,,,,,,,,,,,,,,,,5,8.65,9.325,10,10.675,11.35,0.675,0.42500000000000004,0.25,2.95,10,match,36.05,312,336,361,385,409,9,9,9,9,9,,,,,,,0,0,0,0,0,11,11,31,,,,,,,,,,,,,,6,1.7520319999894127,6,0.35,0.25,9.01073,return,1.8092784999171272,,,,,,,,,,,,,,,,,p308,22,female,left_right_width,2025-11-26_13h34.56.245,exp1,2023.1.0,60.07788496163604,
,,,,,,,,,,,,,,,,3,9.3,10,10.7,0,0,0.7,0.1499999999999999,0.55,1.95,10,initial,36.05,335,361,386,0,0,9,9,9,0,0,,,,,,,0,0,0,0,0,12,12,6,,,,,,,,,,,,,,3,1.4412397999549285,3,0.3,0.39999999999999997,14.41717,return,1.7825811000075191,,,,,,,,,,,,,,,,,p308,22,female,left_right_width,2025-11-26_13h34.56.245,exp1,2023.1.0,60.07788496163604,
,,,,,,,,,,,,,,,,4,8.9,9.633333333333333,10.366666666666667,11.1,0,0.7333333333333334,0.4833333333333334,0.25,2.45,10,match,36.05,321,347,374,400,0,9,9,9,9,0,,,,,,,0,0,0,0,0,13,13,3,,,,,,,,,,,,,,4,1.132099200040102,4,0.35,0.3,10.81288,return,1.3272426999174058,,,,,,,,,,,,,,,,,p308,22,female,left_right_width,2025-11-26_13h34.56.245,exp1,2023.1.0,60.07788496163604,
,,,,,,,,,,,,,,,,5,8.65,9.325,10,10.675,11.35,0.675,0.275,0.4,3.1,10,match,36.05,312,336,361,385,409,9,9,9,9,9,,,,,,,0,0,0,0,0,14,14,33,,,,,,,,,,,,,,5,2.178786600008607,5,0.35,0.35,12.61502,return,1.546583899995312,,,,,,,,,,,,,,,,,p308,22,female,left_right_width,2025-11-26_13h34.56.245,exp1,2023.1.0,60.07788496163604,
,,,,,,,,,,,,,,,,4,9.3,9.766666666666667,10.233333333333333,10.7,0,0.4666666666666667,0.21666666666666665,0.25,1.65,10,match,36.05,335,352,369,386,0,9,9,9,9,0,,,,,,,0,0,0,0,0,15,15,8,,,,,,,,,,,,,,4,1.189852699986659,4,0.5,0.30000000000000004,10.81288,return,1.7012671999400482,,,,,,,,,,,,,,,,,p308,22,female,left_right_width,2025-11-26_13h34.56.245,exp1,2023.1.0,60.07788496163604,
,,,,,,,,,,,,,,,,3,9.3,10,10.7,0,0,0.7,0.44999999999999996,0.25,1.65,10,initial,36.05,335,361,386,0,0,9,9,9,0,0,,,,,,,0,0,0,0,0,16,16,7,,,,,,,,,,,,,,3,2.073411099961959,3,0.35,0.2,7.20859,return,1.23613249999471,,,,,,,,,,,,,,,,,p308,22,female,left_right_width,2025-11-26_13h34.56.245,exp1,2023.1.0,60.07788496163604,
,,,,,,,,,,,,,,,,4,9.1,9.7,10.3,10.9,0,0.6000000000000001,0.20000000000000004,0.4,2.2,10,match,36.05,328,350,371,393,0,9,9,9,9,0,,,,,,,0,0,0,0,0,17,17,16,,,,,,,,,,,,,,4,1.317809799918905,4,0.3,0.35,12.61502,return,1.5211102000903338,,,,,,,,,,,,,,,,,p308,22,female,left_right_width,2025-11-26_13h34.56.245,exp1,2023.1.0,60.07788496163604,
,,,,,,,,,,,,,,,,4,8.65,9.55,10.45,11.35,0,0.9,0.65,0.25,2.95,10,initial,36.05,312,344,377,409,0,9,9,9,9,0,,,,,,,0,0,0,0,0,18,18,30,,,,,,,,,,,,,,4,1.3246174999512732,4,0.45,0.30000000000000004,10.81288,return,1.7974359999643639,,,,,,,,,,,,,,,,,p308,22,female,left_right_width,2025-11-26_13h34.56.245,exp1,2023.1.0,60.07788496163604,
,,,,,,,,,,,,,,,,4,8.95,9.65,10.35,11.05,0,0.7,0.1499999999999999,0.55,2.65,10,initial,36.05,323,348,373,398,0,9,9,9,9,0,,,,,,,0,0,0,0,0,19,19,23,,,,,,,,,,,,,,4,1.5919593999860808,4,0.25,0.35,12.61502,return,2.646700300043449,,,,,,,,,,,,,,,,,p308,22,female,left_right_width,2025-11-26_13h34.56.245,exp1,2023.1.0,60.07788496163604,
,,,,,,,,,,,,,,,,4,9.1,9.7,10.3,10.9,0,0.6,0.04999999999999997,0.55,2.35,10,match,36.05,328,350,371,393,0,9,9,9,9,0,,,,,,,0,0,0,0,0,20,20,12,,,,,,,,,,,,,,3,2.118375499965623,3,0.5,0.6000000000000001,21.62576,return,1.904293500003405,,,,,,,,,,,,,,,,,p308,22,female,left_right_width,2025-11-26_13h34.56.245,exp1,2023.1.0,60.07788496163604,
,,,,,,,,,,,,,,,,3,8.2,10,11.8,0,0,1.8,1.55,0.25,3.85,10,match,36.05,296,361,425,0,0,9,9,9,0,0,,,,,,,0,0,0,0,0,21,21,49,,,,,,,,,,,,,,2,1.341217500041239,2,0.25,0.2,7.20859,return,1.1254965999396518,,,,,,,,,,,,,,,,,p308,22,female,left_right_width,2025-11-26_13h34.56.245,exp1,2023.1.0,60.07788496163604,
,,,,,,,,,,,,,,,,5,8.2,9.1,10,10.9,11.8,0.9,0.65,0.25,3.85,10,initial,36.05,296,328,361,393,425,9,9,9,9,9,,,,,,,0,0,0,0,0,22,22,48,,,,,,,,,,,,,,4,1.2763323000399396,4,0.2,0.2,7.20859,return,1.5604970999993384,,,,,,,,,,,,,,,,,p308,22,female,left_right_width,2025-11-26_13h34.56.245,exp1,2023.1.0,60.07788496163604,
,,,,,,,,,,,,,,,,3,7.800000000000001,10,12.2,0,0,2.1999999999999997,1.7999999999999998,0.4,4.8,10,match,36.05,281,361,440,0,0,9,9,9,0,0,,,,,,,0,0,0,0,0,23,23,39,,,,,,,,,,,,,,2,1.580768599989824,2,0.55,0.35000000000000003,12.61502,return,2.829342299955897,,,,,,,,,,,,,,,,,p308,22,female,left_right_width,2025-11-26_13h34.56.245,exp1,2023.1.0,60.07788496163604,
,,,,,,,,,,,,,,,,5,7.8,8.9,10,11.1,12.2,1.1,0.55,0.55,4.95,10,initial,36.05,281,321,361,400,440,9,9,9,9,9,,,,,,,0,0,0,0,0,24,24,34,,,,,,,,,,,,,,4,1.2452136999927461,4,0.35,0.39999999999999997,14.41717,return,1.8016819000476971,,,,,,,,,,,,,,,,,p308,22,female,left_right_width,2025-11-26_13h34.56.245,exp1,2023.1.0,60.07788496163604,
,,,,,,,,,,,,,,,,3,8.9,10,11.1,0,0,1.1,0.7000000000000001,0.4,2.6000000000000005,10,initial,36.05,321,361,400,0,0,9,9,9,0,0,,,,,,,0,0,0,0,0,25,25,4,,,,,,,,,,,,,,3,1.0655419999966398,3,0.35,0.35,12.61502,return,1.1987372000003234,,,,,,,,,,,,,,,,,p308,22,female,left_right_width,2025-11-26_13h34.56.245,exp1,2023.1.0,60.07788496163604,
,,,,,,,,,,,,,,,,5,8.6,9.3,10,10.7,11.4,0.7,0.44999999999999996,0.25,3.05,10,initial,36.05,310,335,361,386,411,9,9,9,9,9,,,,,,,0,0,0,0,0,26,26,42,,,,,,,,,,,,,,5,2.19155739992857,5,0.3,0.3,10.81288,return,1.1748174999374896,,,,,,,,,,,,,,,,,p308,22,female,left_right_width,2025-11-26_13h34.56.245,exp1,2023.1.0,60.07788496163604,
,,,,,,,,,,,,,,,,4,9.1,9.7,10.3,10.9,0,0.5999999999999999,0.3499999999999999,0.25,2.05,10,match,36.05,328,350,371,393,0,9,9,9,9,0,,,,,,,0,0,0,0,0,27,27,14,,,,,,,,,,,,,,3,1.134861099999398,3,0.55,0.30000000000000004,10.81288,return,1.920230499934405,,,,,,,,,,,,,,,,,p308,22,female,left_right_width,2025-11-26_13h34.56.245,exp1,2023.1.0,60.07788496163604,
,,,,,,,,,,,,,,,,5,8.95,9.475,10,10.525,11.05,0.525,0.275,0.25,2.35,10,match,36.05,323,342,361,379,398,9,9,9,9,9,,,,,,,0,0,0,0,0,28,28,25,,,,,,,,,,,,,,5,1.2208552000811324,5,0.55,0.30000000000000004,10.81288,return,1.8260660000378266,,,,,,,,,,,,,,,,,p308,22,female,left_right_width,2025-11-26_13h34.56.245,exp1,2023.1.0,60.07788496163604,
,,,,,,,,,,,,,,,,5,8.95,9.475,10,10.525,11.05,0.525,0.125,0.4,2.5,10,match,36.05,323,342,361,379,398,9,9,9,9,9,,,,,,,0,0,0,0,0,29,29,27,,,,,,,,,,,,,,5,1.778792699915357,5,0.55,0.5,18.02146,return,1.7546933999983594,,,,,,,,,,,,,,,,,p308,22,female,left_right_width,2025-11-26_13h34.56.245,exp1,2023.1.0,60.07788496163604,
,,,,,,,,,,,,,,,,3,9.1,10,10.9,0,0,0.9,0.35,0.55,2.35,10,initial,36.05,328,361,393,0,0,9,9,9,0,0,,,,,,,0,0,0,0,0,30,30,11,,,,,,,,,,,,,,3,1.4634781000204384,3,0.55,0.55,19.82361,return,1.0198056000517681,,,,,,,,,,,,,,,,,p308,22,female,left_right_width,2025-11-26_13h34.56.245,exp1,2023.1.0,60.07788496163604,
,,,,,,,,,,,,,,,,5,7.8,8.9,10,11.1,12.2,1.1,0.7000000000000001,0.4,4.800000000000001,10,initial,36.05,281,321,361,400,440,9,9,9,9,9,,,,,,,0,0,0,0,0,31,31,38,,,,,,,,,,,,,,5,1.243085699970834,5,0.45,0.4,14.41717,return,2.761262399959378,,,,,,,,,,,,,,,,,p308,22,female,left_right_width,2025-11-26_13h34.56.245,exp1,2023.1.0,60.07788496163604,
,,,,,,,,,,,,,,,,4,8.9,9.633333333333333,10.366666666666667,11.1,0,0.7333333333333333,0.18333333333333326,0.55,2.75,10,match,36.05,321,347,374,400,0,9,9,9,9,0,,,,,,,0,0,0,0,0,32,32,1,,,,,,,,,,,,,,4,1.3298641999717802,4,0.45,0.45,16.21932,return,1.3081306999083608,,,,,,,,,,,,,,,,,p308,22,female,left_right_width,2025-11-26_13h34.56.245,exp1,2023.1.0,60.07788496163604,
,,,,,,,,,,,,,,,,3,7.8,10,12.2,0,0,2.2,1.9500000000000002,0.25,4.65,10,match,36.05,281,361,440,0,0,9,9,9,0,0,,,,,,,0,0,0,0,0,33,33,37,,,,,,,,,,,,,,3,0.8788184000877663,3,0.35,0.25,9.01073,return,2.3143722999375314,,,,,,,,,,,,,,,,,p308,22,female,left_right_width,2025-11-26_13h34.56.245,exp1,2023.1.0,60.07788496163604,
,,,,,,,,,,,,,,,,4,8.95,9.65,10.35,11.05,0,0.7,0.44999999999999996,0.25,2.3499999999999996,10,initial,36.05,323,348,373,398,0,9,9,9,9,0,,,,,,,0,0,0,0,0,34,34,24,,,,,,,,,,,,,,4,1.1344930999912322,4,0.55,0.30000000000000004,10.81288,return,1.776144899893552,,,,,,,,,,,,,,,,,p308,22,female,left_right_width,2025-11-26_13h34.56.245,exp1,2023.1.0,60.07788496163604,
,,,,,,,,,,,,,,,,4,8.65,9.55,10.45,11.35,0,0.9,0.35,0.55,3.25,10,initial,36.05,312,344,377,409,0,9,9,9,9,0,,,,,,,0,0,0,0,0,35,35,28,,,,,,,,,,,,,,3,1.1843063000123948,3,0.25,0.39999999999999997,14.41717,return,2.3676083999453112,,,,,,,,,,,,,,,,,p308,22,female,left_right_width,2025-11-26_13h34.56.245,exp1,2023.1.0,60.07788496163604,
,,,,,,,,,,,,,,,,4,8.825,9.608333333333333,10.391666666666667,11.175,0,0.7833333333333333,0.5333333333333333,0.25,2.6,10,match,36.05,318,346,375,403,0,9,9,9,9,0,,,,,,,0,0,0,0,0,36,36,5,,,,,,,,,,,,,,4,1.2590309999650344,4,0.5,0.30000000000000004,10.81288,return,1.7676325000356883,,,,,,,,,,,,,,,,,p308,22,female,left_right_width,2025-11-26_13h34.56.245,exp1,2023.1.0,60.07788496163604,
,,,,,,,,,,,,,,,,5,8.65,9.325,10,10.675,11.35,0.675,0.125,0.55,3.25,10,match,36.05,312,336,361,385,409,9,9,9,9,9,,,,,,,0,0,0,0,0,37,37,29,,,,,,,,,,,,,,4,1.2003198000602424,4,0.2,0.44999999999999996,16.21932,return,2.8492165999487042,,,,,,,,,,,,,,,,,p308,22,female,left_right_width,2025-11-26_13h34.56.245,exp1,2023.1.0,60.07788496163604,
,,,,,,,,,,,,,,,,5,8.275,9.1375,10,10.8625,11.725,0.8625,0.6125,0.25,3.7,10,match,36.05,298,329,361,392,423,9,9,9,9,9,,,,,,,0,0,0,0,0,38,38,22,,,,,,,,,,,,,,5,1.6011695000343025,5,0.25,0.2,7.20859,return,1.0875500000547618,,,,,,,,,,,,,,,,,p308,22,female,left_right_width,2025-11-26_13h34.56.245,exp1,2023.1.0,60.07788496163604,
,,,,,,,,,,,,,,,,4,8.95,9.65,10.35,11.05,0,0.7,0.29999999999999993,0.4,2.5,10,initial,36.05,323,348,373,398,0,9,9,9,9,0,,,,,,,0,0,0,0,0,39,39,26,,,,,,,,,,,,,,3,1.634586500003934,3,0.45,0.45,16.21932,return,0.9112749999621883,,,,,,,,,,,,,,,,,p308,22,female,left_right_width,2025-11-26_13h34.56.245,exp1,2023.1.0,60.07788496163604,
,,,,,,,,,,,,,,,,3,8.6,10,11.4,0,0,1.4,1.15,0.25,3.05,10,match,36.05,310,361,411,0,0,9,9,9,0,0,,,,,,,0,0,0,0,0,40,40,43,,,,,,,,,,,,,,3,1.2766358000226319,3,0.35,0.25,9.01073,return,1.6422863999614492,,,,,,,,,,,,,,,,,p308,22,female,left_right_width,2025-11-26_13h34.56.245,exp1,2023.1.0,60.07788496163604,
,,,,,,,,,,,,,,,,3,8.2,10,11.8,0,0,1.7999999999999998,1.4,0.4,4,10,match,36.05,296,361,425,0,0,9,9,9,0,0,,,,,,,0,0,0,0,0,41,41,51,,,,,,,,,,,,,,2,1.1620795999187976,2,0.25,0.3,10.81288,return,1.1787209999747574,,,,,,,,,,,,,,,,,p308,22,female,left_right_width,2025-11-26_13h34.56.245,exp1,2023.1.0,60.07788496163604,
,,,,,,,,,,,,,,,,4,8.35,9.45,10.55,11.65,0,1.1,0.55,0.55,3.8500000000000005,10,initial,36.05,301,341,380,420,0,9,9,9,9,0,,,,,,,0,0,0,0,0,42,42,17,,,,,,,,,,,,,,4,1.3222715998999774,4,0.55,0.45,16.21932,return,1.4919995999662206,,,,,,,,,,,,,,,,,p308,22,female,left_right_width,2025-11-26_13h34.56.245,exp1,2023.1.0,60.07788496163604,
,,,,,,,,,,,,,,,,5,8.6,9.3,10,10.7,11.4,0.7,0.1499999999999999,0.55,3.3499999999999996,10,initial,36.05,310,335,361,386,411,9,9,9,9,9,,,,,,,0,0,0,0,0,43,43,40,,,,,,,,,,,,,,4,0.9850412000669166,4,0.4,0.45,16.21932,return,1.6486170999705791,,,,,,,,,,,,,,,,,p308,22,female,left_right_width,2025-11-26_13h34.56.245,exp1,2023.1.0,60.07788496163604,
,,,,,,,,,,,,,,,,3,8.6,10,11.4,0,0,1.4,0.85,0.55,3.35,10,match,36.05,310,361,411,0,0,9,9,9,0,0,,,,,,,0,0,0,0,0,44,44,41,,,,,,,,,,,,,,3,1.1754609000636265,3,0.55,0.5,18.02146,return,3.3508264999836683,,,,,,,,,,,,,,,,,p308,22,female,left_right_width,2025-11-26_13h34.56.245,exp1,2023.1.0,60.07788496163604,
,,,,,,,,,,,,,,,,3,9.1,10,10.9,0,0,0.9,0.65,0.25,2.05,10,initial,36.05,328,361,393,0,0,9,9,9,0,0,,,,,,,0,0,0,0,0,45,45,13,,,,,,,,,,,,,,3,1.0905855000019073,3,0.35,0.25,9.01073,return,1.2221689999569207,,,,,,,,,,,,,,,,,p308,22,female,left_right_width,2025-11-26_13h34.56.245,exp1,2023.1.0,60.07788496163604,
,,,,,,,,,,,,,,,,3,8.525,10,11.475,0,0,1.475,1.225,0.25,3.2,10,match,36.05,307,361,414,0,0,9,9,9,0,0,,,,,,,0,0,0,0,0,46,46,45,,,,,,,,,,,,,,3,1.1343800000613555,3,0.5,0.25000000000000006,9.01073,return,1.7749296999536455,,,,,,,,,,,,,,,,,p308,22,female,left_right_width,2025-11-26_13h34.56.245,exp1,2023.1.0,60.07788496163604,
,,,,,,,,,,,,,,,,3,8.9,10,11.1,0,0,1.1,0.55,0.55,2.75,10,initial,36.05,321,361,400,0,0,9,9,9,0,0,,,,,,,0,0,0,0,0,47,47,0,,,,,,,,,,,,,,3,1.0188562999246642,3,0.35,0.49999999999999994,18.02146,return,1.7933720999862999,,,,,,,,,,,,,,,,,p308,22,female,left_right_width,2025-11-26_13h34.56.245,exp1,2023.1.0,60.07788496163604,
,,,,,,,,,,,,,,,,3,8.9,10,11.1,0,0,1.1,0.8500000000000001,0.25,2.45,10,initial,36.05,321,361,400,0,0,9,9,9,0,0,,,,,,,0,0,0,0,0,48,48,2,,,,,,,,,,,,,,3,1.1061390000395477,3,0.45,0.30000000000000004,10.81288,return,1.493997700046748,,,,,,,,,,,,,,,,,p308,22,female,left_right_width,2025-11-26_13h34.56.245,exp1,2023.1.0,60.07788496163604,
,,,,,,,,,,,,,,,,3,7.8,10,12.2,0,0,2.2,1.65,0.55,4.95,10,match,36.05,281,361,440,0,0,9,9,9,0,0,,,,,,,0,0,0,0,0,49,49,35,,,,,,,,,,,,,,3,0.7496269999537617,3,0.4,0.35000000000000003,12.61502,return,0.8789598000003025,,,,,,,,,,,,,,,,,p308,22,female,left_right_width,2025-11-26_13h34.56.245,exp1,2023.1.0,60.07788496163604,
,,,,,,,,,,,,,,,,5,8.2,9.1,10,10.9,11.8,0.9,0.35,0.55,4.15,10,initial,36.05,296,328,361,393,425,9,9,9,9,9,,,,,,,0,0,0,0,0,50,50,46,,,,,,,,,,,,,,6,1.735549799981527,6,0.2,0.35,12.61502,return,1.489470300031826,,,,,,,,,,,,,,,,,p308,22,female,left_right_width,2025-11-26_13h34.56.245,exp1,2023.1.0,60.07788496163604,
,,,,,,,,,,,,,,,,4,9.3,9.766666666666667,10.233333333333333,10.7,0,0.4666666666666667,0.06666666666666665,0.4,1.8,10,match,36.05,335,352,369,386,0,9,9,9,9,0,,,,,,,0,0,0,0,0,51,51,10,,,,,,,,,,,,,,3,1.294969700044021,3,0.45,0.6500000000000001,23.4279,return,2.3620421000523493,,,,,,,,,,,,,,,,,p308,22,female,left_right_width,2025-11-26_13h34.56.245,exp1,2023.1.0,60.07788496163604,
,,,,,,,,,,,,,,,,,,,,,,,,,,,,,,,,,,,,,,,,,,,,,0,0,0,0,,,,,,,,,,,,,,,,,,,,,,,,,,,,1100.7112785000354,1100.7112785000354,1100.7112785000354,,,,,,,,,,,,p308,22,female,left_right_width,2025-11-26_13h34.56.245,exp1,2023.1.0,60.07788496163604,
,,,,,,,,,,,,,,,,4,8.65,9.55,10.45,11.35,0,0.9,0.5,0.4,3.1,10,initial,36.05,312,344,377,409,0,9,9,9,9,0,,,,,,,1,0,1,0,0,0,0,32,,,,,,,,,,,,,,4,1.046307200100273,4,0.5,0.4,14.41717,return,1.5947910000104457,,,,,,,,,,,,,,,,,p308,22,female,left_right_width,2025-11-26_13h34.56.245,exp1,2023.1.0,60.07788496163604,
,,,,,,,,,,,,,,,,5,8.2,9.1,10,10.9,11.8,0.9,0.35,0.55,4.15,10,initial,36.05,296,328,361,393,425,9,9,9,9,9,,,,,,,1,0,1,0,0,1,1,46,,,,,,,,,,,,,,4,1.300877399975434,4,0.4,0.5,18.02146,return,1.1197223999770358,,,,,,,,,,,,,,,,,p308,22,female,left_right_width,2025-11-26_13h34.56.245,exp1,2023.1.0,60.07788496163604,
,,,,,,,,,,,,,,,,3,9.1,10,10.9,0,0,0.9,0.65,0.25,2.05,10,initial,36.05,328,361,393,0,0,9,9,9,0,0,,,,,,,1,0,1,0,0,2,2,13,,,,,,,,,,,,,,3,0.773551500053145,3,0.35,0.25,9.01073,return,1.1896377999801189,,,,,,,,,,,,,,,,,p308,22,female,left_right_width,2025-11-26_13h34.56.245,exp1,2023.1.0,60.07788496163604,
,,,,,,,,,,,,,,,,4,9.1,9.7,10.3,10.9,0,0.5999999999999999,0.3499999999999999,0.25,2.05,10,match,36.05,328,350,371,393,0,9,9,9,9,0,,,,,,,1,0,1,0,0,3,3,14,,,,,,,,,,,,,,4,0.7772524999454618,4,0.35,0.3,10.81288,return,1.032670099986717,,,,,,,,,,,,,,,,,p308,22,female,left_right_width,2025-11-26_13h34.56.245,exp1,2023.1.0,60.07788496163604,
,,,,,,,,,,,,,,,,5,8.275,9.1375,10,10.8625,11.725,0.8625,0.6125,0.25,3.7,10,match,36.05,298,329,361,392,423,9,9,9,9,9,,,,,,,1,0,1,0,0,4,4,22,,,,,,,,,,,,,,5,1.23251869995147,5,0.5,0.25000000000000006,9.01073,return,2.3825843000086024,,,,,,,,,,,,,,,,,p308,22,female,left_right_width,2025-11-26_13h34.56.245,exp1,2023.1.0,60.07788496163604,
,,,,,,,,,,,,,,,,5,8.6,9.3,10,10.7,11.4,0.7,0.1499999999999999,0.55,3.3499999999999996,10,initial,36.05,310,335,361,386,411,9,9,9,9,9,,,,,,,1,0,1,0,0,5,5,40,,,,,,,,,,,,,,5,1.113265399937518,5,0.35,0.5499999999999999,19.82361,return,2.17080779990647,,,,,,,,,,,,,,,,,p308,22,female,left_right_width,2025-11-26_13h34.56.245,exp1,2023.1.0,60.07788496163604,
,,,,,,,,,,,,,,,,3,7.800000000000001,10,12.2,0,0,2.1999999999999997,1.7999999999999998,0.4,4.8,10,match,36.05,281,361,440,0,0,9,9,9,0,0,,,,,,,1,0,1,0,0,6,6,39,,,,,,,,,,,,,,3,0.6639821999706328,3,0.45,0.25000000000000006,9.01073,return,1.0849210999440402,,,,,,,,,,,,,,,,,p308,22,female,left_right_width,2025-11-26_13h34.56.245,exp1,2023.1.0,60.07788496163604,
,,,,,,,,,,,,,,,,5,7.8,8.9,10,11.1,12.2,1.1,0.55,0.55,4.95,10,initial,36.05,281,321,361,400,440,9,9,9,9,9,,,,,,,1,0,1,0,0,7,7,34,,,,,,,,,,,,,,5,1.8046661999542266,5,0.35,0.35,12.61502,return,0.949128600070253,,,,,,,,,,,,,,,,,p308,22,female,left_right_width,2025-11-26_13h34.56.245,exp1,2023.1.0,60.07788496163604,
,,,,,,,,,,,,,,,,5,8.65,9.325,10,10.675,11.35,0.675,0.275,0.4,3.1,10,match,36.05,312,336,361,385,409,9,9,9,9,9,,,,,,,1,0,1,0,0,8,8,33,,,,,,,,,,,,,,4,1.1762084999354556,4,0.2,0.3,10.81288,return,1.6562182999914512,,,,,,,,,,,,,,,,,p308,22,female,left_right_width,2025-11-26_13h34.56.245,exp1,2023.1.0,60.07788496163604,
,,,,,,,,,,,,,,,,3,9.1,10,10.9,0,0,0.9,0.5,0.4,2.2,10,initial,36.05,328,361,393,0,0,9,9,9,0,0,,,,,,,1,0,1,0,0,9,9,15,,,,,,,,,,,,,,3,1.2779397000558674,3,0.55,0.35000000000000003,12.61502,return,1.4175680000334978,,,,,,,,,,,,,,,,,p308,22,female,left_right_width,2025-11-26_13h34.56.245,exp1,2023.1.0,60.07788496163604,
,,,,,,,,,,,,,,,,4,8.35,9.45,10.55,11.65,0,1.1,0.55,0.55,3.8500000000000005,10,initial,36.05,301,341,380,420,0,9,9,9,9,0,,,,,,,1,0,1,0,0,10,10,17,,,,,,,,,,,,,,4,1.0513322000624612,4,0.35,0.39999999999999997,14.41717,return,1.327339099952951,,,,,,,,,,,,,,,,,p308,22,female,left_right_width,2025-11-26_13h34.56.245,exp1,2023.1.0,60.07788496163604,
,,,,,,,,,,,,,,,,3,7.8,10,12.2,0,0,2.2,1.65,0.55,4.95,10,match,36.05,281,361,440,0,0,9,9,9,0,0,,,,,,,1,0,1,0,0,11,11,35,,,,,,,,,,,,,,3,1.1163830000441521,3,0.4,0.45,16.21932,return,1.774940799921751,,,,,,,,,,,,,,,,,p308,22,female,left_right_width,2025-11-26_13h34.56.245,exp1,2023.1.0,60.07788496163604,
,,,,,,,,,,,,,,,,3,9.3,10,10.7,0,0,0.7,0.44999999999999996,0.25,1.65,10,initial,36.05,335,361,386,0,0,9,9,9,0,0,,,,,,,1,0,1,0,0,12,12,7,,,,,,,,,,,,,,3,1.1983678999822587,3,0.5,0.35000000000000003,12.61502,return,1.8688085000030696,,,,,,,,,,,,,,,,,p308,22,female,left_right_width,2025-11-26_13h34.56.245,exp1,2023.1.0,60.07788496163604,
,,,,,,,,,,,,,,,,5,8.95,9.475,10,10.525,11.05,0.525,0.125,0.4,2.5,10,match,36.05,323,342,361,379,398,9,9,9,9,9,,,,,,,1,0,1,0,0,13,13,27,,,,,,,,,,,,,,4,0.9396059999708086,4,0.5,0.5,18.02146,return,1.1729508000425994,,,,,,,,,,,,,,,,,p308,22,female,left_right_width,2025-11-26_13h34.56.245,exp1,2023.1.0,60.07788496163604,
,,,,,,,,,,,,,,,,3,8.9,10,11.1,0,0,1.1,0.55,0.55,2.75,10,initial,36.05,321,361,400,0,0,9,9,9,0,0,,,,,,,1,0,1,0,0,14,14,0,,,,,,,,,,,,,,3,1.004189300001599,3,0.2,0.44999999999999996,16.21932,return,2.4988266000291333,,,,,,,,,,,,,,,,,p308,22,female,left_right_width,2025-11-26_13h34.56.245,exp1,2023.1.0,60.07788496163604,
,,,,,,,,,,,,,,,,3,8.9,10,11.1,0,0,1.1,0.7000000000000001,0.4,2.6000000000000005,10,initial,36.05,321,361,400,0,0,9,9,9,0,0,,,,,,,1,0,1,0,0,15,15,4,,,,,,,,,,,,,,3,1.1929892000043765,3,0.45,0.45,16.21932,return,0.9195876999292523,,,,,,,,,,,,,,,,,p308,22,female,left_right_width,2025-11-26_13h34.56.245,exp1,2023.1.0,60.07788496163604,
,,,,,,,,,,,,,,,,5,8.6,9.3,10,10.7,11.4,0.7,0.44999999999999996,0.25,3.05,10,initial,36.05,310,335,361,386,411,9,9,9,9,9,,,,,,,1,0,1,0,0,16,16,42,,,,,,,,,,,,,,4,1.0785942999646068,4,0.5,0.25000000000000006,9.01073,return,1.8022330000530928,,,,,,,,,,,,,,,,,p308,22,female,left_right_width,2025-11-26_13h34.56.245,exp1,2023.1.0,60.07788496163604,
,,,,,,,,,,,,,,,,5,7.8,8.9,10,11.1,12.2,1.1,0.8500000000000001,0.25,4.65,10,initial,36.05,281,321,361,400,440,9,9,9,9,9,,,,,,,1,0,1,0,0,17,17,36,,,,,,,,,,,,,,4,1.0489326000679284,4,0.3,0.25,9.01073,return,1.2142662999685854,,,,,,,,,,,,,,,,,p308,22,female,left_right_width,2025-11-26_13h34.56.245,exp1,2023.1.0,60.07788496163604,
,,,,,,,,,,,,,,,,3,8.9,10,11.1,0,0,1.1,0.8500000000000001,0.25,2.45,10,initial,36.05,321,361,400,0,0,9,9,9,0,0,,,,,,,1,0,1,0,0,18,18,2,,,,,,,,,,,,,,3,1.0066191999940202,3,0.3,0.3,10.81288,return,0.8696245000464842,,,,,,,,,,,,,,,,,p308,22,female,left_right_width,2025-11-26_13h34.56.245,exp1,2023.1.0,60.07788496163604,
,,,,,,,,,,,,,,,,3,8.2,10,11.8,0,0,1.8,1.25,0.55,4.15,10,match,36.05,296,361,425,0,0,9,9,9,0,0,,,,,,,1,0,1,0,0,19,19,47,,,,,,,,,,,,,,3,1.2153948000632226,3,0.3,0.39999999999999997,14.41717,return,1.1820312000345439,,,,,,,,,,,,,,,,,p308,22,female,left_right_width,2025-11-26_13h34.56.245,exp1,2023.1.0,60.07788496163604,
,,,,,,,,,,,,,,,,3,8.6,10,11.4,0,0,1.4,1.15,0.25,3.05,10,match,36.05,310,361,411,0,0,9,9,9,0,0,,,,,,,1,0,1,0,0,20,20,43,,,,,,,,,,,,,,3,0.6515888000139967,3,0.35,0.3,10.81288,return,1.0561994999879971,,,,,,,,,,,,,,,,,p308,22,female,left_right_width,2025-11-26_13h34.56.245,exp1,2023.1.0,60.07788496163604,
,,,,,,,,,,,,,,,,3,9.1,10,10.9,0,0,0.9,0.35,0.55,2.35,10,initial,36.05,328,361,393,0,0,9,9,9,0,0,,,,,,,1,0,1,0,0,21,21,11,,,,,,,,,,,,,,3,0.9627098999917507,3,0.25,0.44999999999999996,16.21932,return,1.484170800074935,,,,,,,,,,,,,,,,,p308,22,female,left_right_width,2025-11-26_13h34.56.245,exp1,2023.1.0,60.07788496163604,
,,,,,,,,,,,,,,,,5,8.35,9.175,10,10.825,11.65,0.8250000000000001,0.275,0.55,3.85,10,match,36.05,301,331,361,390,420,9,9,9,9,9,,,,,,,1,0,1,0,0,22,22,18,,,,,,,,,,,,,,4,0.906188299995847,4,0.2,0.49999999999999994,18.02146,return,2.0845343999098986,,,,,,,,,,,,,,,,,p308,22,female,left_right_width,2025-11-26_13h34.56.245,exp1,2023.1.0,60.07788496163604,
,,,,,,,,,,,,,,,,4,8.95,9.65,10.35,11.05,0,0.7,0.44999999999999996,0.25,2.3499999999999996,10,initial,36.05,323,348,373,398,0,9,9,9,9,0,,,,,,,1,0,1,0,0,23,23,24,,,,,,,,,,,,,,4,0.9048211999470368,4,0.25,0.2,7.20859,return,1.1863240000093356,,,,,,,,,,,,,,,,,p308,22,female,left_right_width,2025-11-26_13h34.56.245,exp1,2023.1.0,60.07788496163604,
,,,,,,,,,,,,,,,,4,8.65,9.55,10.45,11.35,0,0.9,0.35,0.55,3.25,10,initial,36.05,312,344,377,409,0,9,9,9,9,0,,,,,,,1,0,1,0,0,24,24,28,,,,,,,,,,,,,,3,0.7307224000105634,3,0.35,0.49999999999999994,18.02146,return,1.387442999985069,,,,,,,,,,,,,,,,,p308,22,female,left_right_width,2025-11-26_13h34.56.245,exp1,2023.1.0,60.07788496163604,
,,,,,,,,,,,,,,,,5,8.95,9.475,10,10.525,11.05,0.525,0.275,0.25,2.35,10,match,36.05,323,342,361,379,398,9,9,9,9,9,,,,,,,1,0,1,0,0,25,25,25,,,,,,,,,,,,,,4,0.8081752000143752,4,0.25,0.2,7.20859,return,1.0621989000355825,,,,,,,,,,,,,,,,,p308,22,female,left_right_width,2025-11-26_13h34.56.245,exp1,2023.1.0,60.07788496163604,
,,,,,,,,,,,,,,,,4,9.1,9.7,10.3,10.9,0,0.6000000000000001,0.20000000000000004,0.4,2.2,10,match,36.05,328,350,371,393,0,9,9,9,9,0,,,,,,,1,0,1,0,0,26,26,16,,,,,,,,,,,,,,3,1.029548899969086,3,0.4,0.4,14.41717,return,0.778912500012666,,,,,,,,,,,,,,,,,p308,22,female,left_right_width,2025-11-26_13h34.56.245,exp1,2023.1.0,60.07788496163604,
,,,,,,,,,,,,,,,,5,8.2,9.1,10,10.9,11.8,0.9,0.5,0.4,4,10,initial,36.05,296,328,361,393,425,9,9,9,9,9,,,,,,,1,0,1,0,0,27,27,50,,,,,,,,,,,,,,5,1.129695300012827,5,0.5,0.35000000000000003,12.61502,return,1.1154109999770299,,,,,,,,,,,,,,,,,p308,22,female,left_right_width,2025-11-26_13h34.56.245,exp1,2023.1.0,60.07788496163604,
,,,,,,,,,,,,,,,,3,9.3,10,10.7,0,0,0.7,0.29999999999999993,0.4,1.8,10,initial,36.05,335,361,386,0,0,9,9,9,0,0,,,,,,,1,0,1,0,0,28,28,9,,,,,,,,,,,,,,3,1.3348135000560433,3,0.25,0.35,12.61502,return,1.7132941000163555,,,,,,,,,,,,,,,,,p308,22,female,left_right_width,2025-11-26_13h34.56.245,exp1,2023.1.0,60.07788496163604,
,,,,,,,,,,,,,,,,5,8.65,9.325,10,10.675,11.35,0.675,0.125,0.55,3.25,10,match,36.05,312,336,361,385,409,9,9,9,9,9,,,,,,,1,0,1,0,0,29,29,29,,,,,,,,,,,,,,4,0.8408156000077724,4,0.5,0.5,18.02146,return,0.8230045000091195,,,,,,,,,,,,,,,,,p308,22,female,left_right_width,2025-11-26_13h34.56.245,exp1,2023.1.0,60.07788496163604,
,,,,,,,,,,,,,,,,3,8.2,10,11.8,0,0,1.8,1.55,0.25,3.85,10,match,36.05,296,361,425,0,0,9,9,9,0,0,,,,,,,1,0,1,0,0,30,30,49,,,,,,,,,,,,,,3,0.8159435000270605,3,0.55,0.35000000000000003,12.61502,return,1.3578481000149623,,,,,,,,,,,,,,,,,p308,22,female,left_right_width,2025-11-26_13h34.56.245,exp1,2023.1.0,60.07788496163604,
,,,,,,,,,,,,,,,,4,8.65,9.55,10.45,11.35,0,0.9,0.65,0.25,2.95,10,initial,36.05,312,344,377,409,0,9,9,9,9,0,,,,,,,1,0,1,0,0,31,31,30,,,,,,,,,,,,,,4,0.8160403999499977,4,0.5,0.25000000000000006,9.01073,return,1.7584697999991477,,,,,,,,,,,,,,,,,p308,22,female,left_right_width,2025-11-26_13h34.56.245,exp1,2023.1.0,60.07788496163604,
,,,,,,,,,,,,,,,,3,8.525,10,11.475,0,0,1.475,1.225,0.25,3.2,10,match,36.05,307,361,414,0,0,9,9,9,0,0,,,,,,,1,0,1,0,0,32,32,45,,,,,,,,,,,,,,4,1.01274190004915,4,0.25,0.2,7.20859,return,1.4196510999463499,,,,,,,,,,,,,,,,,p308,22,female,left_right_width,2025-11-26_13h34.56.245,exp1,2023.1.0,60.07788496163604,
,,,,,,,,,,,,,,,,4,8.825,9.608333333333333,10.391666666666667,11.175,0,0.7833333333333333,0.5333333333333333,0.25,2.6,10,match,36.05,318,346,375,403,0,9,9,9,9,0,,,,,,,1,0,1,0,0,33,33,5,,,,,,,,,,,,,,2,0.5766226999694481,2,0.2,0.2,7.20859,return,2.3928049999522045,,,,,,,,,,,,,,,,,p308,22,female,left_right_width,2025-11-26_13h34.56.245,exp1,2023.1.0,60.07788496163604,
,,,,,,,,,,,,,,,,4,9.1,9.7,10.3,10.9,0,0.6,0.04999999999999997,0.55,2.35,10,match,36.05,328,350,371,393,0,9,9,9,9,0,,,,,,,1,0,1,0,0,34,34,12,,,,,,,,,,,,,,4,1.3058921999763697,4,0.5,0.6000000000000001,21.62576,return,1.444621799979359,,,,,,,,,,,,,,,,,p308,22,female,left_right_width,2025-11-26_13h34.56.245,exp1,2023.1.0,60.07788496163604,
,,,,,,,,,,,,,,,,4,8.35,9.45,10.55,11.65,0,1.1,0.8500000000000001,0.25,3.5500000000000003,10,initial,36.05,301,341,380,420,0,9,9,9,9,0,,,,,,,1,0,1,0,0,35,35,19,,,,,,,,,,,,,,3,0.7761091000866145,3,0.45,0.35000000000000003,12.61502,return,0.9994287000736222,,,,,,,,,,,,,,,,,p308,22,female,left_right_width,2025-11-26_13h34.56.245,exp1,2023.1.0,60.07788496163604,
,,,,,,,,,,,,,,,,3,8.2,10,11.8,0,0,1.7999999999999998,1.4,0.4,4,10,match,36.05,296,361,425,0,0,9,9,9,0,0,,,,,,,1,0,1,0,0,36,36,51,,,,,,,,,,,,,,3,1.143784699961543,3,0.5,0.4,14.41717,return,1.2082056000363082,,,,,,,,,,,,,,,,,p308,22,female,left_right_width,2025-11-26_13h34.56.245,exp1,2023.1.0,60.07788496163604,
,,,,,,,,,,,,,,,,4,8.95,9.65,10.35,11.05,0,0.7,0.1499999999999999,0.55,2.65,10,initial,36.05,323,348,373,398,0,9,9,9,9,0,,,,,,,1,0,1,0,0,37,37,23,,,,,,,,,,,,,,3,1.0571761999744922,3,0.3,0.39999999999999997,14.41717,return,1.8942183000035584,,,,,,,,,,,,,,,,,p308,22,female,left_right_width,2025-11-26_13h34.56.245,exp1,2023.1.0,60.07788496163604,
,,,,,,,,,,,,,,,,4,8.9,9.633333333333333,10.366666666666667,11.1,0,0.7333333333333333,0.18333333333333326,0.55,2.75,10,match,36.05,321,347,374,400,0,9,9,9,9,0,,,,,,,1,0,1,0,0,38,38,1,,,,,,,,,,,,,,3,1.277108500013128,3,0.35,0.49999999999999994,18.02146,return,1.5770182000705972,,,,,,,,,,,,,,,,,p308,22,female,left_right_width,2025-11-26_13h34.56.245,exp1,2023.1.0,60.07788496163604,
,,,,,,,,,,,,,,,,5,8.65,9.325,10,10.675,11.35,0.675,0.42500000000000004,0.25,2.95,10,match,36.05,312,336,361,385,409,9,9,9,9,9,,,,,,,1,0,1,0,0,39,39,31,,,,,,,,,,,,,,5,1.4182730000466108,5,0.2,0.25,9.01073,return,2.225296299904585,,,,,,,,,,,,,,,,,p308,22,female,left_right_width,2025-11-26_13h34.56.245,exp1,2023.1.0,60.07788496163604,
,,,,,,,,,,,,,,,,4,9.3,9.766666666666667,10.233333333333333,10.7,0,0.4666666666666667,0.21666666666666665,0.25,1.65,10,match,36.05,335,352,369,386,0,9,9,9,9,0,,,,,,,1,0,1,0,0,40,40,8,,,,,,,,,,,,,,4,0.7130669000325724,4,0.4,0.30000000000000004,10.81288,return,1.3563468999927863,,,,,,,,,,,,,,,,,p308,22,female,left_right_width,2025-11-26_13h34.56.245,exp1,2023.1.0,60.07788496163604,
,,,,,,,,,,,,,,,,5,7.8,8.9,10,11.1,12.2,1.1,0.7000000000000001,0.4,4.800000000000001,10,initial,36.05,281,321,361,400,440,9,9,9,9,9,,,,,,,1,0,1,0,0,41,41,38,,,,,,,,,,,,,,4,1.1658171000890434,4,0.25,0.25,9.01073,return,1.3912509999936447,,,,,,,,,,,,,,,,,p308,22,female,left_right_width,2025-11-26_13h34.56.245,exp1,2023.1.0,60.07788496163604,
,,,,,,,,,,,,,,,,3,8.6,10,11.4,0,0,1.4,0.85,0.55,3.35,10,match,36.05,310,361,411,0,0,9,9,9,0,0,,,,,,,1,0,1,0,0,42,42,41,,,,,,,,,,,,,,3,0.9044769000029191,3,0.5,0.45,16.21932,return,1.0269815000938252,,,,,,,,,,,,,,,,,p308,22,female,left_right_width,2025-11-26_13h34.56.245,exp1,2023.1.0,60.07788496163604,
,,,,,,,,,,,,,,,,3,7.8,10,12.2,0,0,2.2,1.9500000000000002,0.25,4.65,10,match,36.05,281,361,440,0,0,9,9,9,0,0,,,,,,,1,0,1,0,0,43,43,37,,,,,,,,,,,,,,2,1.1432961999671534,2,0.25,0.25,9.01073,return,0.8249263999750838,,,,,,,,,,,,,,,,,p308,22,female,left_right_width,2025-11-26_13h34.56.245,exp1,2023.1.0,60.07788496163604,
,,,,,,,,,,,,,,,,4,9.3,9.766666666666667,10.233333333333333,10.7,0,0.4666666666666667,0.06666666666666665,0.4,1.8,10,match,36.05,335,352,369,386,0,9,9,9,9,0,,,,,,,1,0,1,0,0,44,44,10,,,,,,,,,,,,,,3,0.9544548999983817,3,0.3,0.49999999999999994,18.02146,return,1.4431023000506684,,,,,,,,,,,,,,,,,p308,22,female,left_right_width,2025-11-26_13h34.56.245,exp1,2023.1.0,60.07788496163604,
,,,,,,,,,,,,,,,,3,9.3,10,10.7,0,0,0.7,0.1499999999999999,0.55,1.95,10,initial,36.05,335,361,386,0,0,9,9,9,0,0,,,,,,,1,0,1,0,0,45,45,6,,,,,,,,,,,,,,3,0.7260487000457942,3,0.25,0.39999999999999997,14.41717,return,1.4489344999892637,,,,,,,,,,,,,,,,,p308,22,female,left_right_width,2025-11-26_13h34.56.245,exp1,2023.1.0,60.07788496163604,
,,,,,,,,,,,,,,,,5,8.35,9.175,10,10.825,11.65,0.825,0.575,0.25,3.55,10,match,36.05,301,331,361,390,420,9,9,9,9,9,,,,,,,1,0,1,0,0,46,46,20,,,,,,,,,,,,,,5,1.4075889999512583,5,0.25,0.3,10.81288,return,0.9655577000230551,,,,,,,,,,,,,,,,,p308,22,female,left_right_width,2025-11-26_13h34.56.245,exp1,2023.1.0,60.07788496163604,
,,,,,,,,,,,,,,,,5,8.6,9.3,10,10.7,11.4,0.7,0.29999999999999993,0.4,3.1999999999999997,10,initial,36.05,310,335,361,386,411,9,9,9,9,9,,,,,,,1,0,1,0,0,47,47,44,,,,,,,,,,,,,,5,1.0800887000514194,5,0.55,0.4,14.41717,return,1.132774099940434,,,,,,,,,,,,,,,,,p308,22,female,left_right_width,2025-11-26_13h34.56.245,exp1,2023.1.0,60.07788496163604,
,,,,,,,,,,,,,,,,5,8.2,9.1,10,10.9,11.8,0.9,0.65,0.25,3.85,10,initial,36.05,296,328,361,393,425,9,9,9,9,9,,,,,,,1,0,1,0,0,48,48,48,,,,,,,,,,,,,,5,1.1117839000653476,5,0.45,0.4,14.41717,return,0.968894400051795,,,,,,,,,,,,,,,,,p308,22,female,left_right_width,2025-11-26_13h34.56.245,exp1,2023.1.0,60.07788496163604,
,,,,,,,,,,,,,,,,4,8.9,9.633333333333333,10.366666666666667,11.1,0,0.7333333333333334,0.4833333333333334,0.25,2.45,10,match,36.05,321,347,374,400,0,9,9,9,9,0,,,,,,,1,0,1,0,0,49,49,3,,,,,,,,,,,,,,4,1.190130400005728,4,0.5,0.30000000000000004,10.81288,return,1.3162424999754876,,,,,,,,,,,,,,,,,p308,22,female,left_right_width,2025-11-26_13h34.56.245,exp1,2023.1.0,60.07788496163604,
,,,,,,,,,,,,,,,,4,8.35,9.45,10.55,11.65,0,1.1,0.7000000000000001,0.4,3.7,10,initial,36.05,301,341,380,420,0,9,9,9,9,0,,,,,,,1,0,1,0,0,50,50,21,,,,,,,,,,,,,,3,1.1588986999122426,3,0.35,0.35,12.61502,return,0.8559130999492481,,,,,,,,,,,,,,,,,p308,22,female,left_right_width,2025-11-26_13h34.56.245,exp1,2023.1.0,60.07788496163604,
,,,,,,,,,,,,,,,,4,8.95,9.65,10.35,11.05,0,0.7,0.29999999999999993,0.4,2.5,10,initial,36.05,323,348,373,398,0,9,9,9,9,0,,,,,,,1,0,1,0,0,51,51,26,,,,,,,,,,,,,,4,1.358198000001721,4,0.35,0.35,12.61502,return,1.6239530999446288,,,,,,,,,,,,,,,,,p308,22,female,left_right_width,2025-11-26_13h34.56.245,exp1,2023.1.0,60.07788496163604,
,,,,,,,,,,,,,,,,,,,,,,,,,,,,,,,,,,,,,,,,,,,,,1,0,1,0,,,,,,,,,,,,,,,,,,,,,,,,,,,,1476.8445219999412,1476.8445219999412,1476.8445219999412,,,,,,,,,,,,p308,22,female,left_right_width,2025-11-26_13h34.56.245,exp1,2023.1.0,60.07788496163604,
,,,,,,,,,,,,,,,,5,8.95,9.475,10,10.525,11.05,0.525,0.125,0.4,2.5,10,match,36.05,323,342,361,379,398,9,9,9,9,9,,,,,,,2,0,2,0,0,0,0,27,,,,,,,,,,,,,,4,0.9328537000110373,4,0.25,0.35,12.61502,return,1.6161453999811783,,,,,,,,,,,,,,,,,p308,22,female,left_right_width,2025-11-26_13h34.56.245,exp1,2023.1.0,60.07788496163604,
,,,,,,,,,,,,,,,,4,8.35,9.45,10.55,11.65,0,1.1,0.8500000000000001,0.25,3.5500000000000003,10,initial,36.05,301,341,380,420,0,9,9,9,9,0,,,,,,,2,0,2,0,0,1,1,19,,,,,,,,,,,,,,4,0.9499120999826118,4,0.45,0.25000000000000006,9.01073,return,1.1042156000621617,,,,,,,,,,,,,,,,,p308,22,female,left_right_width,2025-11-26_13h34.56.245,exp1,2023.1.0,60.07788496163604,
,,,,,,,,,,,,,,,,3,8.2,10,11.8,0,0,1.8,1.55,0.25,3.85,10,match,36.05,296,361,425,0,0,9,9,9,0,0,,,,,,,2,0,2,0,0,2,2,49,,,,,,,,,,,,,,3,0.9884933000430465,3,0.35,0.25,9.01073,return,1.170922200079076,,,,,,,,,,,,,,,,,p308,22,female,left_right_width,2025-11-26_13h34.56.245,exp1,2023.1.0,60.07788496163604,
,,,,,,,,,,,,,,,,4,9.3,9.766666666666667,10.233333333333333,10.7,0,0.4666666666666667,0.06666666666666665,0.4,1.8,10,match,36.05,335,352,369,386,0,9,9,9,9,0,,,,,,,2,0,2,0,0,3,3,10,,,,,,,,,,,,,,3,1.1062404999975115,3,0.55,0.55,19.82361,return,0.8358484999043867,,,,,,,,,,,,,,,,,p308,22,female,left_right_width,2025-11-26_13h34.56.245,exp1,2023.1.0,60.07788496163604,
,,,,,,,,,,,,,,,,3,9.3,10,10.7,0,0,0.7,0.1499999999999999,0.55,1.95,10,initial,36.05,335,361,386,0,0,9,9,9,0,0,,,,,,,2,0,2,0,0,4,4,6,,,,,,,,,,,,,,3,1.1889158999547362,3,0.25,0.5499999999999999,19.82361,return,2.245632499922067,,,,,,,,,,,,,,,,,p308,22,female,left_right_width,2025-11-26_13h34.56.245,exp1,2023.1.0,60.07788496163604,
,,,,,,,,,,,,,,,,5,8.65,9.325,10,10.675,11.35,0.675,0.275,0.4,3.1,10,match,36.05,312,336,361,385,409,9,9,9,9,9,,,,,,,2,0,2,0,0,5,5,33,,,,,,,,,,,,,,4,0.8177528999513015,4,0.3,0.35,12.61502,return,1.2163466999772936,,,,,,,,,,,,,,,,,p308,22,female,left_right_width,2025-11-26_13h34.56.245,exp1,2023.1.0,60.07788496163604,
,,,,,,,,,,,,,,,,3,8.6,10,11.4,0,0,1.4,0.85,0.55,3.35,10,match,36.05,310,361,411,0,0,9,9,9,0,0,,,,,,,2,0,2,0,0,6,6,41,,,,,,,,,,,,,,3,1.0728578000562266,3,0.3,0.49999999999999994,18.02146,return,2.1813142999308184,,,,,,,,,,,,,,,,,p308,22,female,left_right_width,2025-11-26_13h34.56.245,exp1,2023.1.0,60.07788496163604,
,,,,,,,,,,,,,,,,4,8.35,9.45,10.55,11.65,0,1.1,0.55,0.55,3.8500000000000005,10,initial,36.05,301,341,380,420,0,9,9,9,9,0,,,,,,,2,0,2,0,0,7,7,17,,,,,,,,,,,,,,4,0.9513193999882787,4,0.4,0.55,19.82361,return,1.008018899941817,,,,,,,,,,,,,,,,,p308,22,female,left_right_width,2025-11-26_13h34.56.245,exp1,2023.1.0,60.07788496163604,
,,,,,,,,,,,,,,,,5,8.95,9.475,10,10.525,11.05,0.525,0.275,0.25,2.35,10,match,36.05,323,342,361,379,398,9,9,9,9,9,,,,,,,2,0,2,0,0,8,8,25,,,,,,,,,,,,,,4,0.7841347000794485,4,0.45,0.35000000000000003,12.61502,return,1.264284300035797,,,,,,,,,,,,,,,,,p308,22,female,left_right_width,2025-11-26_13h34.56.245,exp1,2023.1.0,60.07788496163604,
,,,,,,,,,,,,,,,,3,8.9,10,11.1,0,0,1.1,0.8500000000000001,0.25,2.45,10,initial,36.05,321,361,400,0,0,9,9,9,0,0,,,,,,,2,0,2,0,0,9,9,2,,,,,,,,,,,,,,3,1.183091500075534,3,0.35,0.3,10.81288,return,1.0700980999972671,,,,,,,,,,,,,,,,,p308,22,female,left_right_width,2025-11-26_13h34.56.245,exp1,2023.1.0,60.07788496163604,
,,,,,,,,,,,,,,,,4,8.9,9.633333333333333,10.366666666666667,11.1,0,0.7333333333333334,0.4833333333333334,0.25,2.45,10,match,36.05,321,347,374,400,0,9,9,9,9,0,,,,,,,2,0,2,0,0,10,10,3,,,,,,,,,,,,,,4,1.1728745999280363,4,0.45,0.25000000000000006,9.01073,return,1.7163490999955684,,,,,,,,,,,,,,,,,p308,22,female,left_right_width,2025-11-26_13h34.56.245,exp1,2023.1.0,60.07788496163604,
,,,,,,,,,,,,,,,,3,8.9,10,11.1,0,0,1.1,0.55,0.55,2.75,10,initial,36.05,321,361,400,0,0,9,9,9,0,0,,,,,,,2,0,2,0,0,11,11,0,,,,,,,,,,,,,,3,1.0256211999803782,3,0.25,0.44999999999999996,16.21932,return,2.2947825000155717,,,,,,,,,,,,,,,,,p308,22,female,left_right_width,2025-11-26_13h34.56.245,exp1,2023.1.0,60.07788496163604,
,,,,,,,,,,,,,,,,4,8.825,9.608333333333333,10.391666666666667,11.175,0,0.7833333333333333,0.5333333333333333,0.25,2.6,10,match,36.05,318,346,375,403,0,9,9,9,9,0,,,,,,,2,0,2,0,0,12,12,5,,,,,,,,,,,,,,5,1.1768325999146327,5,0.5,0.30000000000000004,10.81288,return,5.896931000053883,,,,,,,,,,,,,,,,,p308,22,female,left_right_width,2025-11-26_13h34.56.245,exp1,2023.1.0,60.07788496163604,
,,,,,,,,,,,,,,,,5,7.8,8.9,10,11.1,12.2,1.1,0.55,0.55,4.95,10,initial,36.05,281,321,361,400,440,9,9,9,9,9,,,,,,,2,0,2,0,0,13,13,34,,,,,,,,,,,,,,5,1.8011295000324026,5,0.3,0.49999999999999994,18.02146,return,3.5998693000292405,,,,,,,,,,,,,,,,,p308,22,female,left_right_width,2025-11-26_13h34.56.245,exp1,2023.1.0,60.07788496163604,
,,,,,,,,,,,,,,,,4,9.1,9.7,10.3,10.9,0,0.6,0.04999999999999997,0.55,2.35,10,match,36.05,328,350,371,393,0,9,9,9,9,0,,,,,,,2,0,2,0,0,14,14,12,,,,,,,,,,,,,,3,1.0895900999894366,3,0.3,0.65,23.4279,return,2.452349800034426,,,,,,,,,,,,,,,,,p308,22,female,left_right_width,2025-11-26_13h34.56.245,exp1,2023.1.0,60.07788496163604,
,,,,,,,,,,,,,,,,3,9.3,10,10.7,0,0,0.7,0.44999999999999996,0.25,1.65,10,initial,36.05,335,361,386,0,0,9,9,9,0,0,,,,,,,2,0,2,0,0,15,15,7,,,,,,,,,,,,,,3,1.2122957999818027,3,0.3,0.25,9.01073,return,0.842907200101763,,,,,,,,,,,,,,,,,p308,22,female,left_right_width,2025-11-26_13h34.56.245,exp1,2023.1.0,60.07788496163604,
,,,,,,,,,,,,,,,,4,8.35,9.45,10.55,11.65,0,1.1,0.7000000000000001,0.4,3.7,10,initial,36.05,301,341,380,420,0,9,9,9,9,0,,,,,,,2,0,2,0,0,16,16,21,,,,,,,,,,,,,,4,0.9048491000430658,4,0.5,0.4,14.41717,return,2.068071399931796,,,,,,,,,,,,,,,,,p308,22,female,left_right_width,2025-11-26_13h34.56.245,exp1,2023.1.0,60.07788496163604,
,,,,,,,,,,,,,,,,4,8.95,9.65,10.35,11.05,0,0.7,0.44999999999999996,0.25,2.3499999999999996,10,initial,36.05,323,348,373,398,0,9,9,9,9,0,,,,,,,2,0,2,0,0,17,17,24,,,,,,,,,,,,,,4,1.3840047999983653,4,0.2,0.3,10.81288,return,1.9674758000764996,,,,,,,,,,,,,,,,,p308,22,female,left_right_width,2025-11-26_13h34.56.245,exp1,2023.1.0,60.07788496163604,
,,,,,,,,,,,,,,,,5,8.275,9.1375,10,10.8625,11.725,0.8625,0.6125,0.25,3.7,10,match,36.05,298,329,361,392,423,9,9,9,9,9,,,,,,,2,0,2,0,0,18,18,22,,,,,,,,,,,,,,5,1.7161052000010386,5,0.3,0.3,10.81288,return,0.9269544000271708,,,,,,,,,,,,,,,,,p308,22,female,left_right_width,2025-11-26_13h34.56.245,exp1,2023.1.0,60.07788496163604,
,,,,,,,,,,,,,,,,4,8.65,9.55,10.45,11.35,0,0.9,0.5,0.4,3.1,10,initial,36.05,312,344,377,409,0,9,9,9,9,0,,,,,,,2,0,2,0,0,19,19,32,,,,,,,,,,,,,,4,1.1494027998996899,4,0.4,0.4,14.41717,return,0.8779775999719277,,,,,,,,,,,,,,,,,p308,22,female,left_right_width,2025-11-26_13h34.56.245,exp1,2023.1.0,60.07788496163604,
,,,,,,,,,,,,,,,,5,7.8,8.9,10,11.1,12.2,1.1,0.7000000000000001,0.4,4.800000000000001,10,initial,36.05,281,321,361,400,440,9,9,9,9,9,,,,,,,2,0,2,0,0,20,20,38,,,,,,,,,,,,,,5,1.1609520999481902,5,0.55,0.45,16.21932,return,1.3202787999762222,,,,,,,,,,,,,,,,,p308,22,female,left_right_width,2025-11-26_13h34.56.245,exp1,2023.1.0,60.07788496163604,
,,,,,,,,,,,,,,,,3,9.1,10,10.9,0,0,0.9,0.5,0.4,2.2,10,initial,36.05,328,361,393,0,0,9,9,9,0,0,,,,,,,2,0,2,0,0,21,21,15,,,,,,,,,,,,,,3,1.1915306999580935,3,0.55,0.45,16.21932,return,1.2859225999563932,,,,,,,,,,,,,,,,,p308,22,female,left_right_width,2025-11-26_13h34.56.245,exp1,2023.1.0,60.07788496163604,
,,,,,,,,,,,,,,,,3,8.525,10,11.475,0,0,1.475,1.225,0.25,3.2,10,match,36.05,307,361,414,0,0,9,9,9,0,0,,,,,,,2,0,2,0,0,22,22,45,,,,,,,,,,,,,,3,0.9339554000180215,3,0.35,0.35,12.61502,return,1.343652099953033,,,,,,,,,,,,,,,,,p308,22,female,left_right_width,2025-11-26_13h34.56.245,exp1,2023.1.0,60.07788496163604,
,,,,,,,,,,,,,,,,5,8.35,9.175,10,10.825,11.65,0.8250000000000001,0.275,0.55,3.85,10,match,36.05,301,331,361,390,420,9,9,9,9,9,,,,,,,2,0,2,0,0,23,23,18,,,,,,,,,,,,,,5,1.3055339000420645,5,0.55,0.5,18.02146,return,2.02173080004286,,,,,,,,,,,,,,,,,p308,22,female,left_right_width,2025-11-26_13h34.56.245,exp1,2023.1.0,60.07788496163604,
,,,,,,,,,,,,,,,,4,8.95,9.65,10.35,11.05,0,0.7,0.29999999999999993,0.4,2.5,10,initial,36.05,323,348,373,398,0,9,9,9,9,0,,,,,,,2,0,2,0,0,24,24,26,,,,,,,,,,,,,,3,1.2967655999818817,3,0.2,0.3,10.81288,return,1.5491531000006944,,,,,,,,,,,,,,,,,p308,22,female,left_right_width,2025-11-26_13h34.56.245,exp1,2023.1.0,60.07788496163604,
,,,,,,,,,,,,,,,,3,9.1,10,10.9,0,0,0.9,0.35,0.55,2.35,10,initial,36.05,328,361,393,0,0,9,9,9,0,0,,,,,,,2,0,2,0,0,25,25,11,,,,,,,,,,,,,,3,1.2587798000313342,3,0.55,0.55,19.82361,return,0.6328608000185341,,,,,,,,,,,,,,,,,p308,22,female,left_right_width,2025-11-26_13h34.56.245,exp1,2023.1.0,60.07788496163604,
,,,,,,,,,,,,,,,,3,8.2,10,11.8,0,0,1.7999999999999998,1.4,0.4,4,10,match,36.05,296,361,425,0,0,9,9,9,0,0,,,,,,,2,0,2,0,0,26,26,51,,,,,,,,,,,,,,3,0.6034284000052139,3,0.45,0.4,14.41717,return,1.2032483000075445,,,,,,,,,,,,,,,,,p308,22,female,left_right_width,2025-11-26_13h34.56.245,exp1,2023.1.0,60.07788496163604,
,,,,,,,,,,,,,,,,3,7.800000000000001,10,12.2,0,0,2.1999999999999997,1.7999999999999998,0.4,4.8,10,match,36.05,281,361,440,0,0,9,9,9,0,0,,,,,,,2,0,2,0,0,27,27,39,,,,,,,,,,,,,,3,0.5964530000928789,3,0.35,0.35,12.61502,return,0.7630646000616252,,,,,,,,,,,,,,,,,p308,22,female,left_right_width,2025-11-26_13h34.56.245,exp1,2023.1.0,60.07788496163604,
,,,,,,,,,,,,,,,,3,9.3,10,10.7,0,0,0.7,0.29999999999999993,0.4,1.8,10,initial,36.05,335,361,386,0,0,9,9,9,0,0,,,,,,,2,0,2,0,0,28,28,9,,,,,,,,,,,,,,3,1.3422703000251204,3,0.5,0.55,19.82361,return,1.1102051000343636,,,,,,,,,,,,,,,,,p308,22,female,left_right_width,2025-11-26_13h34.56.245,exp1,2023.1.0,60.07788496163604,
,,,,,,,,,,,,,,,,5,8.2,9.1,10,10.9,11.8,0.9,0.5,0.4,4,10,initial,36.05,296,328,361,393,425,9,9,9,9,9,,,,,,,2,0,2,0,0,29,29,50,,,,,,,,,,,,,,5,1.3888253000332043,5,0.4,0.4,14.41717,return,0.900849899975583,,,,,,,,,,,,,,,,,p308,22,female,left_right_width,2025-11-26_13h34.56.245,exp1,2023.1.0,60.07788496163604,
,,,,,,,,,,,,,,,,4,9.1,9.7,10.3,10.9,0,0.5999999999999999,0.3499999999999999,0.25,2.05,10,match,36.05,328,350,371,393,0,9,9,9,9,0,,,,,,,2,0,2,0,0,30,30,14,,,,,,,,,,,,,,4,1.2089126000646502,4,0.25,0.25,9.01073,return,0.9677228999789804,,,,,,,,,,,,,,,,,p308,22,female,left_right_width,2025-11-26_13h34.56.245,exp1,2023.1.0,60.07788496163604,
,,,,,,,,,,,,,,,,4,8.95,9.65,10.35,11.05,0,0.7,0.1499999999999999,0.55,2.65,10,initial,36.05,323,348,373,398,0,9,9,9,9,0,,,,,,,2,0,2,0,0,31,31,23,,,,,,,,,,,,,,4,1.2569150999188423,4,0.5,0.55,19.82361,return,1.8131167000392452,,,,,,,,,,,,,,,,,p308,22,female,left_right_width,2025-11-26_13h34.56.245,exp1,2023.1.0,60.07788496163604,
,,,,,,,,,,,,,,,,5,7.8,8.9,10,11.1,12.2,1.1,0.8500000000000001,0.25,4.65,10,initial,36.05,281,321,361,400,440,9,9,9,9,9,,,,,,,2,0,2,0,0,32,32,36,,,,,,,,,,,,,,3,0.9328510999912396,3,0.5,0.4,14.41717,return,1.5662887999787927,,,,,,,,,,,,,,,,,p308,22,female,left_right_width,2025-11-26_13h34.56.245,exp1,2023.1.0,60.07788496163604,
,,,,,,,,,,,,,,,,4,8.9,9.633333333333333,10.366666666666667,11.1,0,0.7333333333333333,0.18333333333333326,0.55,2.75,10,match,36.05,321,347,374,400,0,9,9,9,9,0,,,,,,,2,0,2,0,0,33,33,1,,,,,,,,,,,,,,4,0.688158500008285,4,0.5,0.5,18.02146,return,0.7881374000571668,,,,,,,,,,,,,,,,,p308,22,female,left_right_width,2025-11-26_13h34.56.245,exp1,2023.1.0,60.07788496163604,
,,,,,,,,,,,,,,,,5,8.6,9.3,10,10.7,11.4,0.7,0.29999999999999993,0.4,3.1999999999999997,10,initial,36.05,310,335,361,386,411,9,9,9,9,9,,,,,,,2,0,2,0,0,34,34,44,,,,,,,,,,,,,,5,1.1888916000025347,5,0.55,0.45,16.21932,return,1.4936235999921337,,,,,,,,,,,,,,,,,p308,22,female,left_right_width,2025-11-26_13h34.56.245,exp1,2023.1.0,60.07788496163604,
,,,,,,,,,,,,,,,,4,9.3,9.766666666666667,10.233333333333333,10.7,0,0.4666666666666667,0.21666666666666665,0.25,1.65,10,match,36.05,335,352,369,386,0,9,9,9,9,0,,,,,,,2,0,2,0,0,35,35,8,,,,,,,,,,,,,,4,1.2327321999473497,4,0.25,0.25,9.01073,return,1.022803399944678,,,,,,,,,,,,,,,,,p308,22,female,left_right_width,2025-11-26_13h34.56.245,exp1,2023.1.0,60.07788496163604,
,,,,,,,,,,,,,,,,3,9.1,10,10.9,0,0,0.9,0.65,0.25,2.05,10,initial,36.05,328,361,393,0,0,9,9,9,0,0,,,,,,,2,0,2,0,0,36,36,13,,,,,,,,,,,,,,3,0.7643750000279397,3,0.4,0.30000000000000004,10.81288,return,2.108609300106764,,,,,,,,,,,,,,,,,p308,22,female,left_right_width,2025-11-26_13h34.56.245,exp1,2023.1.0,60.07788496163604,
,,,,,,,,,,,,,,,,5,8.2,9.1,10,10.9,11.8,0.9,0.35,0.55,4.15,10,initial,36.05,296,328,361,393,425,9,9,9,9,9,,,,,,,2,0,2,0,0,37,37,46,,,,,,,,,,,,,,4,0.7683984000468627,4,0.5,0.5,18.02146,return,0.9279046999290586,,,,,,,,,,,,,,,,,p308,22,female,left_right_width,2025-11-26_13h34.56.245,exp1,2023.1.0,60.07788496163604,
,,,,,,,,,,,,,,,,5,8.35,9.175,10,10.825,11.65,0.825,0.575,0.25,3.55,10,match,36.05,301,331,361,390,420,9,9,9,9,9,,,,,,,2,0,2,0,0,38,38,20,,,,,,,,,,,,,,5,1.5479298999998719,5,0.4,0.25000000000000006,9.01073,return,1.0683611000422388,,,,,,,,,,,,,,,,,p308,22,female,left_right_width,2025-11-26_13h34.56.245,exp1,2023.1.0,60.07788496163604,
,,,,,,,,,,,,,,,,5,8.65,9.325,10,10.675,11.35,0.675,0.125,0.55,3.25,10,match,36.05,312,336,361,385,409,9,9,9,9,9,,,,,,,2,0,2,0,0,39,39,29,,,,,,,,,,,,,,4,1.1668797000311315,4,0.25,0.44999999999999996,16.21932,return,1.4888195999665186,,,,,,,,,,,,,,,,,p308,22,female,left_right_width,2025-11-26_13h34.56.245,exp1,2023.1.0,60.07788496163604,
,,,,,,,,,,,,,,,,3,7.8,10,12.2,0,0,2.2,1.65,0.55,4.95,10,match,36.05,281,361,440,0,0,9,9,9,0,0,,,,,,,2,0,2,0,0,40,40,35,,,,,,,,,,,,,,2,1.1576520999660715,2,0.35,0.44999999999999996,16.21932,return,1.142380499979481,,,,,,,,,,,,,,,,,p308,22,female,left_right_width,2025-11-26_13h34.56.245,exp1,2023.1.0,60.07788496163604,
,,,,,,,,,,,,,,,,3,7.8,10,12.2,0,0,2.2,1.9500000000000002,0.25,4.65,10,match,36.05,281,361,440,0,0,9,9,9,0,0,,,,,,,2,0,2,0,0,41,41,37,,,,,,,,,,,,,,2,0.7472649000119418,2,0.5,0.25000000000000006,9.01073,return,1.85163020004984,,,,,,,,,,,,,,,,,p308,22,female,left_right_width,2025-11-26_13h34.56.245,exp1,2023.1.0,60.07788496163604,
,,,,,,,,,,,,,,,,3,8.2,10,11.8,0,0,1.8,1.25,0.55,4.15,10,match,36.05,296,361,425,0,0,9,9,9,0,0,,,,,,,2,0,2,0,0,42,42,47,,,,,,,,,,,,,,2,0.5942017999477684,2,0.5,0.6000000000000001,21.62576,return,1.2589023999171332,,,,,,,,,,,,,,,,,p308,22,female,left_right_width,2025-11-26_13h34.56.245,exp1,2023.1.0,60.07788496163604,
,,,,,,,,,,,,,,,,5,8.6,9.3,10,10.7,11.4,0.7,0.44999999999999996,0.25,3.05,10,initial,36.05,310,335,361,386,411,9,9,9,9,9,,,,,,,2,0,2,0,0,43,43,42,,,,,,,,,,,,,,3,1.4453734999988228,3,0.3,0.3,10.81288,return,0.7624820999335498,,,,,,,,,,,,,,,,,p308,22,female,left_right_width,2025-11-26_13h34.56.245,exp1,2023.1.0,60.07788496163604,
,,,,,,,,,,,,,,,,4,9.1,9.7,10.3,10.9,0,0.6000000000000001,0.20000000000000004,0.4,2.2,10,match,36.05,328,350,371,393,0,9,9,9,9,0,,,,,,,2,0,2,0,0,44,44,16,,,,,,,,,,,,,,4,0.8685045000165701,4,0.4,0.4,14.41717,return,0.7219620000105351,,,,,,,,,,,,,,,,,p308,22,female,left_right_width,2025-11-26_13h34.56.245,exp1,2023.1.0,60.07788496163604,
,,,,,,,,,,,,,,,,5,8.65,9.325,10,10.675,11.35,0.675,0.42500000000000004,0.25,2.95,10,match,36.05,312,336,361,385,409,9,9,9,9,9,,,,,,,2,0,2,0,0,45,45,31,,,,,,,,,,,,,,4,0.9325399999506772,4,0.45,0.20000000000000007,7.20859,return,1.3112720999633893,,,,,,,,,,,,,,,,,p308,22,female,left_right_width,2025-11-26_13h34.56.245,exp1,2023.1.0,60.07788496163604,
,,,,,,,,,,,,,,,,5,8.2,9.1,10,10.9,11.8,0.9,0.65,0.25,3.85,10,initial,36.05,296,328,361,393,425,9,9,9,9,9,,,,,,,2,0,2,0,0,46,46,48,,,,,,,,,,,,,,4,0.637382399989292,4,0.45,0.25000000000000006,9.01073,return,1.1709813999477774,,,,,,,,,,,,,,,,,p308,22,female,left_right_width,2025-11-26_13h34.56.245,exp1,2023.1.0,60.07788496163604,
,,,,,,,,,,,,,,,,4,8.65,9.55,10.45,11.35,0,0.9,0.65,0.25,2.95,10,initial,36.05,312,344,377,409,0,9,9,9,9,0,,,,,,,2,0,2,0,0,47,47,30,,,,,,,,,,,,,,4,0.9711077999090776,4,0.55,0.30000000000000004,10.81288,return,1.3953724999446422,,,,,,,,,,,,,,,,,p308,22,female,left_right_width,2025-11-26_13h34.56.245,exp1,2023.1.0,60.07788496163604,
,,,,,,,,,,,,,,,,3,8.9,10,11.1,0,0,1.1,0.7000000000000001,0.4,2.6000000000000005,10,initial,36.05,321,361,400,0,0,9,9,9,0,0,,,,,,,2,0,2,0,0,48,48,4,,,,,,,,,,,,,,2,0.6388469999656081,2,0.3,0.44999999999999996,16.21932,return,1.4608329000184312,,,,,,,,,,,,,,,,,p308,22,female,left_right_width,2025-11-26_13h34.56.245,exp1,2023.1.0,60.07788496163604,
,,,,,,,,,,,,,,,,4,8.65,9.55,10.45,11.35,0,0.9,0.35,0.55,3.25,10,initial,36.05,312,344,377,409,0,9,9,9,9,0,,,,,,,2,0,2,0,0,49,49,28,,,,,,,,,,,,,,4,0.7159873000346124,4,0.55,0.55,19.82361,return,0.830874599982053,,,,,,,,,,,,,,,,,p308,22,female,left_right_width,2025-11-26_13h34.56.245,exp1,2023.1.0,60.07788496163604,
,,,,,,,,,,,,,,,,5,8.6,9.3,10,10.7,11.4,0.7,0.1499999999999999,0.55,3.3499999999999996,10,initial,36.05,310,335,361,386,411,9,9,9,9,9,,,,,,,2,0,2,0,0,50,50,40,,,,,,,,,,,,,,5,1.4416508000576869,5,0.3,0.49999999999999994,18.02146,return,1.8143815000075847,,,,,,,,,,,,,,,,,p308,22,female,left_right_width,2025-11-26_13h34.56.245,exp1,2023.1.0,60.07788496163604,
,,,,,,,,,,,,,,,,3,8.6,10,11.4,0,0,1.4,1.15,0.25,3.05,10,match,36.05,310,361,411,0,0,9,9,9,0,0,,,,,,,2,0,2,0,0,51,51,43,,,,,,,,,,,,,,2,1.1276106999721378,2,0.45,0.30000000000000004,10.81288,return,1.336640699999407,,,,,,,,,,,,,,,,,p308,22,female,left_right_width,2025-11-26_13h34.56.245,exp1,2023.1.0,60.07788496163604,
,,,,,,,,,,,,,,,,,,,,,,,,,,,,,,,,,,,,,,,,,,,,,2,0,2,0,,,,,,,,,,,,,,,,,,,,,,,,,,,,1718.127820899943,1718.127820899943,1718.127820899943,,,,,,,,,,,,p308,22,female,left_right_width,2025-11-26_13h34.56.245,exp1,2023.1.0,60.07788496163604,
,,,,,,,,,,,,,,,,4,8.95,9.65,10.35,11.05,0,0.7,0.44999999999999996,0.25,2.3499999999999996,10,initial,36.05,323,348,373,398,0,9,9,9,9,0,,,,,,,3,0,3,0,0,0,0,24,,,,,,,,,,,,,,4,1.2289925999939442,4,0.3,0.3,10.81288,return,0.7789404999930412,,,,,,,,,,,,,,,,,p308,22,female,left_right_width,2025-11-26_13h34.56.245,exp1,2023.1.0,60.07788496163604,
,,,,,,,,,,,,,,,,4,9.3,9.766666666666667,10.233333333333333,10.7,0,0.4666666666666667,0.06666666666666665,0.4,1.8,10,match,36.05,335,352,369,386,0,9,9,9,9,0,,,,,,,3,0,3,0,0,1,1,10,,,,,,,,,,,,,,4,0.8518378000007942,4,0.25,0.39999999999999997,14.41717,return,1.2328766999999061,,,,,,,,,,,,,,,,,p308,22,female,left_right_width,2025-11-26_13h34.56.245,exp1,2023.1.0,60.07788496163604,
,,,,,,,,,,,,,,,,5,8.65,9.325,10,10.675,11.35,0.675,0.275,0.4,3.1,10,match,36.05,312,336,361,385,409,9,9,9,9,9,,,,,,,3,0,3,0,0,2,2,33,,,,,,,,,,,,,,4,0.8990784999914467,4,0.55,0.45,16.21932,return,1.3737931000068784,,,,,,,,,,,,,,,,,p308,22,female,left_right_width,2025-11-26_13h34.56.245,exp1,2023.1.0,60.07788496163604,
,,,,,,,,,,,,,,,,5,8.2,9.1,10,10.9,11.8,0.9,0.65,0.25,3.85,10,initial,36.05,296,328,361,393,425,9,9,9,9,9,,,,,,,3,0,3,0,0,3,3,48,,,,,,,,,,,,,,4,0.9202631000662223,4,0.25,0.25,9.01073,return,0.8016604000004008,,,,,,,,,,,,,,,,,p308,22,female,left_right_width,2025-11-26_13h34.56.245,exp1,2023.1.0,60.07788496163604,
,,,,,,,,,,,,,,,,5,7.8,8.9,10,11.1,12.2,1.1,0.8500000000000001,0.25,4.65,10,initial,36.05,281,321,361,400,440,9,9,9,9,9,,,,,,,3,0,3,0,0,4,4,36,,,,,,,,,,,,,,5,1.2022347999736667,5,0.5,0.30000000000000004,10.81288,return,139.47363269992638,,,,,,,,,,,,,,,,,p308,22,female,left_right_width,2025-11-26_13h34.56.245,exp1,2023.1.0,60.07788496163604,
,,,,,,,,,,,,,,,,3,8.9,10,11.1,0,0,1.1,0.55,0.55,2.75,10,initial,36.05,321,361,400,0,0,9,9,9,0,0,,,,,,,3,0,3,0,0,5,5,0,,,,,,,,,,,,,,3,0.8422694000182673,3,0.25,0.39999999999999997,14.41717,return,1.6388688000151888,,,,,,,,,,,,,,,,,p308,22,female,left_right_width,2025-11-26_13h34.56.245,exp1,2023.1.0,60.07788496163604,
,,,,,,,,,,,,,,,,5,8.2,9.1,10,10.9,11.8,0.9,0.35,0.55,4.15,10,initial,36.05,296,328,361,393,425,9,9,9,9,9,,,,,,,3,0,3,0,0,6,6,46,,,,,,,,,,,,,,5,1.0159363999264315,5,0.4,0.4,14.41717,return,0.5272585999919102,,,,,,,,,,,,,,,,,p308,22,female,left_right_width,2025-11-26_13h34.56.245,exp1,2023.1.0,60.07788496163604,
,,,,,,,,,,,,,,,,5,8.95,9.475,10,10.525,11.05,0.525,0.125,0.4,2.5,10,match,36.05,323,342,361,379,398,9,9,9,9,9,,,,,,,3,0,3,0,0,7,7,27,,,,,,,,,,,,,,5,0.769158500013873,5,0.5,0.35000000000000003,12.61502,return,1.4096263999817893,,,,,,,,,,,,,,,,,p308,22,female,left_right_width,2025-11-26_13h34.56.245,exp1,2023.1.0,60.07788496163604,
,,,,,,,,,,,,,,,,5,8.6,9.3,10,10.7,11.4,0.7,0.1499999999999999,0.55,3.3499999999999996,10,initial,36.05,310,335,361,386,411,9,9,9,9,9,,,,,,,3,0,3,0,0,8,8,40,,,,,,,,,,,,,,5,0.8016027000267059,5,0.45,0.45,16.21932,return,0.6726229999912903,,,,,,,,,,,,,,,,,p308,22,female,left_right_width,2025-11-26_13h34.56.245,exp1,2023.1.0,60.07788496163604,
,,,,,,,,,,,,,,,,3,8.6,10,11.4,0,0,1.4,0.85,0.55,3.35,10,match,36.05,310,361,411,0,0,9,9,9,0,0,,,,,,,3,0,3,0,0,9,9,41,,,,,,,,,,,,,,3,0.9941774000180885,3,0.55,0.45,16.21932,return,1.4342007999075577,,,,,,,,,,,,,,,,,p308,22,female,left_right_width,2025-11-26_13h34.56.245,exp1,2023.1.0,60.07788496163604,
,,,,,,,,,,,,,,,,4,8.35,9.45,10.55,11.65,0,1.1,0.7000000000000001,0.4,3.7,10,initial,36.05,301,341,380,420,0,9,9,9,9,0,,,,,,,3,0,3,0,0,10,10,21,,,,,,,,,,,,,,4,1.090343500021845,4,0.35,0.35,12.61502,return,0.6775685000466183,,,,,,,,,,,,,,,,,p308,22,female,left_right_width,2025-11-26_13h34.56.245,exp1,2023.1.0,60.07788496163604,
,,,,,,,,,,,,,,,,5,8.95,9.475,10,10.525,11.05,0.525,0.275,0.25,2.35,10,match,36.05,323,342,361,379,398,9,9,9,9,9,,,,,,,3,0,3,0,0,11,11,25,,,,,,,,,,,,,,5,1.0187384999589995,5,0.5,0.25000000000000006,9.01073,return,1.7449942000675946,,,,,,,,,,,,,,,,,p308,22,female,left_right_width,2025-11-26_13h34.56.245,exp1,2023.1.0,60.07788496163604,
,,,,,,,,,,,,,,,,5,8.6,9.3,10,10.7,11.4,0.7,0.29999999999999993,0.4,3.1999999999999997,10,initial,36.05,310,335,361,386,411,9,9,9,9,9,,,,,,,3,0,3,0,0,12,12,44,,,,,,,,,,,,,,4,0.7500096000730991,4,0.35,0.3,10.81288,return,1.0229863000568002,,,,,,,,,,,,,,,,,p308,22,female,left_right_width,2025-11-26_13h34.56.245,exp1,2023.1.0,60.07788496163604,
,,,,,,,,,,,,,,,,3,7.800000000000001,10,12.2,0,0,2.1999999999999997,1.7999999999999998,0.4,4.8,10,match,36.05,281,361,440,0,0,9,9,9,0,0,,,,,,,3,0,3,0,0,13,13,39,,,,,,,,,,,,,,2,0.6915016000857577,2,0.4,0.30000000000000004,10.81288,return,1.1749726999551058,,,,,,,,,,,,,,,,,p308,22,female,left_right_width,2025-11-26_13h34.56.245,exp1,2023.1.0,60.07788496163604,
,,,,,,,,,,,,,,,,3,9.3,10,10.7,0,0,0.7,0.44999999999999996,0.25,1.65,10,initial,36.05,335,361,386,0,0,9,9,9,0,0,,,,,,,3,0,3,0,0,14,14,7,,,,,,,,,,,,,,2,0.5549281000858173,2,0.5,0.35000000000000003,12.61502,return,1.4284155000932515,,,,,,,,,,,,,,,,,p308,22,female,left_right_width,2025-11-26_13h34.56.245,exp1,2023.1.0,60.07788496163604,
,,,,,,,,,,,,,,,,3,8.6,10,11.4,0,0,1.4,1.15,0.25,3.05,10,match,36.05,310,361,411,0,0,9,9,9,0,0,,,,,,,3,0,3,0,0,15,15,43,,,,,,,,,,,,,,3,0.7481890999479219,3,0.5,0.20000000000000007,7.20859,return,1.2129083999898285,,,,,,,,,,,,,,,,,p308,22,female,left_right_width,2025-11-26_13h34.56.245,exp1,2023.1.0,60.07788496163604,
,,,,,,,,,,,,,,,,3,9.3,10,10.7,0,0,0.7,0.1499999999999999,0.55,1.95,10,initial,36.05,335,361,386,0,0,9,9,9,0,0,,,,,,,3,0,3,0,0,16,16,6,,,,,,,,,,,,,,3,0.6785783000523224,3,0.25,0.49999999999999994,18.02146,return,1.4661109999287874,,,,,,,,,,,,,,,,,p308,22,female,left_right_width,2025-11-26_13h34.56.245,exp1,2023.1.0,60.07788496163604,
,,,,,,,,,,,,,,,,4,9.3,9.766666666666667,10.233333333333333,10.7,0,0.4666666666666667,0.21666666666666665,0.25,1.65,10,match,36.05,335,352,369,386,0,9,9,9,9,0,,,,,,,3,0,3,0,0,17,17,8,,,,,,,,,,,,,,3,0.5792140999110416,3,0.4,0.35000000000000003,12.61502,return,0.7465264000929892,,,,,,,,,,,,,,,,,p308,22,female,left_right_width,2025-11-26_13h34.56.245,exp1,2023.1.0,60.07788496163604,
,,,,,,,,,,,,,,,,3,8.2,10,11.8,0,0,1.8,1.55,0.25,3.85,10,match,36.05,296,361,425,0,0,9,9,9,0,0,,,,,,,3,0,3,0,0,18,18,49,,,,,,,,,,,,,,3,0.5820362000958994,3,0.4,0.30000000000000004,10.81288,return,1.0219713000115007,,,,,,,,,,,,,,,,,p308,22,female,left_right_width,2025-11-26_13h34.56.245,exp1,2023.1.0,60.07788496163604,
,,,,,,,,,,,,,,,,4,8.35,9.45,10.55,11.65,0,1.1,0.8500000000000001,0.25,3.5500000000000003,10,initial,36.05,301,341,380,420,0,9,9,9,9,0,,,,,,,3,0,3,0,0,19,19,19,,,,,,,,,,,,,,4,1.0101482999743894,4,0.4,0.30000000000000004,10.81288,return,1.0641603999538347,,,,,,,,,,,,,,,,,p308,22,female,left_right_width,2025-11-26_13h34.56.245,exp1,2023.1.0,60.07788496163604,
,,,,,,,,,,,,,,,,4,8.825,9.608333333333333,10.391666666666667,11.175,0,0.7833333333333333,0.5333333333333333,0.25,2.6,10,match,36.05,318,346,375,403,0,9,9,9,9,0,,,,,,,3,0,3,0,0,20,20,5,,,,,,,,,,,,,,4,0.6718616000143811,4,0.35,0.25,9.01073,return,0.9954855999676511,,,,,,,,,,,,,,,,,p308,22,female,left_right_width,2025-11-26_13h34.56.245,exp1,2023.1.0,60.07788496163604,
,,,,,,,,,,,,,,,,3,9.1,10,10.9,0,0,0.9,0.35,0.55,2.35,10,initial,36.05,328,361,393,0,0,9,9,9,0,0,,,,,,,3,0,3,0,0,21,21,11,,,,,,,,,,,,,,3,0.9589734000619501,3,0.3,0.44999999999999996,16.21932,return,1.2070844999980181,,,,,,,,,,,,,,,,,p308,22,female,left_right_width,2025-11-26_13h34.56.245,exp1,2023.1.0,60.07788496163604,
,,,,,,,,,,,,,,,,4,9.1,9.7,10.3,10.9,0,0.6000000000000001,0.20000000000000004,0.4,2.2,10,match,36.05,328,350,371,393,0,9,9,9,9,0,,,,,,,3,0,3,0,0,22,22,16,,,,,,,,,,,,,,4,0.8298117000376806,4,0.3,0.39999999999999997,14.41717,return,1.6693508999887854,,,,,,,,,,,,,,,,,p308,22,female,left_right_width,2025-11-26_13h34.56.245,exp1,2023.1.0,60.07788496163604,
,,,,,,,,,,,,,,,,4,8.65,9.55,10.45,11.35,0,0.9,0.35,0.55,3.25,10,initial,36.05,312,344,377,409,0,9,9,9,9,0,,,,,,,3,0,3,0,0,23,23,28,,,,,,,,,,,,,,4,0.6349788999650627,4,0.45,0.4,14.41717,return,0.7526707000797614,,,,,,,,,,,,,,,,,p308,22,female,left_right_width,2025-11-26_13h34.56.245,exp1,2023.1.0,60.07788496163604,
,,,,,,,,,,,,,,,,4,8.95,9.65,10.35,11.05,0,0.7,0.1499999999999999,0.55,2.65,10,initial,36.05,323,348,373,398,0,9,9,9,9,0,,,,,,,3,0,3,0,0,24,24,23,,,,,,,,,,,,,,4,0.5794415000127628,4,0.5,0.5,18.02146,return,1.0508732999442145,,,,,,,,,,,,,,,,,p308,22,female,left_right_width,2025-11-26_13h34.56.245,exp1,2023.1.0,60.07788496163604,
,,,,,,,,,,,,,,,,3,8.525,10,11.475,0,0,1.475,1.225,0.25,3.2,10,match,36.05,307,361,414,0,0,9,9,9,0,0,,,,,,,3,0,3,0,0,25,25,45,,,,,,,,,,,,,,3,0.5859813999850303,3,0.25,0.25,9.01073,return,0.9137306000338867,,,,,,,,,,,,,,,,,p308,22,female,left_right_width,2025-11-26_13h34.56.245,exp1,2023.1.0,60.07788496163604,
,,,,,,,,,,,,,,,,4,8.35,9.45,10.55,11.65,0,1.1,0.55,0.55,3.8500000000000005,10,initial,36.05,301,341,380,420,0,9,9,9,9,0,,,,,,,3,0,3,0,0,26,26,17,,,,,,,,,,,,,,4,0.6409540999447927,4,0.45,0.45,16.21932,return,0.8698051000246778,,,,,,,,,,,,,,,,,p308,22,female,left_right_width,2025-11-26_13h34.56.245,exp1,2023.1.0,60.07788496163604,
,,,,,,,,,,,,,,,,4,8.95,9.65,10.35,11.05,0,0.7,0.29999999999999993,0.4,2.5,10,initial,36.05,323,348,373,398,0,9,9,9,9,0,,,,,,,3,0,3,0,0,27,27,26,,,,,,,,,,,,,,4,0.517682799953036,4,0.45,0.45,16.21932,return,0.8795996999833733,,,,,,,,,,,,,,,,,p308,22,female,left_right_width,2025-11-26_13h34.56.245,exp1,2023.1.0,60.07788496163604,
,,,,,,,,,,,,,,,,5,8.35,9.175,10,10.825,11.65,0.825,0.575,0.25,3.55,10,match,36.05,301,331,361,390,420,9,9,9,9,9,,,,,,,3,0,3,0,0,28,28,20,,,,,,,,,,,,,,4,0.7085056999931112,4,0.4,0.35000000000000003,12.61502,return,0.7102003999752924,,,,,,,,,,,,,,,,,p308,22,female,left_right_width,2025-11-26_13h34.56.245,exp1,2023.1.0,60.07788496163604,
,,,,,,,,,,,,,,,,4,8.9,9.633333333333333,10.366666666666667,11.1,0,0.7333333333333333,0.18333333333333326,0.55,2.75,10,match,36.05,321,347,374,400,0,9,9,9,9,0,,,,,,,3,0,3,0,0,29,29,1,,,,,,,,,,,,,,4,0.5956553000723943,4,0.4,0.4,14.41717,return,0.5864628000417724,,,,,,,,,,,,,,,,,p308,22,female,left_right_width,2025-11-26_13h34.56.245,exp1,2023.1.0,60.07788496163604,
,,,,,,,,,,,,,,,,5,8.35,9.175,10,10.825,11.65,0.8250000000000001,0.275,0.55,3.85,10,match,36.05,301,331,361,390,420,9,9,9,9,9,,,,,,,3,0,3,0,0,30,30,18,,,,,,,,,,,,,,5,0.8597793000517413,5,0.5,0.45,16.21932,return,1.4807519000023603,,,,,,,,,,,,,,,,,p308,22,female,left_right_width,2025-11-26_13h34.56.245,exp1,2023.1.0,60.07788496163604,
,,,,,,,,,,,,,,,,4,8.9,9.633333333333333,10.366666666666667,11.1,0,0.7333333333333334,0.4833333333333334,0.25,2.45,10,match,36.05,321,347,374,400,0,9,9,9,9,0,,,,,,,3,0,3,0,0,31,31,3,,,,,,,,,,,,,,3,1.0274938000366092,3,0.35,0.35,12.61502,return,0.9070294999983162,,,,,,,,,,,,,,,,,p308,22,female,left_right_width,2025-11-26_13h34.56.245,exp1,2023.1.0,60.07788496163604,
,,,,,,,,,,,,,,,,5,8.2,9.1,10,10.9,11.8,0.9,0.5,0.4,4,10,initial,36.05,296,328,361,393,425,9,9,9,9,9,,,,,,,3,0,3,0,0,32,32,50,,,,,,,,,,,,,,5,1.4329624000238255,5,0.3,0.35,12.61502,return,1.3116623000241816,,,,,,,,,,,,,,,,,p308,22,female,left_right_width,2025-11-26_13h34.56.245,exp1,2023.1.0,60.07788496163604,
,,,,,,,,,,,,,,,,3,9.3,10,10.7,0,0,0.7,0.29999999999999993,0.4,1.8,10,initial,36.05,335,361,386,0,0,9,9,9,0,0,,,,,,,3,0,3,0,0,33,33,9,,,,,,,,,,,,,,3,1.124474799958989,3,0.5,0.35000000000000003,12.61502,return,2.9820154999615625,,,,,,,,,,,,,,,,,p308,22,female,left_right_width,2025-11-26_13h34.56.245,exp1,2023.1.0,60.07788496163604,
,,,,,,,,,,,,,,,,4,9.1,9.7,10.3,10.9,0,0.6,0.04999999999999997,0.55,2.35,10,match,36.05,328,350,371,393,0,9,9,9,9,0,,,,,,,3,0,3,0,0,34,34,12,,,,,,,,,,,,,,3,1.1853308000136167,3,0.45,0.6000000000000001,21.62576,return,1.0723110999679193,,,,,,,,,,,,,,,,,p308,22,female,left_right_width,2025-11-26_13h34.56.245,exp1,2023.1.0,60.07788496163604,
,,,,,,,,,,,,,,,,5,8.65,9.325,10,10.675,11.35,0.675,0.125,0.55,3.25,10,match,36.05,312,336,361,385,409,9,9,9,9,9,,,,,,,3,0,3,0,0,35,35,29,,,,,,,,,,,,,,4,0.5755171000491828,4,0.5,0.45,16.21932,return,0.950990500045009,,,,,,,,,,,,,,,,,p308,22,female,left_right_width,2025-11-26_13h34.56.245,exp1,2023.1.0,60.07788496163604,
,,,,,,,,,,,,,,,,3,7.8,10,12.2,0,0,2.2,1.65,0.55,4.95,10,match,36.05,281,361,440,0,0,9,9,9,0,0,,,,,,,3,0,3,0,0,36,36,35,,,,,,,,,,,,,,3,1.1281743999570608,3,0.3,0.49999999999999994,18.02146,return,1.5767857999308035,,,,,,,,,,,,,,,,,p308,22,female,left_right_width,2025-11-26_13h34.56.245,exp1,2023.1.0,60.07788496163604,
,,,,,,,,,,,,,,,,3,7.8,10,12.2,0,0,2.2,1.9500000000000002,0.25,4.65,10,match,36.05,281,361,440,0,0,9,9,9,0,0,,,,,,,3,0,3,0,0,37,37,37,,,,,,,,,,,,,,3,1.6559784999117255,3,0.25,0.25,9.01073,return,1.284317500074394,,,,,,,,,,,,,,,,,p308,22,female,left_right_width,2025-11-26_13h34.56.245,exp1,2023.1.0,60.07788496163604,
,,,,,,,,,,,,,,,,3,8.9,10,11.1,0,0,1.1,0.8500000000000001,0.25,2.45,10,initial,36.05,321,361,400,0,0,9,9,9,0,0,,,,,,,3,0,3,0,0,38,38,2,,,,,,,,,,,,,,3,1.0107066999189556,3,0.55,0.35000000000000003,12.61502,return,2.2327502999687567,,,,,,,,,,,,,,,,,p308,22,female,left_right_width,2025-11-26_13h34.56.245,exp1,2023.1.0,60.07788496163604,
,,,,,,,,,,,,,,,,3,9.1,10,10.9,0,0,0.9,0.65,0.25,2.05,10,initial,36.05,328,361,393,0,0,9,9,9,0,0,,,,,,,3,0,3,0,0,39,39,13,,,,,,,,,,,,,,3,1.3296557000139728,3,0.4,0.25000000000000006,9.01073,return,1.9948211999144405,,,,,,,,,,,,,,,,,p308,22,female,left_right_width,2025-11-26_13h34.56.245,exp1,2023.1.0,60.07788496163604,
,,,,,,,,,,,,,,,,5,7.8,8.9,10,11.1,12.2,1.1,0.7000000000000001,0.4,4.800000000000001,10,initial,36.05,281,321,361,400,440,9,9,9,9,9,,,,,,,3,0,3,0,0,40,40,38,,,,,,,,,,,,,,5,1.854282999993302,5,0.25,0.35,12.61502,return,2.7227290000300854,,,,,,,,,,,,,,,,,p308,22,female,left_right_width,2025-11-26_13h34.56.245,exp1,2023.1.0,60.07788496163604,
,,,,,,,,,,,,,,,,4,9.1,9.7,10.3,10.9,0,0.5999999999999999,0.3499999999999999,0.25,2.05,10,match,36.05,328,350,371,393,0,9,9,9,9,0,,,,,,,3,0,3,0,0,41,41,14,,,,,,,,,,,,,,3,1.305886600050144,3,0.5,0.25000000000000006,9.01073,return,1.6348033000249416,,,,,,,,,,,,,,,,,p308,22,female,left_right_width,2025-11-26_13h34.56.245,exp1,2023.1.0,60.07788496163604,
,,,,,,,,,,,,,,,,5,7.8,8.9,10,11.1,12.2,1.1,0.55,0.55,4.95,10,initial,36.05,281,321,361,400,440,9,9,9,9,9,,,,,,,3,0,3,0,0,42,42,34,,,,,,,,,,,,,,5,1.5572138999123126,5,0.45,0.45,16.21932,return,1.110175700043328,,,,,,,,,,,,,,,,,p308,22,female,left_right_width,2025-11-26_13h34.56.245,exp1,2023.1.0,60.07788496163604,
,,,,,,,,,,,,,,,,5,8.6,9.3,10,10.7,11.4,0.7,0.44999999999999996,0.25,3.05,10,initial,36.05,310,335,361,386,411,9,9,9,9,9,,,,,,,3,0,3,0,0,43,43,42,,,,,,,,,,,,,,4,1.0335958000505343,4,0.2,0.39999999999999997,14.41717,return,12.159673699992709,,,,,,,,,,,,,,,,,p308,22,female,left_right_width,2025-11-26_13h34.56.245,exp1,2023.1.0,60.07788496163604,
,,,,,,,,,,,,,,,,3,8.9,10,11.1,0,0,1.1,0.7000000000000001,0.4,2.6000000000000005,10,initial,36.05,321,361,400,0,0,9,9,9,0,0,,,,,,,3,0,3,0,0,44,44,4,,,,,,,,,,,,,,3,1.6657454000087455,3,0.25,0.35,12.61502,return,1.965594100067392,,,,,,,,,,,,,,,,,p308,22,female,left_right_width,2025-11-26_13h34.56.245,exp1,2023.1.0,60.07788496163604,
,,,,,,,,,,,,,,,,5,8.275,9.1375,10,10.8625,11.725,0.8625,0.6125,0.25,3.7,10,match,36.05,298,329,361,392,423,9,9,9,9,9,,,,,,,3,0,3,0,0,45,45,22,,,,,,,,,,,,,,4,1.1068359999917448,4,0.35,0.25,9.01073,return,1.124763899948448,,,,,,,,,,,,,,,,,p308,22,female,left_right_width,2025-11-26_13h34.56.245,exp1,2023.1.0,60.07788496163604,
,,,,,,,,,,,,,,,,3,8.2,10,11.8,0,0,1.8,1.25,0.55,4.15,10,match,36.05,296,361,425,0,0,9,9,9,0,0,,,,,,,3,0,3,0,0,46,46,47,,,,,,,,,,,,,,3,1.4701266000047326,3,0.25,0.44999999999999996,16.21932,return,1.1705836999462917,,,,,,,,,,,,,,,,,p308,22,female,left_right_width,2025-11-26_13h34.56.245,exp1,2023.1.0,60.07788496163604,
,,,,,,,,,,,,,,,,4,8.65,9.55,10.45,11.35,0,0.9,0.65,0.25,2.95,10,initial,36.05,312,344,377,409,0,9,9,9,9,0,,,,,,,3,0,3,0,0,47,47,30,,,,,,,,,,,,,,4,0.8432023000204936,4,0.35,0.3,10.81288,return,0.9527152000227943,,,,,,,,,,,,,,,,,p308,22,female,left_right_width,2025-11-26_13h34.56.245,exp1,2023.1.0,60.07788496163604,
,,,,,,,,,,,,,,,,5,8.65,9.325,10,10.675,11.35,0.675,0.42500000000000004,0.25,2.95,10,match,36.05,312,336,361,385,409,9,9,9,9,9,,,,,,,3,0,3,0,0,48,48,31,,,,,,,,,,,,,,5,1.1393841999815777,5,0.5,0.35000000000000003,12.61502,return,0.9956425999989733,,,,,,,,,,,,,,,,,p308,22,female,left_right_width,2025-11-26_13h34.56.245,exp1,2023.1.0,60.07788496163604,
,,,,,,,,,,,,,,,,3,9.1,10,10.9,0,0,0.9,0.5,0.4,2.2,10,initial,36.05,328,361,393,0,0,9,9,9,0,0,,,,,,,3,0,3,0,0,49,49,15,,,,,,,,,,,,,,3,1.1620806999271736,3,0.3,0.35,12.61502,return,0.793647599988617,,,,,,,,,,,,,,,,,p308,22,female,left_right_width,2025-11-26_13h34.56.245,exp1,2023.1.0,60.07788496163604,
,,,,,,,,,,,,,,,,4,8.65,9.55,10.45,11.35,0,0.9,0.5,0.4,3.1,10,initial,36.05,312,344,377,409,0,9,9,9,9,0,,,,,,,3,0,3,0,0,50,50,32,,,,,,,,,,,,,,4,0.9068978999275714,4,0.5,0.35000000000000003,12.61502,return,0.9353608000092208,,,,,,,,,,,,,,,,,p308,22,female,left_right_width,2025-11-26_13h34.56.245,exp1,2023.1.0,60.07788496163604,
,,,,,,,,,,,,,,,,3,8.2,10,11.8,0,0,1.7999999999999998,1.4,0.4,4,10,match,36.05,296,361,425,0,0,9,9,9,0,0,,,,,,,3,0,3,0,0,51,51,51,,,,,,,,,,,,,,2,1.1823976000305265,2,0.45,0.4,14.41717,return,1.1175742000341415,,,,,,,,,,,,,,,,,p308,22,female,left_right_width,2025-11-26_13h34.56.245,exp1,2023.1.0,60.07788496163604,
,,,,,,,,,,,,,,,,,,,,,,,,,,,,,,,,,,,,,,,,,,,,,3,0,3,0,,,,,,,,,,,,,,,,,,,,,,,,,,,,2109.777727199951,2109.777727199951,2109.777727199951,,,,,,,,,,,,p308,22,female,left_right_width,2025-11-26_13h34.56.245,exp1,2023.1.0,60.07788496163604,
,,,,,,,,,,,,,,,,3,8.2,10,11.8,0,0,1.7999999999999998,1.4,0.4,4,10,match,36.05,296,361,425,0,0,9,9,9,0,0,,,,,,,4,0,4,0,0,0,0,51,,,,,,,,,,,,,,3,1.1304990000789985,3,0.4,0.35000000000000003,12.61502,return,0.8922347999177873,,,,,,,,,,,,,,,,,p308,22,female,left_right_width,2025-11-26_13h34.56.245,exp1,2023.1.0,60.07788496163604,
,,,,,,,,,,,,,,,,5,8.95,9.475,10,10.525,11.05,0.525,0.125,0.4,2.5,10,match,36.05,323,342,361,379,398,9,9,9,9,9,,,,,,,4,0,4,0,0,1,1,27,,,,,,,,,,,,,,4,0.6078242999501526,4,0.3,0.39999999999999997,14.41717,return,1.0463258000090718,,,,,,,,,,,,,,,,,p308,22,female,left_right_width,2025-11-26_13h34.56.245,exp1,2023.1.0,60.07788496163604,
,,,,,,,,,,,,,,,,4,8.65,9.55,10.45,11.35,0,0.9,0.65,0.25,2.95,10,initial,36.05,312,344,377,409,0,9,9,9,9,0,,,,,,,4,0,4,0,0,2,2,30,,,,,,,,,,,,,,3,0.6083275999408215,3,0.25,0.2,7.20859,return,0.5020504000131041,,,,,,,,,,,,,,,,,p308,22,female,left_right_width,2025-11-26_13h34.56.245,exp1,2023.1.0,60.07788496163604,
,,,,,,,,,,,,,,,,4,8.95,9.65,10.35,11.05,0,0.7,0.44999999999999996,0.25,2.3499999999999996,10,initial,36.05,323,348,373,398,0,9,9,9,9,0,,,,,,,4,0,4,0,0,3,3,24,,,,,,,,,,,,,,4,0.8791692000813782,4,0.3,0.3,10.81288,return,0.3631254000356421,,,,,,,,,,,,,,,,,p308,22,female,left_right_width,2025-11-26_13h34.56.245,exp1,2023.1.0,60.07788496163604,
,,,,,,,,,,,,,,,,3,8.9,10,11.1,0,0,1.1,0.8500000000000001,0.25,2.45,10,initial,36.05,321,361,400,0,0,9,9,9,0,0,,,,,,,4,0,4,0,0,4,4,2,,,,,,,,,,,,,,3,0.544294000021182,3,0.4,0.30000000000000004,10.81288,return,1.1613546999869868,,,,,,,,,,,,,,,,,p308,22,female,left_right_width,2025-11-26_13h34.56.245,exp1,2023.1.0,60.07788496163604,
,,,,,,,,,,,,,,,,3,7.8,10,12.2,0,0,2.2,1.65,0.55,4.95,10,match,36.05,281,361,440,0,0,9,9,9,0,0,,,,,,,4,0,4,0,0,5,5,35,,,,,,,,,,,,,,3,0.6480859000002965,3,0.5,0.45,16.21932,return,0.7175064999610186,,,,,,,,,,,,,,,,,p308,22,female,left_right_width,2025-11-26_13h34.56.245,exp1,2023.1.0,60.07788496163604,
,,,,,,,,,,,,,,,,5,8.2,9.1,10,10.9,11.8,0.9,0.35,0.55,4.15,10,initial,36.05,296,328,361,393,425,9,9,9,9,9,,,,,,,4,0,4,0,0,6,6,46,,,,,,,,,,,,,,5,1.0635249000042677,5,0.5,0.45,16.21932,return,0.7644270999589935,,,,,,,,,,,,,,,,,p308,22,female,left_right_width,2025-11-26_13h34.56.245,exp1,2023.1.0,60.07788496163604,
,,,,,,,,,,,,,,,,5,8.6,9.3,10,10.7,11.4,0.7,0.29999999999999993,0.4,3.1999999999999997,10,initial,36.05,310,335,361,386,411,9,9,9,9,9,,,,,,,4,0,4,0,0,7,7,44,,,,,,,,,,,,,,5,0.7277214999776334,5,0.45,0.4,14.41717,return,0.6975658999290317,,,,,,,,,,,,,,,,,p308,22,female,left_right_width,2025-11-26_13h34.56.245,exp1,2023.1.0,60.07788496163604,
,,,,,,,,,,,,,,,,5,8.35,9.175,10,10.825,11.65,0.8250000000000001,0.275,0.55,3.85,10,match,36.05,301,331,361,390,420,9,9,9,9,9,,,,,,,4,0,4,0,0,8,8,18,,,,,,,,,,,,,,5,0.8582485999213532,5,0.4,0.4,14.41717,return,0.45460090006235987,,,,,,,,,,,,,,,,,p308,22,female,left_right_width,2025-11-26_13h34.56.245,exp1,2023.1.0,60.07788496163604,
,,,,,,,,,,,,,,,,4,8.825,9.608333333333333,10.391666666666667,11.175,0,0.7833333333333333,0.5333333333333333,0.25,2.6,10,match,36.05,318,346,375,403,0,9,9,9,9,0,,,,,,,4,0,4,0,0,9,9,5,,,,,,,,,,,,,,3,0.7163586999522522,3,0.3,0.3,10.81288,return,0.5585202999645844,,,,,,,,,,,,,,,,,p308,22,female,left_right_width,2025-11-26_13h34.56.245,exp1,2023.1.0,60.07788496163604,
,,,,,,,,,,,,,,,,4,8.95,9.65,10.35,11.05,0,0.7,0.1499999999999999,0.55,2.65,10,initial,36.05,323,348,373,398,0,9,9,9,9,0,,,,,,,4,0,4,0,0,10,10,23,,,,,,,,,,,,,,4,0.9529821999603882,4,0.55,0.5,18.02146,return,1.248982400051318,,,,,,,,,,,,,,,,,p308,22,female,left_right_width,2025-11-26_13h34.56.245,exp1,2023.1.0,60.07788496163604,
,,,,,,,,,,,,,,,,3,8.6,10,11.4,0,0,1.4,0.85,0.55,3.35,10,match,36.05,310,361,411,0,0,9,9,9,0,0,,,,,,,4,0,4,0,0,11,11,41,,,,,,,,,,,,,,3,0.7692254000576213,3,0.25,0.49999999999999994,18.02146,return,1.729574600001797,,,,,,,,,,,,,,,,,p308,22,female,left_right_width,2025-11-26_13h34.56.245,exp1,2023.1.0,60.07788496163604,
,,,,,,,,,,,,,,,,5,8.2,9.1,10,10.9,11.8,0.9,0.5,0.4,4,10,initial,36.05,296,328,361,393,425,9,9,9,9,9,,,,,,,4,0,4,0,0,12,12,50,,,,,,,,,,,,,,4,0.9410003999946639,4,0.25,0.35,12.61502,return,1.589636899996549,,,,,,,,,,,,,,,,,p308,22,female,left_right_width,2025-11-26_13h34.56.245,exp1,2023.1.0,60.07788496163604,
,,,,,,,,,,,,,,,,3,9.1,10,10.9,0,0,0.9,0.35,0.55,2.35,10,initial,36.05,328,361,393,0,0,9,9,9,0,0,,,,,,,4,0,4,0,0,13,13,11,,,,,,,,,,,,,,3,1.514104999951087,3,0.35,0.44999999999999996,16.21932,return,1.019643900101073,,,,,,,,,,,,,,,,,p308,22,female,left_right_width,2025-11-26_13h34.56.245,exp1,2023.1.0,60.07788496163604,
,,,,,,,,,,,,,,,,4,9.1,9.7,10.3,10.9,0,0.5999999999999999,0.3499999999999999,0.25,2.05,10,match,36.05,328,350,371,393,0,9,9,9,9,0,,,,,,,4,0,4,0,0,14,14,14,,,,,,,,,,,,,,4,0.6756277999375015,4,0.5,0.35000000000000003,12.61502,return,1.2088336000451818,,,,,,,,,,,,,,,,,p308,22,female,left_right_width,2025-11-26_13h34.56.245,exp1,2023.1.0,60.07788496163604,
,,,,,,,,,,,,,,,,3,9.1,10,10.9,0,0,0.9,0.65,0.25,2.05,10,initial,36.05,328,361,393,0,0,9,9,9,0,0,,,,,,,4,0,4,0,0,15,15,13,,,,,,,,,,,,,,3,0.5326249001082033,3,0.5,0.35000000000000003,12.61502,return,1.4715357999084517,,,,,,,,,,,,,,,,,p308,22,female,left_right_width,2025-11-26_13h34.56.245,exp1,2023.1.0,60.07788496163604,
,,,,,,,,,,,,,,,,5,7.8,8.9,10,11.1,12.2,1.1,0.8500000000000001,0.25,4.65,10,initial,36.05,281,321,361,400,440,9,9,9,9,9,,,,,,,4,0,4,0,0,16,16,36,,,,,,,,,,,,,,5,1.781755100004375,5,0.4,0.35000000000000003,12.61502,return,0.8457605999428779,,,,,,,,,,,,,,,,,p308,22,female,left_right_width,2025-11-26_13h34.56.245,exp1,2023.1.0,60.07788496163604,
,,,,,,,,,,,,,,,,4,8.65,9.55,10.45,11.35,0,0.9,0.5,0.4,3.1,10,initial,36.05,312,344,377,409,0,9,9,9,9,0,,,,,,,4,0,4,0,0,17,17,32,,,,,,,,,,,,,,4,1.5658716999460012,4,0.5,0.45,16.21932,return,1.886663099983707,,,,,,,,,,,,,,,,,p308,22,female,left_right_width,2025-11-26_13h34.56.245,exp1,2023.1.0,60.07788496163604,
,,,,,,,,,,,,,,,,4,8.35,9.45,10.55,11.65,0,1.1,0.8500000000000001,0.25,3.5500000000000003,10,initial,36.05,301,341,380,420,0,9,9,9,9,0,,,,,,,4,0,4,0,0,18,18,19,,,,,,,,,,,,,,4,1.1360004999442026,4,0.55,0.4,14.41717,return,1.121669300016947,,,,,,,,,,,,,,,,,p308,22,female,left_right_width,2025-11-26_13h34.56.245,exp1,2023.1.0,60.07788496163604,
,,,,,,,,,,,,,,,,4,8.95,9.65,10.35,11.05,0,0.7,0.29999999999999993,0.4,2.5,10,initial,36.05,323,348,373,398,0,9,9,9,9,0,,,,,,,4,0,4,0,0,19,19,26,,,,,,,,,,,,,,4,1.0848137000575662,4,0.5,0.4,14.41717,return,2.063558300025761,,,,,,,,,,,,,,,,,p308,22,female,left_right_width,2025-11-26_13h34.56.245,exp1,2023.1.0,60.07788496163604,
,,,,,,,,,,,,,,,,5,8.6,9.3,10,10.7,11.4,0.7,0.1499999999999999,0.55,3.3499999999999996,10,initial,36.05,310,335,361,386,411,9,9,9,9,9,,,,,,,4,0,4,0,0,20,20,40,,,,,,,,,,,,,,5,0.8785230999346823,5,0.4,0.45,16.21932,return,0.9536272999830544,,,,,,,,,,,,,,,,,p308,22,female,left_right_width,2025-11-26_13h34.56.245,exp1,2023.1.0,60.07788496163604,
,,,,,,,,,,,,,,,,4,8.9,9.633333333333333,10.366666666666667,11.1,0,0.7333333333333333,0.18333333333333326,0.55,2.75,10,match,36.05,321,347,374,400,0,9,9,9,9,0,,,,,,,4,0,4,0,0,21,21,1,,,,,,,,,,,,,,4,1.588942699949257,4,0.35,0.49999999999999994,18.02146,return,1.4602160999784246,,,,,,,,,,,,,,,,,p308,22,female,left_right_width,2025-11-26_13h34.56.245,exp1,2023.1.0,60.07788496163604,
,,,,,,,,,,,,,,,,3,9.3,10,10.7,0,0,0.7,0.1499999999999999,0.55,1.95,10,initial,36.05,335,361,386,0,0,9,9,9,0,0,,,,,,,4,0,4,0,0,22,22,6,,,,,,,,,,,,,,3,1.2131247000070289,3,0.2,0.44999999999999996,16.21932,return,1.8186450001085177,,,,,,,,,,,,,,,,,p308,22,female,left_right_width,2025-11-26_13h34.56.245,exp1,2023.1.0,60.07788496163604,
,,,,,,,,,,,,,,,,4,9.1,9.7,10.3,10.9,0,0.6,0.04999999999999997,0.55,2.35,10,match,36.05,328,350,371,393,0,9,9,9,9,0,,,,,,,4,0,4,0,0,23,23,12,,,,,,,,,,,,,,3,1.0422048999462277,3,0.2,0.6,21.62576,return,2.6641489999601617,,,,,,,,,,,,,,,,,p308,22,female,left_right_width,2025-11-26_13h34.56.245,exp1,2023.1.0,60.07788496163604,
,,,,,,,,,,,,,,,,4,8.9,9.633333333333333,10.366666666666667,11.1,0,0.7333333333333334,0.4833333333333334,0.25,2.45,10,match,36.05,321,347,374,400,0,9,9,9,9,0,,,,,,,4,0,4,0,0,24,24,3,,,,,,,,,,,,,,3,0.5442557000787929,3,0.5,0.35000000000000003,12.61502,return,1.8827964999945834,,,,,,,,,,,,,,,,,p308,22,female,left_right_width,2025-11-26_13h34.56.245,exp1,2023.1.0,60.07788496163604,
,,,,,,,,,,,,,,,,3,7.8,10,12.2,0,0,2.2,1.9500000000000002,0.25,4.65,10,match,36.05,281,361,440,0,0,9,9,9,0,0,,,,,,,4,0,4,0,0,25,25,37,,,,,,,,,,,,,,3,0.5676536000100896,3,0.4,0.20000000000000007,7.20859,return,0.9927468999521807,,,,,,,,,,,,,,,,,p308,22,female,left_right_width,2025-11-26_13h34.56.245,exp1,2023.1.0,60.07788496163604,
,,,,,,,,,,,,,,,,4,8.35,9.45,10.55,11.65,0,1.1,0.7000000000000001,0.4,3.7,10,initial,36.05,301,341,380,420,0,9,9,9,9,0,,,,,,,4,0,4,0,0,26,26,21,,,,,,,,,,,,,,4,0.7221076999558136,4,0.2,0.3,10.81288,return,1.5234105000272393,,,,,,,,,,,,,,,,,p308,22,female,left_right_width,2025-11-26_13h34.56.245,exp1,2023.1.0,60.07788496163604,
,,,,,,,,,,,,,,,,3,7.800000000000001,10,12.2,0,0,2.1999999999999997,1.7999999999999998,0.4,4.8,10,match,36.05,281,361,440,0,0,9,9,9,0,0,,,,,,,4,0,4,0,0,27,27,39,,,,,,,,,,,,,,3,0.5441936999559402,3,0.45,0.35000000000000003,12.61502,return,0.9846493999939412,,,,,,,,,,,,,,,,,p308,22,female,left_right_width,2025-11-26_13h34.56.245,exp1,2023.1.0,60.07788496163604,
,,,,,,,,,,,,,,,,5,8.2,9.1,10,10.9,11.8,0.9,0.65,0.25,3.85,10,initial,36.05,296,328,361,393,425,9,9,9,9,9,,,,,,,4,0,4,0,0,28,28,48,,,,,,,,,,,,,,4,0.6658171999733895,4,0.55,0.45,16.21932,return,0.9906563999829814,,,,,,,,,,,,,,,,,p308,22,female,left_right_width,2025-11-26_13h34.56.245,exp1,2023.1.0,60.07788496163604,
,,,,,,,,,,,,,,,,3,8.2,10,11.8,0,0,1.8,1.25,0.55,4.15,10,match,36.05,296,361,425,0,0,9,9,9,0,0,,,,,,,4,0,4,0,0,29,29,47,,,,,,,,,,,,,,2,0.7603192999958992,2,0.2,0.25,9.01073,return,1.176800600020215,,,,,,,,,,,,,,,,,p308,22,female,left_right_width,2025-11-26_13h34.56.245,exp1,2023.1.0,60.07788496163604,
,,,,,,,,,,,,,,,,4,8.65,9.55,10.45,11.35,0,0.9,0.35,0.55,3.25,10,initial,36.05,312,344,377,409,0,9,9,9,9,0,,,,,,,4,0,4,0,0,30,30,28,,,,,,,,,,,,,,4,1.6349417000310495,4,0.25,0.3,10.81288,return,2.2082443000981584,,,,,,,,,,,,,,,,,p308,22,female,left_right_width,2025-11-26_13h34.56.245,exp1,2023.1.0,60.07788496163604,
,,,,,,,,,,,,,,,,3,9.1,10,10.9,0,0,0.9,0.5,0.4,2.2,10,initial,36.05,328,361,393,0,0,9,9,9,0,0,,,,,,,4,0,4,0,0,31,31,15,,,,,,,,,,,,,,2,1.3294225999852642,2,0.3,0.35,12.61502,return,1.1954365000128746,,,,,,,,,,,,,,,,,p308,22,female,left_right_width,2025-11-26_13h34.56.245,exp1,2023.1.0,60.07788496163604,
,,,,,,,,,,,,,,,,5,8.65,9.325,10,10.675,11.35,0.675,0.275,0.4,3.1,10,match,36.05,312,336,361,385,409,9,9,9,9,9,,,,,,,4,0,4,0,0,32,32,33,,,,,,,,,,,,,,5,1.1542990999296308,5,0.4,0.35000000000000003,12.61502,return,0.7713916000211611,,,,,,,,,,,,,,,,,p308,22,female,left_right_width,2025-11-26_13h34.56.245,exp1,2023.1.0,60.07788496163604,
,,,,,,,,,,,,,,,,3,9.3,10,10.7,0,0,0.7,0.29999999999999993,0.4,1.8,10,initial,36.05,335,361,386,0,0,9,9,9,0,0,,,,,,,4,0,4,0,0,33,33,9,,,,,,,,,,,,,,3,0.9382189000025392,3,0.25,0.3,10.81288,return,1.1243195000570267,,,,,,,,,,,,,,,,,p308,22,female,left_right_width,2025-11-26_13h34.56.245,exp1,2023.1.0,60.07788496163604,
,,,,,,,,,,,,,,,,3,9.3,10,10.7,0,0,0.7,0.44999999999999996,0.25,1.65,10,initial,36.05,335,361,386,0,0,9,9,9,0,0,,,,,,,4,0,4,0,0,34,34,7,,,,,,,,,,,,,,3,1.210805599926971,3,0.3,0.3,10.81288,return,0.8561806000070646,,,,,,,,,,,,,,,,,p308,22,female,left_right_width,2025-11-26_13h34.56.245,exp1,2023.1.0,60.07788496163604,
,,,,,,,,,,,,,,,,4,9.1,9.7,10.3,10.9,0,0.6000000000000001,0.20000000000000004,0.4,2.2,10,match,36.05,328,350,371,393,0,9,9,9,9,0,,,,,,,4,0,4,0,0,35,35,16,,,,,,,,,,,,,,4,1.044882299960591,4,0.25,0.35,12.61502,return,1.0162827000021935,,,,,,,,,,,,,,,,,p308,22,female,left_right_width,2025-11-26_13h34.56.245,exp1,2023.1.0,60.07788496163604,
,,,,,,,,,,,,,,,,5,8.65,9.325,10,10.675,11.35,0.675,0.42500000000000004,0.25,2.95,10,match,36.05,312,336,361,385,409,9,9,9,9,9,,,,,,,4,0,4,0,0,36,36,31,,,,,,,,,,,,,,4,0.8460244999732822,4,0.5,0.4,14.41717,return,1.2912863000528887,,,,,,,,,,,,,,,,,p308,22,female,left_right_width,2025-11-26_13h34.56.245,exp1,2023.1.0,60.07788496163604,
,,,,,,,,,,,,,,,,5,8.35,9.175,10,10.825,11.65,0.825,0.575,0.25,3.55,10,match,36.05,301,331,361,390,420,9,9,9,9,9,,,,,,,4,0,4,0,0,37,37,20,,,,,,,,,,,,,,5,1.432423899997957,5,0.25,0.25,9.01073,return,1.21458100003656,,,,,,,,,,,,,,,,,p308,22,female,left_right_width,2025-11-26_13h34.56.245,exp1,2023.1.0,60.07788496163604,
,,,,,,,,,,,,,,,,3,8.6,10,11.4,0,0,1.4,1.15,0.25,3.05,10,match,36.05,310,361,411,0,0,9,9,9,0,0,,,,,,,4,0,4,0,0,38,38,43,,,,,,,,,,,,,,2,1.2237513000145555,2,0.35,0.3,10.81288,return,0.7408270000014454,,,,,,,,,,,,,,,,,p308,22,female,left_right_width,2025-11-26_13h34.56.245,exp1,2023.1.0,60.07788496163604,
,,,,,,,,,,,,,,,,4,9.3,9.766666666666667,10.233333333333333,10.7,0,0.4666666666666667,0.21666666666666665,0.25,1.65,10,match,36.05,335,352,369,386,0,9,9,9,9,0,,,,,,,4,0,4,0,0,39,39,8,,,,,,,,,,,,,,3,0.9839357000309974,3,0.2,0.2,7.20859,return,1.2950118000153452,,,,,,,,,,,,,,,,,p308,22,female,left_right_width,2025-11-26_13h34.56.245,exp1,2023.1.0,60.07788496163604,
,,,,,,,,,,,,,,,,5,7.8,8.9,10,11.1,12.2,1.1,0.7000000000000001,0.4,4.800000000000001,10,initial,36.05,281,321,361,400,440,9,9,9,9,9,,,,,,,4,0,4,0,0,40,40,38,,,,,,,,,,,,,,4,0.7021302999928594,4,0.25,0.25,9.01073,return,1.9379680999554694,,,,,,,,,,,,,,,,,p308,22,female,left_right_width,2025-11-26_13h34.56.245,exp1,2023.1.0,60.07788496163604,
,,,,,,,,,,,,,,,,5,8.275,9.1375,10,10.8625,11.725,0.8625,0.6125,0.25,3.7,10,match,36.05,298,329,361,392,423,9,9,9,9,9,,,,,,,4,0,4,0,0,41,41,22,,,,,,,,,,,,,,5,1.1895082000410184,5,0.55,0.30000000000000004,10.81288,return,1.4612394999712706,,,,,,,,,,,,,,,,,p308,22,female,left_right_width,2025-11-26_13h34.56.245,exp1,2023.1.0,60.07788496163604,
,,,,,,,,,,,,,,,,5,8.65,9.325,10,10.675,11.35,0.675,0.125,0.55,3.25,10,match,36.05,312,336,361,385,409,9,9,9,9,9,,,,,,,4,0,4,0,0,42,42,29,,,,,,,,,,,,,,4,1.1056374000618234,4,0.5,0.5,18.02146,return,0.6443589000264183,,,,,,,,,,,,,,,,,p308,22,female,left_right_width,2025-11-26_13h34.56.245,exp1,2023.1.0,60.07788496163604,
,,,,,,,,,,,,,,,,3,8.525,10,11.475,0,0,1.475,1.225,0.25,3.2,10,match,36.05,307,361,414,0,0,9,9,9,0,0,,,,,,,4,0,4,0,0,43,43,45,,,,,,,,,,,,,,3,0.6850673999870196,3,0.45,0.30000000000000004,10.81288,return,1.265336100012064,,,,,,,,,,,,,,,,,p308,22,female,left_right_width,2025-11-26_13h34.56.245,exp1,2023.1.0,60.07788496163604,
,,,,,,,,,,,,,,,,3,8.9,10,11.1,0,0,1.1,0.7000000000000001,0.4,2.6000000000000005,10,initial,36.05,321,361,400,0,0,9,9,9,0,0,,,,,,,4,0,4,0,0,44,44,4,,,,,,,,,,,,,,3,0.5912379999645054,3,0.45,0.30000000000000004,10.81288,return,0.9820327999768779,,,,,,,,,,,,,,,,,p308,22,female,left_right_width,2025-11-26_13h34.56.245,exp1,2023.1.0,60.07788496163604,
,,,,,,,,,,,,,,,,5,8.95,9.475,10,10.525,11.05,0.525,0.275,0.25,2.35,10,match,36.05,323,342,361,379,398,9,9,9,9,9,,,,,,,4,0,4,0,0,45,45,25,,,,,,,,,,,,,,4,0.8130837000207976,4,0.3,0.2,7.20859,return,0.6674668000778183,,,,,,,,,,,,,,,,,p308,22,female,left_right_width,2025-11-26_13h34.56.245,exp1,2023.1.0,60.07788496163604,
,,,,,,,,,,,,,,,,5,7.8,8.9,10,11.1,12.2,1.1,0.55,0.55,4.95,10,initial,36.05,281,321,361,400,440,9,9,9,9,9,,,,,,,4,0,4,0,0,46,46,34,,,,,,,,,,,,,,5,0.9482908999780193,5,0.2,0.44999999999999996,16.21932,return,1.468390200054273,,,,,,,,,,,,,,,,,p308,22,female,left_right_width,2025-11-26_13h34.56.245,exp1,2023.1.0,60.07788496163604,
,,,,,,,,,,,,,,,,3,8.9,10,11.1,0,0,1.1,0.55,0.55,2.75,10,initial,36.05,321,361,400,0,0,9,9,9,0,0,,,,,,,4,0,4,0,0,47,47,0,,,,,,,,,,,,,,3,1.545490499935113,3,0.2,0.39999999999999997,14.41717,return,1.9147416999330744,,,,,,,,,,,,,,,,,p308,22,female,left_right_width,2025-11-26_13h34.56.245,exp1,2023.1.0,60.07788496163604,
,,,,,,,,,,,,,,,,3,8.2,10,11.8,0,0,1.8,1.55,0.25,3.85,10,match,36.05,296,361,425,0,0,9,9,9,0,0,,,,,,,4,0,4,0,0,48,48,49,,,,,,,,,,,,,,2,1.0736867999657989,2,0.4,0.35000000000000003,12.61502,return,0.6132180000422522,,,,,,,,,,,,,,,,,p308,22,female,left_right_width,2025-11-26_13h34.56.245,exp1,2023.1.0,60.07788496163604,
,,,,,,,,,,,,,,,,4,9.3,9.766666666666667,10.233333333333333,10.7,0,0.4666666666666667,0.06666666666666665,0.4,1.8,10,match,36.05,335,352,369,386,0,9,9,9,9,0,,,,,,,4,0,4,0,0,49,49,10,,,,,,,,,,,,,,3,1.0118850000435486,3,0.3,0.44999999999999996,16.21932,return,1.2106905999826267,,,,,,,,,,,,,,,,,p308,22,female,left_right_width,2025-11-26_13h34.56.245,exp1,2023.1.0,60.07788496163604,
,,,,,,,,,,,,,,,,5,8.6,9.3,10,10.7,11.4,0.7,0.44999999999999996,0.25,3.05,10,initial,36.05,310,335,361,386,411,9,9,9,9,9,,,,,,,4,0,4,0,0,50,50,42,,,,,,,,,,,,,,4,1.24313690001145,4,0.25,0.25,9.01073,return,0.9047325999708846,,,,,,,,,,,,,,,,,p308,22,female,left_right_width,2025-11-26_13h34.56.245,exp1,2023.1.0,60.07788496163604,
,,,,,,,,,,,,,,,,4,8.35,9.45,10.55,11.65,0,1.1,0.55,0.55,3.8500000000000005,10,initial,36.05,301,341,380,420,0,9,9,9,9,0,,,,,,,4,0,4,0,0,51,51,17,,,,,,,,,,,,,,3,2.317489799926989,3,0.35,0.35,12.61502,return,0.671819599927403,,,,,,,,,,,,,,,,,p308,22,female,left_right_width,2025-11-26_13h34.56.245,exp1,2023.1.0,60.07788496163604,
,,,,,,,,,,,,,,,,,,,,,,,,,,,,,,,,,,,,,,,,,,,,,4,0,4,0,,,,,,,,,,,,,,,,,,,,,,,,,,,,2311.711037799949,2311.711037799949,2311.711037799949,,,,,,,,,,,,p308,22,female,left_right_width,2025-11-26_13h34.56.245,exp1,2023.1.0,60.07788496163604,
,,,,,,,,,,,,,,,,5,7.8,8.9,10,11.1,12.2,1.1,0.55,0.55,4.95,10,initial,36.05,281,321,361,400,440,9,9,9,9,9,,,,,,,5,0,5,0,0,0,0,34,,,,,,,,,,,,,,4,0.993800500058569,4,0.4,0.4,14.41717,return,0.6796660999534652,,,,,,,,,,,,,,,,,p308,22,female,left_right_width,2025-11-26_13h34.56.245,exp1,2023.1.0,60.07788496163604,
,,,,,,,,,,,,,,,,3,9.3,10,10.7,0,0,0.7,0.29999999999999993,0.4,1.8,10,initial,36.05,335,361,386,0,0,9,9,9,0,0,,,,,,,5,0,5,0,0,1,1,9,,,,,,,,,,,,,,3,0.7523955999640748,3,0.5,0.5,18.02146,return,0.320408699917607,,,,,,,,,,,,,,,,,p308,22,female,left_right_width,2025-11-26_13h34.56.245,exp1,2023.1.0,60.07788496163604,
,,,,,,,,,,,,,,,,5,8.95,9.475,10,10.525,11.05,0.525,0.125,0.4,2.5,10,match,36.05,323,342,361,379,398,9,9,9,9,9,,,,,,,5,0,5,0,0,2,2,27,,,,,,,,,,,,,,4,0.616036600084044,4,0.55,0.55,19.82361,return,0.34946719999425113,,,,,,,,,,,,,,,,,p308,22,female,left_right_width,2025-11-26_13h34.56.245,exp1,2023.1.0,60.07788496163604,
,,,,,,,,,,,,,,,,5,8.275,9.1375,10,10.8625,11.725,0.8625,0.6125,0.25,3.7,10,match,36.05,298,329,361,392,423,9,9,9,9,9,,,,,,,5,0,5,0,0,3,3,22,,,,,,,,,,,,,,4,0.9661440999479964,4,0.55,0.30000000000000004,10.81288,return,1.1675265999510884,,,,,,,,,,,,,,,,,p308,22,female,left_right_width,2025-11-26_13h34.56.245,exp1,2023.1.0,60.07788496163604,
,,,,,,,,,,,,,,,,5,8.95,9.475,10,10.525,11.05,0.525,0.275,0.25,2.35,10,match,36.05,323,342,361,379,398,9,9,9,9,9,,,,,,,5,0,5,0,0,4,4,25,,,,,,,,,,,,,,5,0.9425708000781015,5,0.35,0.25,9.01073,return,0.9679695999948308,,,,,,,,,,,,,,,,,p308,22,female,left_right_width,2025-11-26_13h34.56.245,exp1,2023.1.0,60.07788496163604,
,,,,,,,,,,,,,,,,4,9.1,9.7,10.3,10.9,0,0.6,0.04999999999999997,0.55,2.35,10,match,36.05,328,350,371,393,0,9,9,9,9,0,,,,,,,5,0,5,0,0,5,5,12,,,,,,,,,,,,,,4,0.8563800998963416,4,0.45,0.5,18.02146,return,0.6443260998930782,,,,,,,,,,,,,,,,,p308,22,female,left_right_width,2025-11-26_13h34.56.245,exp1,2023.1.0,60.07788496163604,
,,,,,,,,,,,,,,,,3,7.8,10,12.2,0,0,2.2,1.65,0.55,4.95,10,match,36.05,281,361,440,0,0,9,9,9,0,0,,,,,,,5,0,5,0,0,6,6,35,,,,,,,,,,,,,,3,0.6122759999707341,3,0.5,0.5,18.02146,return,0.6177313000662252,,,,,,,,,,,,,,,,,p308,22,female,left_right_width,2025-11-26_13h34.56.245,exp1,2023.1.0,60.07788496163604,
,,,,,,,,,,,,,,,,5,8.2,9.1,10,10.9,11.8,0.9,0.65,0.25,3.85,10,initial,36.05,296,328,361,393,425,9,9,9,9,9,,,,,,,5,0,5,0,0,7,7,48,,,,,,,,,,,,,,5,1.6831652999389917,5,0.5,0.35000000000000003,12.61502,return,0.9743284999858588,,,,,,,,,,,,,,,,,p308,22,female,left_right_width,2025-11-26_13h34.56.245,exp1,2023.1.0,60.07788496163604,
,,,,,,,,,,,,,,,,3,8.9,10,11.1,0,0,1.1,0.8500000000000001,0.25,2.45,10,initial,36.05,321,361,400,0,0,9,9,9,0,0,,,,,,,5,0,5,0,0,8,8,2,,,,,,,,,,,,,,3,0.48474200000055134,3,0.2,0.3,10.81288,return,1.8075429999735206,,,,,,,,,,,,,,,,,p308,22,female,left_right_width,2025-11-26_13h34.56.245,exp1,2023.1.0,60.07788496163604,
,,,,,,,,,,,,,,,,5,8.35,9.175,10,10.825,11.65,0.825,0.575,0.25,3.55,10,match,36.05,301,331,361,390,420,9,9,9,9,9,,,,,,,5,0,5,0,0,9,9,20,,,,,,,,,,,,,,5,1.3851199999917299,5,0.55,0.35000000000000003,12.61502,return,1.5518973999423906,,,,,,,,,,,,,,,,,p308,22,female,left_right_width,2025-11-26_13h34.56.245,exp1,2023.1.0,60.07788496163604,
,,,,,,,,,,,,,,,,3,8.2,10,11.8,0,0,1.8,1.55,0.25,3.85,10,match,36.05,296,361,425,0,0,9,9,9,0,0,,,,,,,5,0,5,0,0,10,10,49,,,,,,,,,,,,,,3,0.6017418000847101,3,0.4,0.25000000000000006,9.01073,return,1.232743400032632,,,,,,,,,,,,,,,,,p308,22,female,left_right_width,2025-11-26_13h34.56.245,exp1,2023.1.0,60.07788496163604,
,,,,,,,,,,,,,,,,5,8.6,9.3,10,10.7,11.4,0.7,0.1499999999999999,0.55,3.3499999999999996,10,initial,36.05,310,335,361,386,411,9,9,9,9,9,,,,,,,5,0,5,0,0,11,11,40,,,,,,,,,,,,,,5,1.846200899919495,5,0.45,0.4,14.41717,return,0.8116341000422835,,,,,,,,,,,,,,,,,p308,22,female,left_right_width,2025-11-26_13h34.56.245,exp1,2023.1.0,60.07788496163604,
,,,,,,,,,,,,,,,,4,8.65,9.55,10.45,11.35,0,0.9,0.65,0.25,2.95,10,initial,36.05,312,344,377,409,0,9,9,9,9,0,,,,,,,5,0,5,0,0,12,12,30,,,,,,,,,,,,,,4,1.458369700005278,4,0.25,0.35,12.61502,return,1.3350639999844134,,,,,,,,,,,,,,,,,p308,22,female,left_right_width,2025-11-26_13h34.56.245,exp1,2023.1.0,60.07788496163604,
,,,,,,,,,,,,,,,,3,9.3,10,10.7,0,0,0.7,0.1499999999999999,0.55,1.95,10,initial,36.05,335,361,386,0,0,9,9,9,0,0,,,,,,,5,0,5,0,0,13,13,6,,,,,,,,,,,,,,3,0.673694199998863,3,0.5,0.5,18.02146,return,0.9347323999973014,,,,,,,,,,,,,,,,,p308,22,female,left_right_width,2025-11-26_13h34.56.245,exp1,2023.1.0,60.07788496163604,
,,,,,,,,,,,,,,,,4,8.65,9.55,10.45,11.35,0,0.9,0.5,0.4,3.1,10,initial,36.05,312,344,377,409,0,9,9,9,9,0,,,,,,,5,0,5,0,0,14,14,32,,,,,,,,,,,,,,4,0.668440300039947,4,0.4,0.35000000000000003,12.61502,return,0.6563424000050873,,,,,,,,,,,,,,,,,p308,22,female,left_right_width,2025-11-26_13h34.56.245,exp1,2023.1.0,60.07788496163604,
,,,,,,,,,,,,,,,,4,8.65,9.55,10.45,11.35,0,0.9,0.35,0.55,3.25,10,initial,36.05,312,344,377,409,0,9,9,9,9,0,,,,,,,5,0,5,0,0,15,15,28,,,,,,,,,,,,,,4,0.4964286999311298,4,0.5,0.45,16.21932,return,1.0347904999507591,,,,,,,,,,,,,,,,,p308,22,female,left_right_width,2025-11-26_13h34.56.245,exp1,2023.1.0,60.07788496163604,
,,,,,,,,,,,,,,,,4,9.1,9.7,10.3,10.9,0,0.5999999999999999,0.3499999999999999,0.25,2.05,10,match,36.05,328,350,371,393,0,9,9,9,9,0,,,,,,,5,0,5,0,0,16,16,14,,,,,,,,,,,,,,4,1.4287242999998853,4,0.45,0.25000000000000006,9.01073,return,1.1302404999732971,,,,,,,,,,,,,,,,,p308,22,female,left_right_width,2025-11-26_13h34.56.245,exp1,2023.1.0,60.07788496163604,
,,,,,,,,,,,,,,,,3,8.9,10,11.1,0,0,1.1,0.7000000000000001,0.4,2.6000000000000005,10,initial,36.05,321,361,400,0,0,9,9,9,0,0,,,,,,,5,0,5,0,0,17,17,4,,,,,,,,,,,,,,4,0.5014701000181958,4,0.25,0.2,7.20859,return,1.3134871000656858,,,,,,,,,,,,,,,,,p308,22,female,left_right_width,2025-11-26_13h34.56.245,exp1,2023.1.0,60.07788496163604,
,,,,,,,,,,,,,,,,3,8.525,10,11.475,0,0,1.475,1.225,0.25,3.2,10,match,36.05,307,361,414,0,0,9,9,9,0,0,,,,,,,5,0,5,0,0,18,18,45,,,,,,,,,,,,,,3,2.084974900004454,3,0.55,0.35000000000000003,12.61502,return,1.969093200052157,,,,,,,,,,,,,,,,,p308,22,female,left_right_width,2025-11-26_13h34.56.245,exp1,2023.1.0,60.07788496163604,
,,,,,,,,,,,,,,,,5,8.2,9.1,10,10.9,11.8,0.9,0.5,0.4,4,10,initial,36.05,296,328,361,393,425,9,9,9,9,9,,,,,,,5,0,5,0,0,19,19,50,,,,,,,,,,,,,,4,1.1791641999734566,4,0.5,0.35000000000000003,12.61502,return,1.3871631999500096,,,,,,,,,,,,,,,,,p308,22,female,left_right_width,2025-11-26_13h34.56.245,exp1,2023.1.0,60.07788496163604,
,,,,,,,,,,,,,,,,5,8.6,9.3,10,10.7,11.4,0.7,0.29999999999999993,0.4,3.1999999999999997,10,initial,36.05,310,335,361,386,411,9,9,9,9,9,,,,,,,5,0,5,0,0,20,20,44,,,,,,,,,,,,,,5,1.7562159999506548,5,0.25,0.39999999999999997,14.41717,return,1.3010940999956802,,,,,,,,,,,,,,,,,p308,22,female,left_right_width,2025-11-26_13h34.56.245,exp1,2023.1.0,60.07788496163604,
,,,,,,,,,,,,,,,,4,8.9,9.633333333333333,10.366666666666667,11.1,0,0.7333333333333334,0.4833333333333334,0.25,2.45,10,match,36.05,321,347,374,400,0,9,9,9,9,0,,,,,,,5,0,5,0,0,21,21,3,,,,,,,,,,,,,,4,1.3648544000461698,4,0.25,0.25,9.01073,return,0.7488207001006231,,,,,,,,,,,,,,,,,p308,22,female,left_right_width,2025-11-26_13h34.56.245,exp1,2023.1.0,60.07788496163604,
,,,,,,,,,,,,,,,,3,8.9,10,11.1,0,0,1.1,0.55,0.55,2.75,10,initial,36.05,321,361,400,0,0,9,9,9,0,0,,,,,,,5,0,5,0,0,22,22,0,,,,,,,,,,,,,,3,1.0999974000733346,3,0.3,0.44999999999999996,16.21932,return,1.5032491999445483,,,,,,,,,,,,,,,,,p308,22,female,left_right_width,2025-11-26_13h34.56.245,exp1,2023.1.0,60.07788496163604,
,,,,,,,,,,,,,,,,4,8.35,9.45,10.55,11.65,0,1.1,0.55,0.55,3.8500000000000005,10,initial,36.05,301,341,380,420,0,9,9,9,9,0,,,,,,,5,0,5,0,0,23,23,17,,,,,,,,,,,,,,4,0.9966549000237137,4,0.5,0.5,18.02146,return,0.7643293000292033,,,,,,,,,,,,,,,,,p308,22,female,left_right_width,2025-11-26_13h34.56.245,exp1,2023.1.0,60.07788496163604,
,,,,,,,,,,,,,,,,4,8.35,9.45,10.55,11.65,0,1.1,0.8500000000000001,0.25,3.5500000000000003,10,initial,36.05,301,341,380,420,0,9,9,9,9,0,,,,,,,5,0,5,0,0,24,24,19,,,,,,,,,,,,,,4,1.110230699996464,4,0.35,0.35,12.61502,return,0.6653587999753654,,,,,,,,,,,,,,,,,p308,22,female,left_right_width,2025-11-26_13h34.56.245,exp1,2023.1.0,60.07788496163604,
