amount_p,posx1_p,posx2_p,posx3_p,posx4_p,posx5_p,center_to_center_p,edge_to_edge_p,w_p,stim_lengt_p,eccentricity_p,line1_p,line2_p,line3_p,line4_p,line5_p,amount,posx1,posx2,posx3,posx4,posx5,center_to_center,edge_to_edge,w,stim_length,eccentricity,trial_type,deg_to_pix_index,posx1_in_pix,posx2_in_pix,posx3_in_pix,posx4_in_pix,posx5_in_pix,line1,line2,line3,line4,line5,posx,setsize_cobdi,trials.thisRepN,trials.thisTrialN,trials.thisN,trials.thisIndex,blocks.thisRepN,blocks.thisTrialN,blocks.thisN,blocks.thisIndex,loop.thisRepN,loop.thisTrialN,loop.thisN,loop.thisIndex,first.thisRepN,first.thisTrialN,first.thisN,first.thisIndex,second.thisRepN,second.thisTrialN,second.thisN,second.thisIndex,thisRow.t,notes,key_resp_3.started,key_resp_3.keys,key_resp_3.rt,key_resp.keys,key_resp.rt,response,starting_width_deg,response_width_degree,response_width_pixel,next_5.keys,next_5.rt,key_resp_4.keys,key_resp_4.rt,text_3.started,text_4.started,key_resp_2.started,text_2.started,key_resp_2.keys,key_resp_2.rt,adjusting.started,next.keys,next.rt,text_control2.started,key_resp.started,key_resp.corr,text_bye.started,text_bye.stopped,participant,age,gender,resp_group,date,expName,psychopyVersion,frameRate,
,,,,,,,,,,,,,,,,,,,,,,,,,,,,,,,,,,,,,,,,,,,,,,,,,,,,,,,,,,,,,,,472.06359430006705,c,111.08393329998944,,,,,,,,,,,,,,,,,,,,,,,,,p309,21,female,left_right_width,2025-11-26_16h40.21.719,exp1,2023.1.0,60.07063102632905,
4,8.65,9.55,10.45,11.35,0,0.9,0.5,0.4,3.1,10,9,9,9,9,0,,,,,,,,,,,,,,,,,,,,,,,,,,0,0,0,5,,,,,,,,,,,,,,,,,,,,,,3,3.537351799895987,3,0.2,0.2,7.20859,return,8.146504100062884,,,,,,,,,,,,,,,,,p309,21,female,left_right_width,2025-11-26_16h40.21.719,exp1,2023.1.0,60.07063102632905,
3,9,10,11,0,0,1,0.9,0.1,2.1,10,9,9,9,0,0,,,,,,,,,,,,,,,,,,,,,,,,,,0,1,1,1,,,,,,,,,,,,,,,,,,,,,,3,2.0839516000123695,3,0.45,0.05000000000000007,1.80215,return,3.3756675999611616,,,,,,,,,,,,,,,,,p309,21,female,left_right_width,2025-11-26_16h40.21.719,exp1,2023.1.0,60.07063102632905,
5,8.6,9.3,10,10.7,11.4,0.7,0.29999999999999993,0.4,3.1999999999999997,10,9,9,9,9,9,,,,,,,,,,,,,,,,,,,,,,,,,,0,2,2,7,,,,,,,,,,,,,,,,,,,,,,4,1.4781289999373257,4,0.35,0.35,12.61502,return,1.577092600055039,,,,,,,,,,,,,,,,,p309,21,female,left_right_width,2025-11-26_16h40.21.719,exp1,2023.1.0,60.07063102632905,
3,8.2,10,11.8,0,0,1.7999999999999998,1.4,0.4,4,10,9,9,9,0,0,,,,,,,,,,,,,,,,,,,,,,,,,,0,3,3,2,,,,,,,,,,,,,,,,,,,,,,3,1.5110558000160381,3,0.45,0.45,16.21932,return,1.3534273999975994,,,,,,,,,,,,,,,,,p309,21,female,left_right_width,2025-11-26_16h40.21.719,exp1,2023.1.0,60.07063102632905,
4,9.25,9.75,10.25,10.75,0,0.5,0.25,0.25,1.75,10,9,9,9,9,0,,,,,,,,,,,,,,,,,,,,,,,,,,0,4,4,4,,,,,,,,,,,,,,,,,,,,,,4,1.8304111999459565,4,0.55,0.20000000000000007,7.20859,return,2.25180690002162,,,,,,,,,,,,,,,,,p309,21,female,left_right_width,2025-11-26_16h40.21.719,exp1,2023.1.0,60.07063102632905,
5,9.25,9.625,10,10.375,10.75,0.375,0.125,0.25,1.75,10,9,9,9,9,9,,,,,,,,,,,,,,,,,,,,,,,,,,0,5,5,6,,,,,,,,,,,,,,,,,,,,,,4,2.9381406999891624,4,0.3,0.10000000000000002,3.60429,return,2.7229465000564232,,,,,,,,,,,,,,,,,p309,21,female,left_right_width,2025-11-26_16h40.21.719,exp1,2023.1.0,60.07063102632905,
4,9.5,9.833333333333334,10.166666666666666,10.5,0,0.33333333333333337,0.23333333333333336,0.1,1.1,10,9,9,9,9,0,,,,,,,,,,,,,,,,,,,,,,,,,,0,6,6,3,,,,,,,,,,,,,,,,,,,,,,3,1.7586658000946045,3,0.55,0.05000000000000007,1.80215,return,2.9993273000000045,,,,,,,,,,,,,,,,,p309,21,female,left_right_width,2025-11-26_16h40.21.719,exp1,2023.1.0,60.07063102632905,
5,9,9.5,10,10.5,11,0.5,0.09999999999999998,0.4,2.4,10,9,9,9,9,9,,,,,,,,,,,,,,,,,,,,,,,,,,0,7,7,8,,,,,,,,,,,,,,,,,,,,,,4,1.4629455999238417,4,0.35,0.39999999999999997,14.41717,return,1.963734699995257,,,,,,,,,,,,,,,,,p309,21,female,left_right_width,2025-11-26_16h40.21.719,exp1,2023.1.0,60.07063102632905,
3,9.5,10,10.5,0,0,0.5,0.4,0.1,1.1,10,9,9,9,0,0,,,,,,,,,,,,,,,,,,,,,,,,,,0,8,8,0,,,,,,,,,,,,,,,,,,,,,,3,1.1993456999771297,3,0.2,0.05000000000000002,1.80215,return,0.9435784999513999,,,,,,,,,,,,,,,,,p309,21,female,left_right_width,2025-11-26_16h40.21.719,exp1,2023.1.0,60.07063102632905,
,,,,,,,,,,,,,,,,,,,,,,,,,,,,,,,,,,,,,,,,,,,,,,,,,,,,,,,,,,,,,,,,,,,,,,,,,,c,79.35174610000104,,,,,,,,,,,,,,,p309,21,female,left_right_width,2025-11-26_16h40.21.719,exp1,2023.1.0,60.07063102632905,
,,,,,,,,,,,,,,,,5,8.275,9.1375,10,10.8625,11.725,0.8625,0.6125,0.25,3.7,10,match,36.05,298,329,361,392,423,9,9,9,9,9,,,,,,,0,0,0,0,0,0,0,22,,,,,,,,,,,,,,4,1.234778800047934,4,0.45,0.20000000000000007,7.20859,return,1.9052106000017375,,,,,,,,,,,,,,,,,p309,21,female,left_right_width,2025-11-26_16h40.21.719,exp1,2023.1.0,60.07063102632905,
,,,,,,,,,,,,,,,,4,9.3,9.766666666666667,10.233333333333333,10.7,0,0.4666666666666667,0.21666666666666665,0.25,1.65,10,match,36.05,335,352,369,386,0,9,9,9,9,0,,,,,,,0,0,0,0,0,1,1,8,,,,,,,,,,,,,,4,0.6940220000687987,4,0.2,0.2,7.20859,return,1.0810039000352845,,,,,,,,,,,,,,,,,p309,21,female,left_right_width,2025-11-26_16h40.21.719,exp1,2023.1.0,60.07063102632905,
,,,,,,,,,,,,,,,,4,8.65,9.55,10.45,11.35,0,0.9,0.5,0.4,3.1,10,initial,36.05,312,344,377,409,0,9,9,9,9,0,,,,,,,0,0,0,0,0,2,2,32,,,,,,,,,,,,,,4,1.0791816000128165,4,0.5,0.45,16.21932,return,1.417794800014235,,,,,,,,,,,,,,,,,p309,21,female,left_right_width,2025-11-26_16h40.21.719,exp1,2023.1.0,60.07063102632905,
,,,,,,,,,,,,,,,,3,8.6,10,11.4,0,0,1.4,1.15,0.25,3.05,10,match,36.05,310,361,411,0,0,9,9,9,0,0,,,,,,,0,0,0,0,0,3,3,43,,,,,,,,,,,,,,4,0.5656167999841273,4,0.45,0.30000000000000004,10.81288,return,2.58985049999319,,,,,,,,,,,,,,,,,p309,21,female,left_right_width,2025-11-26_16h40.21.719,exp1,2023.1.0,60.07063102632905,
,,,,,,,,,,,,,,,,3,7.8,10,12.2,0,0,2.2,1.65,0.55,4.95,10,match,36.05,281,361,440,0,0,9,9,9,0,0,,,,,,,0,0,0,0,0,4,4,35,,,,,,,,,,,,,,3,1.174820899963379,3,0.25,0.39999999999999997,14.41717,return,3.12728849996347,,,,,,,,,,,,,,,,,p309,21,female,left_right_width,2025-11-26_16h40.21.719,exp1,2023.1.0,60.07063102632905,
,,,,,,,,,,,,,,,,5,8.35,9.175,10,10.825,11.65,0.8250000000000001,0.275,0.55,3.85,10,match,36.05,301,331,361,390,420,9,9,9,9,9,,,,,,,0,0,0,0,0,5,5,18,,,,,,,,,,,,,,5,1.1490227000322193,5,0.25,0.39999999999999997,14.41717,return,1.4219329000916332,,,,,,,,,,,,,,,,,p309,21,female,left_right_width,2025-11-26_16h40.21.719,exp1,2023.1.0,60.07063102632905,
,,,,,,,,,,,,,,,,5,7.8,8.9,10,11.1,12.2,1.1,0.55,0.55,4.95,10,initial,36.05,281,321,361,400,440,9,9,9,9,9,,,,,,,0,0,0,0,0,6,6,34,,,,,,,,,,,,,,5,1.3680798000423238,5,0.4,0.4,14.41717,return,0.9122246999759227,,,,,,,,,,,,,,,,,p309,21,female,left_right_width,2025-11-26_16h40.21.719,exp1,2023.1.0,60.07063102632905,
,,,,,,,,,,,,,,,,3,8.9,10,11.1,0,0,1.1,0.7000000000000001,0.4,2.6000000000000005,10,initial,36.05,321,361,400,0,0,9,9,9,0,0,,,,,,,0,0,0,0,0,7,7,4,,,,,,,,,,,,,,3,1.2469194999430329,3,0.35,0.35,12.61502,return,0.828502600081265,,,,,,,,,,,,,,,,,p309,21,female,left_right_width,2025-11-26_16h40.21.719,exp1,2023.1.0,60.07063102632905,
,,,,,,,,,,,,,,,,4,8.95,9.65,10.35,11.05,0,0.7,0.44999999999999996,0.25,2.3499999999999996,10,initial,36.05,323,348,373,398,0,9,9,9,9,0,,,,,,,0,0,0,0,0,8,8,24,,,,,,,,,,,,,,4,1.3799532999983057,4,0.5,0.25000000000000006,9.01073,return,1.7232819999335334,,,,,,,,,,,,,,,,,p309,21,female,left_right_width,2025-11-26_16h40.21.719,exp1,2023.1.0,60.07063102632905,
,,,,,,,,,,,,,,,,5,8.35,9.175,10,10.825,11.65,0.825,0.575,0.25,3.55,10,match,36.05,301,331,361,390,420,9,9,9,9,9,,,,,,,0,0,0,0,0,9,9,20,,,,,,,,,,,,,,5,1.8655656001064926,5,0.25,0.25,9.01073,return,0.9746495999861509,,,,,,,,,,,,,,,,,p309,21,female,left_right_width,2025-11-26_16h40.21.719,exp1,2023.1.0,60.07063102632905,
,,,,,,,,,,,,,,,,4,9.3,9.766666666666667,10.233333333333333,10.7,0,0.4666666666666667,0.06666666666666665,0.4,1.8,10,match,36.05,335,352,369,386,0,9,9,9,9,0,,,,,,,0,0,0,0,0,10,10,10,,,,,,,,,,,,,,4,1.13586280005984,4,0.25,0.35,12.61502,return,2.0175475999712944,,,,,,,,,,,,,,,,,p309,21,female,left_right_width,2025-11-26_16h40.21.719,exp1,2023.1.0,60.07063102632905,
,,,,,,,,,,,,,,,,5,8.6,9.3,10,10.7,11.4,0.7,0.1499999999999999,0.55,3.3499999999999996,10,initial,36.05,310,335,361,386,411,9,9,9,9,9,,,,,,,0,0,0,0,0,11,11,40,,,,,,,,,,,,,,5,1.1575576000614092,5,0.45,0.45,16.21932,return,0.916663899901323,,,,,,,,,,,,,,,,,p309,21,female,left_right_width,2025-11-26_16h40.21.719,exp1,2023.1.0,60.07063102632905,
,,,,,,,,,,,,,,,,4,9.1,9.7,10.3,10.9,0,0.6000000000000001,0.20000000000000004,0.4,2.2,10,match,36.05,328,350,371,393,0,9,9,9,9,0,,,,,,,0,0,0,0,0,12,12,16,,,,,,,,,,,,,,4,1.289888700004667,4,0.5,0.35000000000000003,12.61502,return,1.7823653999948874,,,,,,,,,,,,,,,,,p309,21,female,left_right_width,2025-11-26_16h40.21.719,exp1,2023.1.0,60.07063102632905,
,,,,,,,,,,,,,,,,3,9.1,10,10.9,0,0,0.9,0.65,0.25,2.05,10,initial,36.05,328,361,393,0,0,9,9,9,0,0,,,,,,,0,0,0,0,0,13,13,13,,,,,,,,,,,,,,3,1.2225421000039205,3,0.4,0.25000000000000006,9.01073,return,1.6526772000361234,,,,,,,,,,,,,,,,,p309,21,female,left_right_width,2025-11-26_16h40.21.719,exp1,2023.1.0,60.07063102632905,
,,,,,,,,,,,,,,,,3,9.1,10,10.9,0,0,0.9,0.35,0.55,2.35,10,initial,36.05,328,361,393,0,0,9,9,9,0,0,,,,,,,0,0,0,0,0,14,14,11,,,,,,,,,,,,,,3,1.3963548999745399,3,0.3,0.39999999999999997,14.41717,return,0.9225771999917924,,,,,,,,,,,,,,,,,p309,21,female,left_right_width,2025-11-26_16h40.21.719,exp1,2023.1.0,60.07063102632905,
,,,,,,,,,,,,,,,,3,9.3,10,10.7,0,0,0.7,0.29999999999999993,0.4,1.8,10,initial,36.05,335,361,386,0,0,9,9,9,0,0,,,,,,,0,0,0,0,0,15,15,9,,,,,,,,,,,,,,3,1.0316211000317708,3,0.25,0.35,12.61502,return,2.2684779000701383,,,,,,,,,,,,,,,,,p309,21,female,left_right_width,2025-11-26_16h40.21.719,exp1,2023.1.0,60.07063102632905,
,,,,,,,,,,,,,,,,3,8.525,10,11.475,0,0,1.475,1.225,0.25,3.2,10,match,36.05,307,361,414,0,0,9,9,9,0,0,,,,,,,0,0,0,0,0,16,16,45,,,,,,,,,,,,,,3,0.6191309000132605,3,0.3,0.2,7.20859,return,1.537052599946037,,,,,,,,,,,,,,,,,p309,21,female,left_right_width,2025-11-26_16h40.21.719,exp1,2023.1.0,60.07063102632905,
,,,,,,,,,,,,,,,,3,8.2,10,11.8,0,0,1.8,1.55,0.25,3.85,10,match,36.05,296,361,425,0,0,9,9,9,0,0,,,,,,,0,0,0,0,0,17,17,49,,,,,,,,,,,,,,3,1.0472701999824494,3,0.25,0.25,9.01073,return,1.2278268999652937,,,,,,,,,,,,,,,,,p309,21,female,left_right_width,2025-11-26_16h40.21.719,exp1,2023.1.0,60.07063102632905,
,,,,,,,,,,,,,,,,4,8.35,9.45,10.55,11.65,0,1.1,0.8500000000000001,0.25,3.5500000000000003,10,initial,36.05,301,341,380,420,0,9,9,9,9,0,,,,,,,0,0,0,0,0,18,18,19,,,,,,,,,,,,,,4,0.5404246000107378,4,0.35,0.25,9.01073,return,1.79781230003573,,,,,,,,,,,,,,,,,p309,21,female,left_right_width,2025-11-26_16h40.21.719,exp1,2023.1.0,60.07063102632905,
,,,,,,,,,,,,,,,,3,8.2,10,11.8,0,0,1.8,1.25,0.55,4.15,10,match,36.05,296,361,425,0,0,9,9,9,0,0,,,,,,,0,0,0,0,0,19,19,47,,,,,,,,,,,,,,4,0.9768156999489293,4,0.25,0.44999999999999996,16.21932,return,2.9689060000237077,,,,,,,,,,,,,,,,,p309,21,female,left_right_width,2025-11-26_16h40.21.719,exp1,2023.1.0,60.07063102632905,
,,,,,,,,,,,,,,,,4,8.95,9.65,10.35,11.05,0,0.7,0.1499999999999999,0.55,2.65,10,initial,36.05,323,348,373,398,0,9,9,9,9,0,,,,,,,0,0,0,0,0,20,20,23,,,,,,,,,,,,,,3,1.0711029999656603,3,0.2,0.39999999999999997,14.41717,return,2.2272604999598116,,,,,,,,,,,,,,,,,p309,21,female,left_right_width,2025-11-26_16h40.21.719,exp1,2023.1.0,60.07063102632905,
,,,,,,,,,,,,,,,,3,8.9,10,11.1,0,0,1.1,0.8500000000000001,0.25,2.45,10,initial,36.05,321,361,400,0,0,9,9,9,0,0,,,,,,,0,0,0,0,0,21,21,2,,,,,,,,,,,,,,3,1.0472359000705183,3,0.55,0.25000000000000006,9.01073,return,1.8041897000512108,,,,,,,,,,,,,,,,,p309,21,female,left_right_width,2025-11-26_16h40.21.719,exp1,2023.1.0,60.07063102632905,
,,,,,,,,,,,,,,,,4,8.65,9.55,10.45,11.35,0,0.9,0.35,0.55,3.25,10,initial,36.05,312,344,377,409,0,9,9,9,9,0,,,,,,,0,0,0,0,0,22,22,28,,,,,,,,,,,,,,3,0.8852196000516415,3,0.3,0.49999999999999994,18.02146,return,1.312464699964039,,,,,,,,,,,,,,,,,p309,21,female,left_right_width,2025-11-26_16h40.21.719,exp1,2023.1.0,60.07063102632905,
,,,,,,,,,,,,,,,,3,9.1,10,10.9,0,0,0.9,0.5,0.4,2.2,10,initial,36.05,328,361,393,0,0,9,9,9,0,0,,,,,,,0,0,0,0,0,23,23,15,,,,,,,,,,,,,,3,0.5471310999710113,3,0.25,0.44999999999999996,16.21932,return,2.284280200023204,,,,,,,,,,,,,,,,,p309,21,female,left_right_width,2025-11-26_16h40.21.719,exp1,2023.1.0,60.07063102632905,
,,,,,,,,,,,,,,,,4,8.35,9.45,10.55,11.65,0,1.1,0.7000000000000001,0.4,3.7,10,initial,36.05,301,341,380,420,0,9,9,9,9,0,,,,,,,0,0,0,0,0,24,24,21,,,,,,,,,,,,,,4,0.9264292999869213,4,0.35,0.44999999999999996,16.21932,return,0.7445277000078931,,,,,,,,,,,,,,,,,p309,21,female,left_right_width,2025-11-26_16h40.21.719,exp1,2023.1.0,60.07063102632905,
,,,,,,,,,,,,,,,,4,8.65,9.55,10.45,11.35,0,0.9,0.65,0.25,2.95,10,initial,36.05,312,344,377,409,0,9,9,9,9,0,,,,,,,0,0,0,0,0,25,25,30,,,,,,,,,,,,,,4,0.8545737999957055,4,0.5,0.25000000000000006,9.01073,return,1.71603240002878,,,,,,,,,,,,,,,,,p309,21,female,left_right_width,2025-11-26_16h40.21.719,exp1,2023.1.0,60.07063102632905,
,,,,,,,,,,,,,,,,3,9.3,10,10.7,0,0,0.7,0.1499999999999999,0.55,1.95,10,initial,36.05,335,361,386,0,0,9,9,9,0,0,,,,,,,0,0,0,0,0,26,26,6,,,,,,,,,,,,,,3,0.9664219000842422,3,0.25,0.44999999999999996,16.21932,return,1.5988085001008585,,,,,,,,,,,,,,,,,p309,21,female,left_right_width,2025-11-26_16h40.21.719,exp1,2023.1.0,60.07063102632905,
,,,,,,,,,,,,,,,,5,8.65,9.325,10,10.675,11.35,0.675,0.125,0.55,3.25,10,match,36.05,312,336,361,385,409,9,9,9,9,9,,,,,,,0,0,0,0,0,27,27,29,,,,,,,,,,,,,,4,0.8890183999901637,4,0.35,0.49999999999999994,18.02146,return,1.2679316999856383,,,,,,,,,,,,,,,,,p309,21,female,left_right_width,2025-11-26_16h40.21.719,exp1,2023.1.0,60.07063102632905,
,,,,,,,,,,,,,,,,5,8.65,9.325,10,10.675,11.35,0.675,0.275,0.4,3.1,10,match,36.05,312,336,361,385,409,9,9,9,9,9,,,,,,,0,0,0,0,0,28,28,33,,,,,,,,,,,,,,5,1.1724248999962583,5,0.45,0.35000000000000003,12.61502,return,1.651757700019516,,,,,,,,,,,,,,,,,p309,21,female,left_right_width,2025-11-26_16h40.21.719,exp1,2023.1.0,60.07063102632905,
,,,,,,,,,,,,,,,,3,8.6,10,11.4,0,0,1.4,0.85,0.55,3.35,10,match,36.05,310,361,411,0,0,9,9,9,0,0,,,,,,,0,0,0,0,0,29,29,41,,,,,,,,,,,,,,3,1.2436473000561818,3,0.55,0.55,19.82361,return,0.9212563999462873,,,,,,,,,,,,,,,,,p309,21,female,left_right_width,2025-11-26_16h40.21.719,exp1,2023.1.0,60.07063102632905,
,,,,,,,,,,,,,,,,5,8.2,9.1,10,10.9,11.8,0.9,0.5,0.4,4,10,initial,36.05,296,328,361,393,425,9,9,9,9,9,,,,,,,0,0,0,0,0,30,30,50,,,,,,,,,,,,,,5,1.0216700000455603,5,0.3,0.44999999999999996,16.21932,return,1.1541212999727577,,,,,,,,,,,,,,,,,p309,21,female,left_right_width,2025-11-26_16h40.21.719,exp1,2023.1.0,60.07063102632905,
,,,,,,,,,,,,,,,,5,8.65,9.325,10,10.675,11.35,0.675,0.42500000000000004,0.25,2.95,10,match,36.05,312,336,361,385,409,9,9,9,9,9,,,,,,,0,0,0,0,0,31,31,31,,,,,,,,,,,,,,5,1.1979581998893991,5,0.3,0.2,7.20859,return,1.1798028000630438,,,,,,,,,,,,,,,,,p309,21,female,left_right_width,2025-11-26_16h40.21.719,exp1,2023.1.0,60.07063102632905,
,,,,,,,,,,,,,,,,4,9.1,9.7,10.3,10.9,0,0.5999999999999999,0.3499999999999999,0.25,2.05,10,match,36.05,328,350,371,393,0,9,9,9,9,0,,,,,,,0,0,0,0,0,32,32,14,,,,,,,,,,,,,,4,1.3386002000188455,4,0.55,0.20000000000000007,7.20859,return,1.8280570999486372,,,,,,,,,,,,,,,,,p309,21,female,left_right_width,2025-11-26_16h40.21.719,exp1,2023.1.0,60.07063102632905,
,,,,,,,,,,,,,,,,3,7.8,10,12.2,0,0,2.2,1.9500000000000002,0.25,4.65,10,match,36.05,281,361,440,0,0,9,9,9,0,0,,,,,,,0,0,0,0,0,33,33,37,,,,,,,,,,,,,,3,1.0413309000432491,3,0.35,0.2,7.20859,return,1.1272239999379963,,,,,,,,,,,,,,,,,p309,21,female,left_right_width,2025-11-26_16h40.21.719,exp1,2023.1.0,60.07063102632905,
,,,,,,,,,,,,,,,,5,7.8,8.9,10,11.1,12.2,1.1,0.7000000000000001,0.4,4.800000000000001,10,initial,36.05,281,321,361,400,440,9,9,9,9,9,,,,,,,0,0,0,0,0,34,34,38,,,,,,,,,,,,,,5,1.9918755000689998,5,0.3,0.3,10.81288,return,1.429905700031668,,,,,,,,,,,,,,,,,p309,21,female,left_right_width,2025-11-26_16h40.21.719,exp1,2023.1.0,60.07063102632905,
,,,,,,,,,,,,,,,,5,8.95,9.475,10,10.525,11.05,0.525,0.275,0.25,2.35,10,match,36.05,323,342,361,379,398,9,9,9,9,9,,,,,,,0,0,0,0,0,35,35,25,,,,,,,,,,,,,,4,1.5787225000094622,4,0.4,0.25000000000000006,9.01073,return,1.1627937000012025,,,,,,,,,,,,,,,,,p309,21,female,left_right_width,2025-11-26_16h40.21.719,exp1,2023.1.0,60.07063102632905,
,,,,,,,,,,,,,,,,5,8.2,9.1,10,10.9,11.8,0.9,0.65,0.25,3.85,10,initial,36.05,296,328,361,393,425,9,9,9,9,9,,,,,,,0,0,0,0,0,36,36,48,,,,,,,,,,,,,,5,1.485229799989611,5,0.25,0.2,7.20859,return,0.6238571999128908,,,,,,,,,,,,,,,,,p309,21,female,left_right_width,2025-11-26_16h40.21.719,exp1,2023.1.0,60.07063102632905,
,,,,,,,,,,,,,,,,3,7.800000000000001,10,12.2,0,0,2.1999999999999997,1.7999999999999998,0.4,4.8,10,match,36.05,281,361,440,0,0,9,9,9,0,0,,,,,,,0,0,0,0,0,37,37,39,,,,,,,,,,,,,,3,1.065088100032881,3,0.55,0.35000000000000003,12.61502,return,1.997389500029385,,,,,,,,,,,,,,,,,p309,21,female,left_right_width,2025-11-26_16h40.21.719,exp1,2023.1.0,60.07063102632905,
,,,,,,,,,,,,,,,,4,8.825,9.608333333333333,10.391666666666667,11.175,0,0.7833333333333333,0.5333333333333333,0.25,2.6,10,match,36.05,318,346,375,403,0,9,9,9,9,0,,,,,,,0,0,0,0,0,38,38,5,,,,,,,,,,,,,,4,1.1215415999758989,4,0.25,0.25,9.01073,return,0.8178128000581637,,,,,,,,,,,,,,,,,p309,21,female,left_right_width,2025-11-26_16h40.21.719,exp1,2023.1.0,60.07063102632905,
,,,,,,,,,,,,,,,,3,9.3,10,10.7,0,0,0.7,0.44999999999999996,0.25,1.65,10,initial,36.05,335,361,386,0,0,9,9,9,0,0,,,,,,,0,0,0,0,0,39,39,7,,,,,,,,,,,,,,3,1.0173855000175536,3,0.5,0.20000000000000007,7.20859,return,1.5030089999781922,,,,,,,,,,,,,,,,,p309,21,female,left_right_width,2025-11-26_16h40.21.719,exp1,2023.1.0,60.07063102632905,
,,,,,,,,,,,,,,,,4,9.1,9.7,10.3,10.9,0,0.6,0.04999999999999997,0.55,2.35,10,match,36.05,328,350,371,393,0,9,9,9,9,0,,,,,,,0,0,0,0,0,40,40,12,,,,,,,,,,,,,,3,1.4682336999103427,3,0.25,0.5499999999999999,19.82361,return,2.399671999970451,,,,,,,,,,,,,,,,,p309,21,female,left_right_width,2025-11-26_16h40.21.719,exp1,2023.1.0,60.07063102632905,
,,,,,,,,,,,,,,,,4,8.95,9.65,10.35,11.05,0,0.7,0.29999999999999993,0.4,2.5,10,initial,36.05,323,348,373,398,0,9,9,9,9,0,,,,,,,0,0,0,0,0,41,41,26,,,,,,,,,,,,,,3,1.3695130000123754,3,0.2,0.39999999999999997,14.41717,return,2.1779668999370188,,,,,,,,,,,,,,,,,p309,21,female,left_right_width,2025-11-26_16h40.21.719,exp1,2023.1.0,60.07063102632905,
,,,,,,,,,,,,,,,,3,8.2,10,11.8,0,0,1.7999999999999998,1.4,0.4,4,10,match,36.05,296,361,425,0,0,9,9,9,0,0,,,,,,,0,0,0,0,0,42,42,51,,,,,,,,,,,,,,3,1.0190767999738455,3,0.2,0.39999999999999997,14.41717,return,1.6971462999936193,,,,,,,,,,,,,,,,,p309,21,female,left_right_width,2025-11-26_16h40.21.719,exp1,2023.1.0,60.07063102632905,
,,,,,,,,,,,,,,,,5,8.6,9.3,10,10.7,11.4,0.7,0.44999999999999996,0.25,3.05,10,initial,36.05,310,335,361,386,411,9,9,9,9,9,,,,,,,0,0,0,0,0,43,43,42,,,,,,,,,,,,,,4,1.6846102999988943,4,0.3,0.25,9.01073,return,0.7042691999813542,,,,,,,,,,,,,,,,,p309,21,female,left_right_width,2025-11-26_16h40.21.719,exp1,2023.1.0,60.07063102632905,
,,,,,,,,,,,,,,,,4,8.9,9.633333333333333,10.366666666666667,11.1,0,0.7333333333333334,0.4833333333333334,0.25,2.45,10,match,36.05,321,347,374,400,0,9,9,9,9,0,,,,,,,0,0,0,0,0,44,44,3,,,,,,,,,,,,,,4,1.0186469999607652,4,0.2,0.2,7.20859,return,1.104809100041166,,,,,,,,,,,,,,,,,p309,21,female,left_right_width,2025-11-26_16h40.21.719,exp1,2023.1.0,60.07063102632905,
,,,,,,,,,,,,,,,,4,8.35,9.45,10.55,11.65,0,1.1,0.55,0.55,3.8500000000000005,10,initial,36.05,301,341,380,420,0,9,9,9,9,0,,,,,,,0,0,0,0,0,45,45,17,,,,,,,,,,,,,,5,1.5048318998888135,5,0.3,0.44999999999999996,16.21932,return,0.739915799931623,,,,,,,,,,,,,,,,,p309,21,female,left_right_width,2025-11-26_16h40.21.719,exp1,2023.1.0,60.07063102632905,
,,,,,,,,,,,,,,,,5,7.8,8.9,10,11.1,12.2,1.1,0.8500000000000001,0.25,4.65,10,initial,36.05,281,321,361,400,440,9,9,9,9,9,,,,,,,0,0,0,0,0,46,46,36,,,,,,,,,,,,,,5,1.0958909000037238,5,0.25,0.25,9.01073,return,1.018257899908349,,,,,,,,,,,,,,,,,p309,21,female,left_right_width,2025-11-26_16h40.21.719,exp1,2023.1.0,60.07063102632905,
,,,,,,,,,,,,,,,,4,8.9,9.633333333333333,10.366666666666667,11.1,0,0.7333333333333333,0.18333333333333326,0.55,2.75,10,match,36.05,321,347,374,400,0,9,9,9,9,0,,,,,,,0,0,0,0,0,47,47,1,,,,,,,,,,,,,,4,1.1131700000260025,4,0.25,0.44999999999999996,16.21932,return,2.442612100043334,,,,,,,,,,,,,,,,,p309,21,female,left_right_width,2025-11-26_16h40.21.719,exp1,2023.1.0,60.07063102632905,
,,,,,,,,,,,,,,,,3,8.9,10,11.1,0,0,1.1,0.55,0.55,2.75,10,initial,36.05,321,361,400,0,0,9,9,9,0,0,,,,,,,0,0,0,0,0,48,48,0,,,,,,,,,,,,,,3,1.5202138000167906,3,0.35,0.44999999999999996,16.21932,return,1.459321599919349,,,,,,,,,,,,,,,,,p309,21,female,left_right_width,2025-11-26_16h40.21.719,exp1,2023.1.0,60.07063102632905,
,,,,,,,,,,,,,,,,5,8.95,9.475,10,10.525,11.05,0.525,0.125,0.4,2.5,10,match,36.05,323,342,361,379,398,9,9,9,9,9,,,,,,,0,0,0,0,0,49,49,27,,,,,,,,,,,,,,5,1.5186400999082252,5,0.2,0.44999999999999996,16.21932,return,2.0175235000206158,,,,,,,,,,,,,,,,,p309,21,female,left_right_width,2025-11-26_16h40.21.719,exp1,2023.1.0,60.07063102632905,
,,,,,,,,,,,,,,,,5,8.2,9.1,10,10.9,11.8,0.9,0.35,0.55,4.15,10,initial,36.05,296,328,361,393,425,9,9,9,9,9,,,,,,,0,0,0,0,0,50,50,46,,,,,,,,,,,,,,4,1.0285242000827566,4,0.55,0.55,19.82361,return,0.8093684000195935,,,,,,,,,,,,,,,,,p309,21,female,left_right_width,2025-11-26_16h40.21.719,exp1,2023.1.0,60.07063102632905,
,,,,,,,,,,,,,,,,5,8.6,9.3,10,10.7,11.4,0.7,0.29999999999999993,0.4,3.1999999999999997,10,initial,36.05,310,335,361,386,411,9,9,9,9,9,,,,,,,0,0,0,0,0,51,51,44,,,,,,,,,,,,,,5,1.1059493999928236,5,0.5,0.35000000000000003,12.61502,return,2.2131754000438377,,,,,,,,,,,,,,,,,p309,21,female,left_right_width,2025-11-26_16h40.21.719,exp1,2023.1.0,60.07063102632905,
,,,,,,,,,,,,,,,,,,,,,,,,,,,,,,,,,,,,,,,,,,,,,0,0,0,0,,,,,,,,,,,,,,,,,,,,,,,,,,,,952.3670993000269,952.3670993000269,952.3670993000269,,,,,,,,,,,,p309,21,female,left_right_width,2025-11-26_16h40.21.719,exp1,2023.1.0,60.07063102632905,
,,,,,,,,,,,,,,,,3,8.9,10,11.1,0,0,1.1,0.8500000000000001,0.25,2.45,10,initial,36.05,321,361,400,0,0,9,9,9,0,0,,,,,,,1,0,1,0,0,0,0,2,,,,,,,,,,,,,,3,1.5889669000171125,3,0.45,0.20000000000000007,7.20859,return,1.8918796998914331,,,,,,,,,,,,,,,,,p309,21,female,left_right_width,2025-11-26_16h40.21.719,exp1,2023.1.0,60.07063102632905,
,,,,,,,,,,,,,,,,3,8.6,10,11.4,0,0,1.4,1.15,0.25,3.05,10,match,36.05,310,361,411,0,0,9,9,9,0,0,,,,,,,1,0,1,0,0,1,1,43,,,,,,,,,,,,,,3,0.7625670999987051,3,0.55,0.25000000000000006,9.01073,return,2.2846647000405937,,,,,,,,,,,,,,,,,p309,21,female,left_right_width,2025-11-26_16h40.21.719,exp1,2023.1.0,60.07063102632905,
,,,,,,,,,,,,,,,,3,8.2,10,11.8,0,0,1.7999999999999998,1.4,0.4,4,10,match,36.05,296,361,425,0,0,9,9,9,0,0,,,,,,,1,0,1,0,0,2,2,51,,,,,,,,,,,,,,3,0.9413076000055298,3,0.25,0.44999999999999996,16.21932,return,2.5820727999089286,,,,,,,,,,,,,,,,,p309,21,female,left_right_width,2025-11-26_16h40.21.719,exp1,2023.1.0,60.07063102632905,
,,,,,,,,,,,,,,,,4,8.95,9.65,10.35,11.05,0,0.7,0.1499999999999999,0.55,2.65,10,initial,36.05,323,348,373,398,0,9,9,9,9,0,,,,,,,1,0,1,0,0,3,3,23,,,,,,,,,,,,,,3,0.822569000069052,3,0.35,0.5499999999999999,19.82361,return,1.3812029999680817,,,,,,,,,,,,,,,,,p309,21,female,left_right_width,2025-11-26_16h40.21.719,exp1,2023.1.0,60.07063102632905,
,,,,,,,,,,,,,,,,5,8.95,9.475,10,10.525,11.05,0.525,0.275,0.25,2.35,10,match,36.05,323,342,361,379,398,9,9,9,9,9,,,,,,,1,0,1,0,0,4,4,25,,,,,,,,,,,,,,4,0.8868262999458238,4,0.45,0.20000000000000007,7.20859,return,1.1704707000171766,,,,,,,,,,,,,,,,,p309,21,female,left_right_width,2025-11-26_16h40.21.719,exp1,2023.1.0,60.07063102632905,
,,,,,,,,,,,,,,,,4,8.65,9.55,10.45,11.35,0,0.9,0.35,0.55,3.25,10,initial,36.05,312,344,377,409,0,9,9,9,9,0,,,,,,,1,0,1,0,0,5,5,28,,,,,,,,,,,,,,3,1.049580299993977,3,0.2,0.44999999999999996,16.21932,return,1.9186367999063805,,,,,,,,,,,,,,,,,p309,21,female,left_right_width,2025-11-26_16h40.21.719,exp1,2023.1.0,60.07063102632905,
,,,,,,,,,,,,,,,,5,7.8,8.9,10,11.1,12.2,1.1,0.55,0.55,4.95,10,initial,36.05,281,321,361,400,440,9,9,9,9,9,,,,,,,1,0,1,0,0,6,6,34,,,,,,,,,,,,,,4,2.4105715999612585,4,0.5,0.6000000000000001,21.62576,return,0.7145299999974668,,,,,,,,,,,,,,,,,p309,21,female,left_right_width,2025-11-26_16h40.21.719,exp1,2023.1.0,60.07063102632905,
,,,,,,,,,,,,,,,,5,8.35,9.175,10,10.825,11.65,0.825,0.575,0.25,3.55,10,match,36.05,301,331,361,390,420,9,9,9,9,9,,,,,,,1,0,1,0,0,7,7,20,,,,,,,,,,,,,,4,0.9010821999981999,4,0.55,0.20000000000000007,7.20859,return,1.9189131000312045,,,,,,,,,,,,,,,,,p309,21,female,left_right_width,2025-11-26_16h40.21.719,exp1,2023.1.0,60.07063102632905,
,,,,,,,,,,,,,,,,5,8.6,9.3,10,10.7,11.4,0.7,0.44999999999999996,0.25,3.05,10,initial,36.05,310,335,361,386,411,9,9,9,9,9,,,,,,,1,0,1,0,0,8,8,42,,,,,,,,,,,,,,5,1.3271282999776304,5,0.3,0.2,7.20859,return,1.0488209000322968,,,,,,,,,,,,,,,,,p309,21,female,left_right_width,2025-11-26_16h40.21.719,exp1,2023.1.0,60.07063102632905,
,,,,,,,,,,,,,,,,5,7.8,8.9,10,11.1,12.2,1.1,0.8500000000000001,0.25,4.65,10,initial,36.05,281,321,361,400,440,9,9,9,9,9,,,,,,,1,0,1,0,0,9,9,36,,,,,,,,,,,,,,5,0.9662258999887854,5,0.35,0.2,7.20859,return,0.8161416000220925,,,,,,,,,,,,,,,,,p309,21,female,left_right_width,2025-11-26_16h40.21.719,exp1,2023.1.0,60.07063102632905,
,,,,,,,,,,,,,,,,3,9.1,10,10.9,0,0,0.9,0.65,0.25,2.05,10,initial,36.05,328,361,393,0,0,9,9,9,0,0,,,,,,,1,0,1,0,0,10,10,13,,,,,,,,,,,,,,3,1.19280219997745,3,0.45,0.25000000000000006,9.01073,return,1.0959084000205621,,,,,,,,,,,,,,,,,p309,21,female,left_right_width,2025-11-26_16h40.21.719,exp1,2023.1.0,60.07063102632905,
,,,,,,,,,,,,,,,,5,8.65,9.325,10,10.675,11.35,0.675,0.275,0.4,3.1,10,match,36.05,312,336,361,385,409,9,9,9,9,9,,,,,,,1,0,1,0,0,11,11,33,,,,,,,,,,,,,,4,0.8685491000069305,4,0.25,0.35,12.61502,return,2.2892379999393597,,,,,,,,,,,,,,,,,p309,21,female,left_right_width,2025-11-26_16h40.21.719,exp1,2023.1.0,60.07063102632905,
,,,,,,,,,,,,,,,,3,9.1,10,10.9,0,0,0.9,0.5,0.4,2.2,10,initial,36.05,328,361,393,0,0,9,9,9,0,0,,,,,,,1,0,1,0,0,12,12,15,,,,,,,,,,,,,,3,1.0709709000075236,3,0.3,0.35,12.61502,return,0.9781767999520525,,,,,,,,,,,,,,,,,p309,21,female,left_right_width,2025-11-26_16h40.21.719,exp1,2023.1.0,60.07063102632905,
,,,,,,,,,,,,,,,,3,9.3,10,10.7,0,0,0.7,0.29999999999999993,0.4,1.8,10,initial,36.05,335,361,386,0,0,9,9,9,0,0,,,,,,,1,0,1,0,0,13,13,9,,,,,,,,,,,,,,3,1.0678504999959841,3,0.25,0.39999999999999997,14.41717,return,1.0892868000082672,,,,,,,,,,,,,,,,,p309,21,female,left_right_width,2025-11-26_16h40.21.719,exp1,2023.1.0,60.07063102632905,
,,,,,,,,,,,,,,,,5,8.2,9.1,10,10.9,11.8,0.9,0.5,0.4,4,10,initial,36.05,296,328,361,393,425,9,9,9,9,9,,,,,,,1,0,1,0,0,14,14,50,,,,,,,,,,,,,,5,1.4454466999741271,5,0.35,0.39999999999999997,14.41717,return,0.6023801999399439,,,,,,,,,,,,,,,,,p309,21,female,left_right_width,2025-11-26_16h40.21.719,exp1,2023.1.0,60.07063102632905,
,,,,,,,,,,,,,,,,5,8.95,9.475,10,10.525,11.05,0.525,0.125,0.4,2.5,10,match,36.05,323,342,361,379,398,9,9,9,9,9,,,,,,,1,0,1,0,0,15,15,27,,,,,,,,,,,,,,5,1.2733307000016794,5,0.5,0.4,14.41717,return,1.6695894000586122,,,,,,,,,,,,,,,,,p309,21,female,left_right_width,2025-11-26_16h40.21.719,exp1,2023.1.0,60.07063102632905,
,,,,,,,,,,,,,,,,4,8.35,9.45,10.55,11.65,0,1.1,0.55,0.55,3.8500000000000005,10,initial,36.05,301,341,380,420,0,9,9,9,9,0,,,,,,,1,0,1,0,0,16,16,17,,,,,,,,,,,,,,5,1.139856299967505,5,0.25,0.35,12.61502,return,1.124967799987644,,,,,,,,,,,,,,,,,p309,21,female,left_right_width,2025-11-26_16h40.21.719,exp1,2023.1.0,60.07063102632905,
,,,,,,,,,,,,,,,,3,9.1,10,10.9,0,0,0.9,0.35,0.55,2.35,10,initial,36.05,328,361,393,0,0,9,9,9,0,0,,,,,,,1,0,1,0,0,17,17,11,,,,,,,,,,,,,,3,1.1399670999962837,3,0.25,0.39999999999999997,14.41717,return,0.8697889999020845,,,,,,,,,,,,,,,,,p309,21,female,left_right_width,2025-11-26_16h40.21.719,exp1,2023.1.0,60.07063102632905,
,,,,,,,,,,,,,,,,3,7.8,10,12.2,0,0,2.2,1.65,0.55,4.95,10,match,36.05,281,361,440,0,0,9,9,9,0,0,,,,,,,1,0,1,0,0,18,18,35,,,,,,,,,,,,,,3,0.9349001999944448,3,0.25,0.49999999999999994,18.02146,return,2.847467399900779,,,,,,,,,,,,,,,,,p309,21,female,left_right_width,2025-11-26_16h40.21.719,exp1,2023.1.0,60.07063102632905,
,,,,,,,,,,,,,,,,4,8.95,9.65,10.35,11.05,0,0.7,0.44999999999999996,0.25,2.3499999999999996,10,initial,36.05,323,348,373,398,0,9,9,9,9,0,,,,,,,1,0,1,0,0,19,19,24,,,,,,,,,,,,,,4,0.9183813999406993,4,0.2,0.3,10.81288,return,0.9125579999526963,,,,,,,,,,,,,,,,,p309,21,female,left_right_width,2025-11-26_16h40.21.719,exp1,2023.1.0,60.07063102632905,
,,,,,,,,,,,,,,,,3,8.6,10,11.4,0,0,1.4,0.85,0.55,3.35,10,match,36.05,310,361,411,0,0,9,9,9,0,0,,,,,,,1,0,1,0,0,20,20,41,,,,,,,,,,,,,,4,0.8637990000424907,4,0.35,0.44999999999999996,16.21932,return,0.7799393000314012,,,,,,,,,,,,,,,,,p309,21,female,left_right_width,2025-11-26_16h40.21.719,exp1,2023.1.0,60.07063102632905,
,,,,,,,,,,,,,,,,4,8.35,9.45,10.55,11.65,0,1.1,0.8500000000000001,0.25,3.5500000000000003,10,initial,36.05,301,341,380,420,0,9,9,9,9,0,,,,,,,1,0,1,0,0,21,21,19,,,,,,,,,,,,,,4,0.6065830000443384,4,0.35,0.44999999999999996,16.21932,return,1.1405213999096304,,,,,,,,,,,,,,,,,p309,21,female,left_right_width,2025-11-26_16h40.21.719,exp1,2023.1.0,60.07063102632905,
,,,,,,,,,,,,,,,,5,8.65,9.325,10,10.675,11.35,0.675,0.42500000000000004,0.25,2.95,10,match,36.05,312,336,361,385,409,9,9,9,9,9,,,,,,,1,0,1,0,0,22,22,31,,,,,,,,,,,,,,5,1.4440900000045076,5,0.5,0.25000000000000006,9.01073,return,1.4655012999428436,,,,,,,,,,,,,,,,,p309,21,female,left_right_width,2025-11-26_16h40.21.719,exp1,2023.1.0,60.07063102632905,
,,,,,,,,,,,,,,,,5,8.2,9.1,10,10.9,11.8,0.9,0.35,0.55,4.15,10,initial,36.05,296,328,361,393,425,9,9,9,9,9,,,,,,,1,0,1,0,0,23,23,46,,,,,,,,,,,,,,5,1.1359680000459775,5,0.45,0.4,14.41717,return,1.95309979992453,,,,,,,,,,,,,,,,,p309,21,female,left_right_width,2025-11-26_16h40.21.719,exp1,2023.1.0,60.07063102632905,
,,,,,,,,,,,,,,,,3,7.800000000000001,10,12.2,0,0,2.1999999999999997,1.7999999999999998,0.4,4.8,10,match,36.05,281,361,440,0,0,9,9,9,0,0,,,,,,,1,0,1,0,0,24,24,39,,,,,,,,,,,,,,3,1.1779196000425145,3,0.45,0.35000000000000003,12.61502,return,1.1297125000273809,,,,,,,,,,,,,,,,,p309,21,female,left_right_width,2025-11-26_16h40.21.719,exp1,2023.1.0,60.07063102632905,
,,,,,,,,,,,,,,,,4,9.1,9.7,10.3,10.9,0,0.5999999999999999,0.3499999999999999,0.25,2.05,10,match,36.05,328,350,371,393,0,9,9,9,9,0,,,,,,,1,0,1,0,0,25,25,14,,,,,,,,,,,,,,5,1.097830899991095,5,0.55,0.30000000000000004,10.81288,return,1.3091971999965608,,,,,,,,,,,,,,,,,p309,21,female,left_right_width,2025-11-26_16h40.21.719,exp1,2023.1.0,60.07063102632905,
,,,,,,,,,,,,,,,,5,8.275,9.1375,10,10.8625,11.725,0.8625,0.6125,0.25,3.7,10,match,36.05,298,329,361,392,423,9,9,9,9,9,,,,,,,1,0,1,0,0,26,26,22,,,,,,,,,,,,,,5,1.3617819000501186,5,0.45,0.25000000000000006,9.01073,return,1.3388541999738663,,,,,,,,,,,,,,,,,p309,21,female,left_right_width,2025-11-26_16h40.21.719,exp1,2023.1.0,60.07063102632905,
,,,,,,,,,,,,,,,,3,8.9,10,11.1,0,0,1.1,0.55,0.55,2.75,10,initial,36.05,321,361,400,0,0,9,9,9,0,0,,,,,,,1,0,1,0,0,27,27,0,,,,,,,,,,,,,,3,1.1326793999178335,3,0.25,0.39999999999999997,14.41717,return,1.934665699955076,,,,,,,,,,,,,,,,,p309,21,female,left_right_width,2025-11-26_16h40.21.719,exp1,2023.1.0,60.07063102632905,
,,,,,,,,,,,,,,,,4,8.9,9.633333333333333,10.366666666666667,11.1,0,0.7333333333333334,0.4833333333333334,0.25,2.45,10,match,36.05,321,347,374,400,0,9,9,9,9,0,,,,,,,1,0,1,0,0,28,28,3,,,,,,,,,,,,,,4,1.058457300066948,4,0.25,0.3,10.81288,return,0.9999916999367997,,,,,,,,,,,,,,,,,p309,21,female,left_right_width,2025-11-26_16h40.21.719,exp1,2023.1.0,60.07063102632905,
,,,,,,,,,,,,,,,,4,8.9,9.633333333333333,10.366666666666667,11.1,0,0.7333333333333333,0.18333333333333326,0.55,2.75,10,match,36.05,321,347,374,400,0,9,9,9,9,0,,,,,,,1,0,1,0,0,29,29,1,,,,,,,,,,,,,,4,0.9160512998932973,4,0.3,0.39999999999999997,14.41717,return,1.2298971000127494,,,,,,,,,,,,,,,,,p309,21,female,left_right_width,2025-11-26_16h40.21.719,exp1,2023.1.0,60.07063102632905,
,,,,,,,,,,,,,,,,4,8.65,9.55,10.45,11.35,0,0.9,0.5,0.4,3.1,10,initial,36.05,312,344,377,409,0,9,9,9,9,0,,,,,,,1,0,1,0,0,30,30,32,,,,,,,,,,,,,,4,0.7988548999419436,4,0.55,0.35000000000000003,12.61502,return,2.4456148999743164,,,,,,,,,,,,,,,,,p309,21,female,left_right_width,2025-11-26_16h40.21.719,exp1,2023.1.0,60.07063102632905,
,,,,,,,,,,,,,,,,4,8.825,9.608333333333333,10.391666666666667,11.175,0,0.7833333333333333,0.5333333333333333,0.25,2.6,10,match,36.05,318,346,375,403,0,9,9,9,9,0,,,,,,,1,0,1,0,0,31,31,5,,,,,,,,,,,,,,4,0.8992797000100836,4,0.4,0.25000000000000006,9.01073,return,1.0853260000003502,,,,,,,,,,,,,,,,,p309,21,female,left_right_width,2025-11-26_16h40.21.719,exp1,2023.1.0,60.07063102632905,
,,,,,,,,,,,,,,,,3,9.3,10,10.7,0,0,0.7,0.44999999999999996,0.25,1.65,10,initial,36.05,335,361,386,0,0,9,9,9,0,0,,,,,,,1,0,1,0,0,32,32,7,,,,,,,,,,,,,,3,0.984666800010018,3,0.5,0.25000000000000006,9.01073,return,1.3123946998966858,,,,,,,,,,,,,,,,,p309,21,female,left_right_width,2025-11-26_16h40.21.719,exp1,2023.1.0,60.07063102632905,
,,,,,,,,,,,,,,,,5,8.35,9.175,10,10.825,11.65,0.8250000000000001,0.275,0.55,3.85,10,match,36.05,301,331,361,390,420,9,9,9,9,9,,,,,,,1,0,1,0,0,33,33,18,,,,,,,,,,,,,,5,1.065029100049287,5,0.4,0.4,14.41717,return,0.9252017999533564,,,,,,,,,,,,,,,,,p309,21,female,left_right_width,2025-11-26_16h40.21.719,exp1,2023.1.0,60.07063102632905,
,,,,,,,,,,,,,,,,4,9.1,9.7,10.3,10.9,0,0.6000000000000001,0.20000000000000004,0.4,2.2,10,match,36.05,328,350,371,393,0,9,9,9,9,0,,,,,,,1,0,1,0,0,34,34,16,,,,,,,,,,,,,,4,0.9283207999542356,4,0.5,0.35000000000000003,12.61502,return,1.0984396999701858,,,,,,,,,,,,,,,,,p309,21,female,left_right_width,2025-11-26_16h40.21.719,exp1,2023.1.0,60.07063102632905,
,,,,,,,,,,,,,,,,3,7.8,10,12.2,0,0,2.2,1.9500000000000002,0.25,4.65,10,match,36.05,281,361,440,0,0,9,9,9,0,0,,,,,,,1,0,1,0,0,35,35,37,,,,,,,,,,,,,,3,1.1158292999025434,3,0.2,0.2,7.20859,return,1.3093409000430256,,,,,,,,,,,,,,,,,p309,21,female,left_right_width,2025-11-26_16h40.21.719,exp1,2023.1.0,60.07063102632905,
,,,,,,,,,,,,,,,,3,8.525,10,11.475,0,0,1.475,1.225,0.25,3.2,10,match,36.05,307,361,414,0,0,9,9,9,0,0,,,,,,,1,0,1,0,0,36,36,45,,,,,,,,,,,,,,3,1.165608299896121,3,0.2,0.2,7.20859,return,0.8772199000231922,,,,,,,,,,,,,,,,,p309,21,female,left_right_width,2025-11-26_16h40.21.719,exp1,2023.1.0,60.07063102632905,
,,,,,,,,,,,,,,,,5,8.2,9.1,10,10.9,11.8,0.9,0.65,0.25,3.85,10,initial,36.05,296,328,361,393,425,9,9,9,9,9,,,,,,,1,0,1,0,0,37,37,48,,,,,,,,,,,,,,4,1.17611240001861,4,0.4,0.20000000000000007,7.20859,return,1.0466509000398219,,,,,,,,,,,,,,,,,p309,21,female,left_right_width,2025-11-26_16h40.21.719,exp1,2023.1.0,60.07063102632905,
,,,,,,,,,,,,,,,,4,9.1,9.7,10.3,10.9,0,0.6,0.04999999999999997,0.55,2.35,10,match,36.05,328,350,371,393,0,9,9,9,9,0,,,,,,,1,0,1,0,0,38,38,12,,,,,,,,,,,,,,4,0.9967655999353155,4,0.25,0.35,12.61502,return,1.4356328999856487,,,,,,,,,,,,,,,,,p309,21,female,left_right_width,2025-11-26_16h40.21.719,exp1,2023.1.0,60.07063102632905,
,,,,,,,,,,,,,,,,4,8.95,9.65,10.35,11.05,0,0.7,0.29999999999999993,0.4,2.5,10,initial,36.05,323,348,373,398,0,9,9,9,9,0,,,,,,,1,0,1,0,0,39,39,26,,,,,,,,,,,,,,4,0.9233825999544933,4,0.5,0.35000000000000003,12.61502,return,0.9006502000847831,,,,,,,,,,,,,,,,,p309,21,female,left_right_width,2025-11-26_16h40.21.719,exp1,2023.1.0,60.07063102632905,
,,,,,,,,,,,,,,,,3,9.3,10,10.7,0,0,0.7,0.1499999999999999,0.55,1.95,10,initial,36.05,335,361,386,0,0,9,9,9,0,0,,,,,,,1,0,1,0,0,40,40,6,,,,,,,,,,,,,,3,1.1177857000147924,3,0.35,0.25,9.01073,return,0.767989799962379,,,,,,,,,,,,,,,,,p309,21,female,left_right_width,2025-11-26_16h40.21.719,exp1,2023.1.0,60.07063102632905,
,,,,,,,,,,,,,,,,4,8.35,9.45,10.55,11.65,0,1.1,0.7000000000000001,0.4,3.7,10,initial,36.05,301,341,380,420,0,9,9,9,9,0,,,,,,,1,0,1,0,0,41,41,21,,,,,,,,,,,,,,3,1.0677986999507993,3,0.55,0.45,16.21932,return,1.3586043999530375,,,,,,,,,,,,,,,,,p309,21,female,left_right_width,2025-11-26_16h40.21.719,exp1,2023.1.0,60.07063102632905,
,,,,,,,,,,,,,,,,4,9.3,9.766666666666667,10.233333333333333,10.7,0,0.4666666666666667,0.06666666666666665,0.4,1.8,10,match,36.05,335,352,369,386,0,9,9,9,9,0,,,,,,,1,0,1,0,0,42,42,10,,,,,,,,,,,,,,3,0.9292689000722021,3,0.45,0.45,16.21932,return,0.9401202999288216,,,,,,,,,,,,,,,,,p309,21,female,left_right_width,2025-11-26_16h40.21.719,exp1,2023.1.0,60.07063102632905,
,,,,,,,,,,,,,,,,4,9.3,9.766666666666667,10.233333333333333,10.7,0,0.4666666666666667,0.21666666666666665,0.25,1.65,10,match,36.05,335,352,369,386,0,9,9,9,9,0,,,,,,,1,0,1,0,0,43,43,8,,,,,,,,,,,,,,3,0.9993885000003502,3,0.45,0.45,16.21932,return,0.6539571000030264,,,,,,,,,,,,,,,,,p309,21,female,left_right_width,2025-11-26_16h40.21.719,exp1,2023.1.0,60.07063102632905,
,,,,,,,,,,,,,,,,3,8.9,10,11.1,0,0,1.1,0.7000000000000001,0.4,2.6000000000000005,10,initial,36.05,321,361,400,0,0,9,9,9,0,0,,,,,,,1,0,1,0,0,44,44,4,,,,,,,,,,,,,,2,0.951760100084357,2,0.35,0.35,12.61502,return,0.7997332999948412,,,,,,,,,,,,,,,,,p309,21,female,left_right_width,2025-11-26_16h40.21.719,exp1,2023.1.0,60.07063102632905,
,,,,,,,,,,,,,,,,5,8.6,9.3,10,10.7,11.4,0.7,0.29999999999999993,0.4,3.1999999999999997,10,initial,36.05,310,335,361,386,411,9,9,9,9,9,,,,,,,1,0,1,0,0,45,45,44,,,,,,,,,,,,,,5,1.8495538999559358,5,0.3,0.3,10.81288,return,0.5909688000101596,,,,,,,,,,,,,,,,,p309,21,female,left_right_width,2025-11-26_16h40.21.719,exp1,2023.1.0,60.07063102632905,
,,,,,,,,,,,,,,,,5,8.65,9.325,10,10.675,11.35,0.675,0.125,0.55,3.25,10,match,36.05,312,336,361,385,409,9,9,9,9,9,,,,,,,1,0,1,0,0,46,46,29,,,,,,,,,,,,,,4,2.352136000059545,4,0.3,0.39999999999999997,14.41717,return,1.8565249000675976,,,,,,,,,,,,,,,,,p309,21,female,left_right_width,2025-11-26_16h40.21.719,exp1,2023.1.0,60.07063102632905,
,,,,,,,,,,,,,,,,5,7.8,8.9,10,11.1,12.2,1.1,0.7000000000000001,0.4,4.800000000000001,10,initial,36.05,281,321,361,400,440,9,9,9,9,9,,,,,,,1,0,1,0,0,47,47,38,,,,,,,,,,,,,,5,1.0265683999750763,5,0.4,0.4,14.41717,return,1.4327242999570444,,,,,,,,,,,,,,,,,p309,21,female,left_right_width,2025-11-26_16h40.21.719,exp1,2023.1.0,60.07063102632905,
,,,,,,,,,,,,,,,,5,8.6,9.3,10,10.7,11.4,0.7,0.1499999999999999,0.55,3.3499999999999996,10,initial,36.05,310,335,361,386,411,9,9,9,9,9,,,,,,,1,0,1,0,0,48,48,40,,,,,,,,,,,,,,5,1.0408895999426022,5,0.35,0.39999999999999997,14.41717,return,1.3675200999714434,,,,,,,,,,,,,,,,,p309,21,female,left_right_width,2025-11-26_16h40.21.719,exp1,2023.1.0,60.07063102632905,
,,,,,,,,,,,,,,,,3,8.2,10,11.8,0,0,1.8,1.25,0.55,4.15,10,match,36.05,296,361,425,0,0,9,9,9,0,0,,,,,,,1,0,1,0,0,49,49,47,,,,,,,,,,,,,,3,1.1593563000205904,3,0.55,0.6000000000000001,21.62576,return,0.5677302000112832,,,,,,,,,,,,,,,,,p309,21,female,left_right_width,2025-11-26_16h40.21.719,exp1,2023.1.0,60.07063102632905,
,,,,,,,,,,,,,,,,4,8.65,9.55,10.45,11.35,0,0.9,0.65,0.25,2.95,10,initial,36.05,312,344,377,409,0,9,9,9,9,0,,,,,,,1,0,1,0,0,50,50,30,,,,,,,,,,,,,,4,0.872001999989152,4,0.55,0.30000000000000004,10.81288,return,1.9565628999844193,,,,,,,,,,,,,,,,,p309,21,female,left_right_width,2025-11-26_16h40.21.719,exp1,2023.1.0,60.07063102632905,
,,,,,,,,,,,,,,,,3,8.2,10,11.8,0,0,1.8,1.55,0.25,3.85,10,match,36.05,296,361,425,0,0,9,9,9,0,0,,,,,,,1,0,1,0,0,51,51,49,,,,,,,,,,,,,,3,0.9761730000609532,3,0.5,0.30000000000000004,10.81288,return,1.0305983999278396,,,,,,,,,,,,,,,,,p309,21,female,left_right_width,2025-11-26_16h40.21.719,exp1,2023.1.0,60.07063102632905,
,,,,,,,,,,,,,,,,,,,,,,,,,,,,,,,,,,,,,,,,,,,,,1,0,1,0,,,,,,,,,,,,,,,,,,,,,,,,,,,,1186.3336903000018,1186.3336903000018,1186.3336903000018,,,,,,,,,,,,p309,21,female,left_right_width,2025-11-26_16h40.21.719,exp1,2023.1.0,60.07063102632905,
,,,,,,,,,,,,,,,,4,9.1,9.7,10.3,10.9,0,0.6000000000000001,0.20000000000000004,0.4,2.2,10,match,36.05,328,350,371,393,0,9,9,9,9,0,,,,,,,2,0,2,0,0,0,0,16,,,,,,,,,,,,,,3,0.9314305000007153,3,0.45,0.30000000000000004,10.81288,return,1.6613384999800473,,,,,,,,,,,,,,,,,p309,21,female,left_right_width,2025-11-26_16h40.21.719,exp1,2023.1.0,60.07063102632905,
,,,,,,,,,,,,,,,,4,8.35,9.45,10.55,11.65,0,1.1,0.7000000000000001,0.4,3.7,10,initial,36.05,301,341,380,420,0,9,9,9,9,0,,,,,,,2,0,2,0,0,1,1,21,,,,,,,,,,,,,,3,0.594235899974592,3,0.2,0.39999999999999997,14.41717,return,3.257301599951461,,,,,,,,,,,,,,,,,p309,21,female,left_right_width,2025-11-26_16h40.21.719,exp1,2023.1.0,60.07063102632905,
,,,,,,,,,,,,,,,,3,8.2,10,11.8,0,0,1.8,1.25,0.55,4.15,10,match,36.05,296,361,425,0,0,9,9,9,0,0,,,,,,,2,0,2,0,0,2,2,47,,,,,,,,,,,,,,3,0.7973961000097916,3,0.3,0.44999999999999996,16.21932,return,1.388607500004582,,,,,,,,,,,,,,,,,p309,21,female,left_right_width,2025-11-26_16h40.21.719,exp1,2023.1.0,60.07063102632905,
,,,,,,,,,,,,,,,,3,9.1,10,10.9,0,0,0.9,0.35,0.55,2.35,10,initial,36.05,328,361,393,0,0,9,9,9,0,0,,,,,,,2,0,2,0,0,3,3,11,,,,,,,,,,,,,,3,1.481162599986419,3,0.55,0.5,18.02146,return,1.4993459000252187,,,,,,,,,,,,,,,,,p309,21,female,left_right_width,2025-11-26_16h40.21.719,exp1,2023.1.0,60.07063102632905,
,,,,,,,,,,,,,,,,3,8.9,10,11.1,0,0,1.1,0.8500000000000001,0.25,2.45,10,initial,36.05,321,361,400,0,0,9,9,9,0,0,,,,,,,2,0,2,0,0,4,4,2,,,,,,,,,,,,,,3,1.2987735000206158,3,0.45,0.25000000000000006,9.01073,return,1.663313900004141,,,,,,,,,,,,,,,,,p309,21,female,left_right_width,2025-11-26_16h40.21.719,exp1,2023.1.0,60.07063102632905,
,,,,,,,,,,,,,,,,4,8.65,9.55,10.45,11.35,0,0.9,0.65,0.25,2.95,10,initial,36.05,312,344,377,409,0,9,9,9,9,0,,,,,,,2,0,2,0,0,5,5,30,,,,,,,,,,,,,,4,1.2382402999792248,4,0.35,0.2,7.20859,return,1.090724700014107,,,,,,,,,,,,,,,,,p309,21,female,left_right_width,2025-11-26_16h40.21.719,exp1,2023.1.0,60.07063102632905,
,,,,,,,,,,,,,,,,5,8.6,9.3,10,10.7,11.4,0.7,0.29999999999999993,0.4,3.1999999999999997,10,initial,36.05,310,335,361,386,411,9,9,9,9,9,,,,,,,2,0,2,0,0,6,6,44,,,,,,,,,,,,,,4,1.0183883999707177,4,0.2,0.35,12.61502,return,2.1758598999585956,,,,,,,,,,,,,,,,,p309,21,female,left_right_width,2025-11-26_16h40.21.719,exp1,2023.1.0,60.07063102632905,
,,,,,,,,,,,,,,,,3,9.1,10,10.9,0,0,0.9,0.5,0.4,2.2,10,initial,36.05,328,361,393,0,0,9,9,9,0,0,,,,,,,2,0,2,0,0,7,7,15,,,,,,,,,,,,,,3,1.410621700109914,3,0.4,0.25000000000000006,9.01073,return,2.6485259999753907,,,,,,,,,,,,,,,,,p309,21,female,left_right_width,2025-11-26_16h40.21.719,exp1,2023.1.0,60.07063102632905,
,,,,,,,,,,,,,,,,3,8.2,10,11.8,0,0,1.7999999999999998,1.4,0.4,4,10,match,36.05,296,361,425,0,0,9,9,9,0,0,,,,,,,2,0,2,0,0,8,8,51,,,,,,,,,,,,,,3,0.9175907000899315,3,0.2,0.35,12.61502,return,1.3605133999371901,,,,,,,,,,,,,,,,,p309,21,female,left_right_width,2025-11-26_16h40.21.719,exp1,2023.1.0,60.07063102632905,
,,,,,,,,,,,,,,,,4,8.95,9.65,10.35,11.05,0,0.7,0.44999999999999996,0.25,2.3499999999999996,10,initial,36.05,323,348,373,398,0,9,9,9,9,0,,,,,,,2,0,2,0,0,9,9,24,,,,,,,,,,,,,,3,0.934647599933669,3,0.4,0.20000000000000007,7.20859,return,1.2633346000220627,,,,,,,,,,,,,,,,,p309,21,female,left_right_width,2025-11-26_16h40.21.719,exp1,2023.1.0,60.07063102632905,
,,,,,,,,,,,,,,,,4,8.95,9.65,10.35,11.05,0,0.7,0.29999999999999993,0.4,2.5,10,initial,36.05,323,348,373,398,0,9,9,9,9,0,,,,,,,2,0,2,0,0,10,10,26,,,,,,,,,,,,,,4,1.2014707999769598,4,0.55,0.35000000000000003,12.61502,return,1.5026005000108853,,,,,,,,,,,,,,,,,p309,21,female,left_right_width,2025-11-26_16h40.21.719,exp1,2023.1.0,60.07063102632905,
,,,,,,,,,,,,,,,,5,8.6,9.3,10,10.7,11.4,0.7,0.44999999999999996,0.25,3.05,10,initial,36.05,310,335,361,386,411,9,9,9,9,9,,,,,,,2,0,2,0,0,11,11,42,,,,,,,,,,,,,,5,1.312539300066419,5,0.5,0.20000000000000007,7.20859,return,1.5945011000148952,,,,,,,,,,,,,,,,,p309,21,female,left_right_width,2025-11-26_16h40.21.719,exp1,2023.1.0,60.07063102632905,
,,,,,,,,,,,,,,,,5,7.8,8.9,10,11.1,12.2,1.1,0.7000000000000001,0.4,4.800000000000001,10,initial,36.05,281,321,361,400,440,9,9,9,9,9,,,,,,,2,0,2,0,0,12,12,38,,,,,,,,,,,,,,6,1.3744178999913856,6,0.5,0.25000000000000006,9.01073,return,1.5738724999828264,,,,,,,,,,,,,,,,,p309,21,female,left_right_width,2025-11-26_16h40.21.719,exp1,2023.1.0,60.07063102632905,
,,,,,,,,,,,,,,,,3,9.3,10,10.7,0,0,0.7,0.29999999999999993,0.4,1.8,10,initial,36.05,335,361,386,0,0,9,9,9,0,0,,,,,,,2,0,2,0,0,13,13,9,,,,,,,,,,,,,,3,1.5946911999490112,3,0.2,0.35,12.61502,return,1.5772487000795081,,,,,,,,,,,,,,,,,p309,21,female,left_right_width,2025-11-26_16h40.21.719,exp1,2023.1.0,60.07063102632905,
,,,,,,,,,,,,,,,,4,8.35,9.45,10.55,11.65,0,1.1,0.8500000000000001,0.25,3.5500000000000003,10,initial,36.05,301,341,380,420,0,9,9,9,9,0,,,,,,,2,0,2,0,0,14,14,19,,,,,,,,,,,,,,4,1.7293359999312088,4,0.4,0.20000000000000007,7.20859,return,1.0828608999727294,,,,,,,,,,,,,,,,,p309,21,female,left_right_width,2025-11-26_16h40.21.719,exp1,2023.1.0,60.07063102632905,
,,,,,,,,,,,,,,,,4,9.3,9.766666666666667,10.233333333333333,10.7,0,0.4666666666666667,0.06666666666666665,0.4,1.8,10,match,36.05,335,352,369,386,0,9,9,9,9,0,,,,,,,2,0,2,0,0,15,15,10,,,,,,,,,,,,,,3,1.2616866000462323,3,0.4,0.4,14.41717,return,1.4660573999863118,,,,,,,,,,,,,,,,,p309,21,female,left_right_width,2025-11-26_16h40.21.719,exp1,2023.1.0,60.07063102632905,
,,,,,,,,,,,,,,,,3,8.6,10,11.4,0,0,1.4,1.15,0.25,3.05,10,match,36.05,310,361,411,0,0,9,9,9,0,0,,,,,,,2,0,2,0,0,16,16,43,,,,,,,,,,,,,,3,1.1539854999864474,3,0.2,0.2,7.20859,return,1.0594770000316203,,,,,,,,,,,,,,,,,p309,21,female,left_right_width,2025-11-26_16h40.21.719,exp1,2023.1.0,60.07063102632905,
,,,,,,,,,,,,,,,,5,8.95,9.475,10,10.525,11.05,0.525,0.125,0.4,2.5,10,match,36.05,323,342,361,379,398,9,9,9,9,9,,,,,,,2,0,2,0,0,17,17,27,,,,,,,,,,,,,,3,1.375289799994789,3,0.55,0.5,18.02146,return,1.0798134999349713,,,,,,,,,,,,,,,,,p309,21,female,left_right_width,2025-11-26_16h40.21.719,exp1,2023.1.0,60.07063102632905,
,,,,,,,,,,,,,,,,4,8.65,9.55,10.45,11.35,0,0.9,0.5,0.4,3.1,10,initial,36.05,312,344,377,409,0,9,9,9,9,0,,,,,,,2,0,2,0,0,18,18,32,,,,,,,,,,,,,,4,0.7906694998964667,4,0.55,0.45,16.21932,return,1.6532463999465108,,,,,,,,,,,,,,,,,p309,21,female,left_right_width,2025-11-26_16h40.21.719,exp1,2023.1.0,60.07063102632905,
,,,,,,,,,,,,,,,,4,8.65,9.55,10.45,11.35,0,0.9,0.35,0.55,3.25,10,initial,36.05,312,344,377,409,0,9,9,9,9,0,,,,,,,2,0,2,0,0,19,19,28,,,,,,,,,,,,,,4,0.9441877000499517,4,0.45,0.4,14.41717,return,1.2261155999731272,,,,,,,,,,,,,,,,,p309,21,female,left_right_width,2025-11-26_16h40.21.719,exp1,2023.1.0,60.07063102632905,
,,,,,,,,,,,,,,,,4,8.825,9.608333333333333,10.391666666666667,11.175,0,0.7833333333333333,0.5333333333333333,0.25,2.6,10,match,36.05,318,346,375,403,0,9,9,9,9,0,,,,,,,2,0,2,0,0,20,20,5,,,,,,,,,,,,,,4,1.0245954000856727,4,0.35,0.2,7.20859,return,1.4159083000849932,,,,,,,,,,,,,,,,,p309,21,female,left_right_width,2025-11-26_16h40.21.719,exp1,2023.1.0,60.07063102632905,
,,,,,,,,,,,,,,,,3,8.2,10,11.8,0,0,1.8,1.55,0.25,3.85,10,match,36.05,296,361,425,0,0,9,9,9,0,0,,,,,,,2,0,2,0,0,21,21,49,,,,,,,,,,,,,,3,0.9088381000328809,3,0.4,0.20000000000000007,7.20859,return,0.9517025999957696,,,,,,,,,,,,,,,,,p309,21,female,left_right_width,2025-11-26_16h40.21.719,exp1,2023.1.0,60.07063102632905,
,,,,,,,,,,,,,,,,3,8.9,10,11.1,0,0,1.1,0.55,0.55,2.75,10,initial,36.05,321,361,400,0,0,9,9,9,0,0,,,,,,,2,0,2,0,0,22,22,0,,,,,,,,,,,,,,3,0.9527571999933571,3,0.5,0.5,18.02146,return,1.010271199978888,,,,,,,,,,,,,,,,,p309,21,female,left_right_width,2025-11-26_16h40.21.719,exp1,2023.1.0,60.07063102632905,
,,,,,,,,,,,,,,,,5,8.35,9.175,10,10.825,11.65,0.825,0.575,0.25,3.55,10,match,36.05,301,331,361,390,420,9,9,9,9,9,,,,,,,2,0,2,0,0,23,23,20,,,,,,,,,,,,,,5,1.0792798000620678,5,0.3,0.2,7.20859,return,0.777969199931249,,,,,,,,,,,,,,,,,p309,21,female,left_right_width,2025-11-26_16h40.21.719,exp1,2023.1.0,60.07063102632905,
,,,,,,,,,,,,,,,,3,8.525,10,11.475,0,0,1.475,1.225,0.25,3.2,10,match,36.05,307,361,414,0,0,9,9,9,0,0,,,,,,,2,0,2,0,0,24,24,45,,,,,,,,,,,,,,3,1.071616300032474,3,0.45,0.25000000000000006,9.01073,return,1.0426283000269905,,,,,,,,,,,,,,,,,p309,21,female,left_right_width,2025-11-26_16h40.21.719,exp1,2023.1.0,60.07063102632905,
,,,,,,,,,,,,,,,,3,9.3,10,10.7,0,0,0.7,0.1499999999999999,0.55,1.95,10,initial,36.05,335,361,386,0,0,9,9,9,0,0,,,,,,,2,0,2,0,0,25,25,6,,,,,,,,,,,,,,3,1.286006800015457,3,0.25,0.39999999999999997,14.41717,return,1.1205603999551386,,,,,,,,,,,,,,,,,p309,21,female,left_right_width,2025-11-26_16h40.21.719,exp1,2023.1.0,60.07063102632905,
,,,,,,,,,,,,,,,,3,7.800000000000001,10,12.2,0,0,2.1999999999999997,1.7999999999999998,0.4,4.8,10,match,36.05,281,361,440,0,0,9,9,9,0,0,,,,,,,2,0,2,0,0,26,26,39,,,,,,,,,,,,,,3,0.769033299991861,3,0.3,0.44999999999999996,16.21932,return,0.9765986000420526,,,,,,,,,,,,,,,,,p309,21,female,left_right_width,2025-11-26_16h40.21.719,exp1,2023.1.0,60.07063102632905,
,,,,,,,,,,,,,,,,4,8.35,9.45,10.55,11.65,0,1.1,0.55,0.55,3.8500000000000005,10,initial,36.05,301,341,380,420,0,9,9,9,9,0,,,,,,,2,0,2,0,0,27,27,17,,,,,,,,,,,,,,3,1.069120300002396,3,0.25,0.39999999999999997,14.41717,return,1.1374341000337154,,,,,,,,,,,,,,,,,p309,21,female,left_right_width,2025-11-26_16h40.21.719,exp1,2023.1.0,60.07063102632905,
,,,,,,,,,,,,,,,,5,8.6,9.3,10,10.7,11.4,0.7,0.1499999999999999,0.55,3.3499999999999996,10,initial,36.05,310,335,361,386,411,9,9,9,9,9,,,,,,,2,0,2,0,0,28,28,40,,,,,,,,,,,,,,3,1.0525493999011815,3,0.55,0.55,19.82361,return,2.689584899926558,,,,,,,,,,,,,,,,,p309,21,female,left_right_width,2025-11-26_16h40.21.719,exp1,2023.1.0,60.07063102632905,
,,,,,,,,,,,,,,,,5,7.8,8.9,10,11.1,12.2,1.1,0.8500000000000001,0.25,4.65,10,initial,36.05,281,321,361,400,440,9,9,9,9,9,,,,,,,2,0,2,0,0,29,29,36,,,,,,,,,,,,,,5,1.358693200047128,5,0.2,0.25,9.01073,return,1.079782799934037,,,,,,,,,,,,,,,,,p309,21,female,left_right_width,2025-11-26_16h40.21.719,exp1,2023.1.0,60.07063102632905,
,,,,,,,,,,,,,,,,5,8.275,9.1375,10,10.8625,11.725,0.8625,0.6125,0.25,3.7,10,match,36.05,298,329,361,392,423,9,9,9,9,9,,,,,,,2,0,2,0,0,30,30,22,,,,,,,,,,,,,,4,1.0365529999835417,4,0.3,0.25,9.01073,return,0.8662851999979466,,,,,,,,,,,,,,,,,p309,21,female,left_right_width,2025-11-26_16h40.21.719,exp1,2023.1.0,60.07063102632905,
,,,,,,,,,,,,,,,,4,9.1,9.7,10.3,10.9,0,0.6,0.04999999999999997,0.55,2.35,10,match,36.05,328,350,371,393,0,9,9,9,9,0,,,,,,,2,0,2,0,0,31,31,12,,,,,,,,,,,,,,3,1.0568135998910293,3,0.55,0.6500000000000001,23.4279,return,0.6613532999763265,,,,,,,,,,,,,,,,,p309,21,female,left_right_width,2025-11-26_16h40.21.719,exp1,2023.1.0,60.07063102632905,
,,,,,,,,,,,,,,,,4,9.1,9.7,10.3,10.9,0,0.5999999999999999,0.3499999999999999,0.25,2.05,10,match,36.05,328,350,371,393,0,9,9,9,9,0,,,,,,,2,0,2,0,0,32,32,14,,,,,,,,,,,,,,3,0.8684498000657186,3,0.4,0.25000000000000006,9.01073,return,0.8966347000095993,,,,,,,,,,,,,,,,,p309,21,female,left_right_width,2025-11-26_16h40.21.719,exp1,2023.1.0,60.07063102632905,
,,,,,,,,,,,,,,,,4,8.9,9.633333333333333,10.366666666666667,11.1,0,0.7333333333333333,0.18333333333333326,0.55,2.75,10,match,36.05,321,347,374,400,0,9,9,9,9,0,,,,,,,2,0,2,0,0,33,33,1,,,,,,,,,,,,,,4,1.0606005999725312,4,0.2,0.35,12.61502,return,1.5132044000783935,,,,,,,,,,,,,,,,,p309,21,female,left_right_width,2025-11-26_16h40.21.719,exp1,2023.1.0,60.07063102632905,
,,,,,,,,,,,,,,,,5,8.65,9.325,10,10.675,11.35,0.675,0.42500000000000004,0.25,2.95,10,match,36.05,312,336,361,385,409,9,9,9,9,9,,,,,,,2,0,2,0,0,34,34,31,,,,,,,,,,,,,,5,1.4706142999930307,5,0.35,0.25,9.01073,return,0.723909999942407,,,,,,,,,,,,,,,,,p309,21,female,left_right_width,2025-11-26_16h40.21.719,exp1,2023.1.0,60.07063102632905,
,,,,,,,,,,,,,,,,5,8.95,9.475,10,10.525,11.05,0.525,0.275,0.25,2.35,10,match,36.05,323,342,361,379,398,9,9,9,9,9,,,,,,,2,0,2,0,0,35,35,25,,,,,,,,,,,,,,5,1.135516699985601,5,0.55,0.30000000000000004,10.81288,return,1.120250100037083,,,,,,,,,,,,,,,,,p309,21,female,left_right_width,2025-11-26_16h40.21.719,exp1,2023.1.0,60.07063102632905,
,,,,,,,,,,,,,,,,3,9.1,10,10.9,0,0,0.9,0.65,0.25,2.05,10,initial,36.05,328,361,393,0,0,9,9,9,0,0,,,,,,,2,0,2,0,0,36,36,13,,,,,,,,,,,,,,4,1.6160774000454694,4,0.3,0.15000000000000002,5.40644,return,1.4711173000978306,,,,,,,,,,,,,,,,,p309,21,female,left_right_width,2025-11-26_16h40.21.719,exp1,2023.1.0,60.07063102632905,
,,,,,,,,,,,,,,,,5,8.2,9.1,10,10.9,11.8,0.9,0.65,0.25,3.85,10,initial,36.05,296,328,361,393,425,9,9,9,9,9,,,,,,,2,0,2,0,0,37,37,48,,,,,,,,,,,,,,5,1.3139502999838442,5,0.5,0.25000000000000006,9.01073,return,1.7238354000728577,,,,,,,,,,,,,,,,,p309,21,female,left_right_width,2025-11-26_16h40.21.719,exp1,2023.1.0,60.07063102632905,
,,,,,,,,,,,,,,,,5,8.35,9.175,10,10.825,11.65,0.8250000000000001,0.275,0.55,3.85,10,match,36.05,301,331,361,390,420,9,9,9,9,9,,,,,,,2,0,2,0,0,38,38,18,,,,,,,,,,,,,,4,1.0374146000249311,4,0.35,0.44999999999999996,16.21932,return,1.651025699917227,,,,,,,,,,,,,,,,,p309,21,female,left_right_width,2025-11-26_16h40.21.719,exp1,2023.1.0,60.07063102632905,
,,,,,,,,,,,,,,,,5,8.65,9.325,10,10.675,11.35,0.675,0.125,0.55,3.25,10,match,36.05,312,336,361,385,409,9,9,9,9,9,,,,,,,2,0,2,0,0,39,39,29,,,,,,,,,,,,,,5,1.130328300059773,5,0.2,0.44999999999999996,16.21932,return,1.2129565000068396,,,,,,,,,,,,,,,,,p309,21,female,left_right_width,2025-11-26_16h40.21.719,exp1,2023.1.0,60.07063102632905,
,,,,,,,,,,,,,,,,4,8.95,9.65,10.35,11.05,0,0.7,0.1499999999999999,0.55,2.65,10,initial,36.05,323,348,373,398,0,9,9,9,9,0,,,,,,,2,0,2,0,0,40,40,23,,,,,,,,,,,,,,3,0.9407918000360951,3,0.5,0.55,19.82361,return,0.6293649000581354,,,,,,,,,,,,,,,,,p309,21,female,left_right_width,2025-11-26_16h40.21.719,exp1,2023.1.0,60.07063102632905,
,,,,,,,,,,,,,,,,3,8.9,10,11.1,0,0,1.1,0.7000000000000001,0.4,2.6000000000000005,10,initial,36.05,321,361,400,0,0,9,9,9,0,0,,,,,,,2,0,2,0,0,41,41,4,,,,,,,,,,,,,,2,1.0924427000572905,2,0.4,0.5,18.02146,return,0.8876396999694407,,,,,,,,,,,,,,,,,p309,21,female,left_right_width,2025-11-26_16h40.21.719,exp1,2023.1.0,60.07063102632905,
,,,,,,,,,,,,,,,,3,8.6,10,11.4,0,0,1.4,0.85,0.55,3.35,10,match,36.05,310,361,411,0,0,9,9,9,0,0,,,,,,,2,0,2,0,0,42,42,41,,,,,,,,,,,,,,3,0.9007015000097454,3,0.2,0.44999999999999996,16.21932,return,1.2157856000121683,,,,,,,,,,,,,,,,,p309,21,female,left_right_width,2025-11-26_16h40.21.719,exp1,2023.1.0,60.07063102632905,
,,,,,,,,,,,,,,,,5,8.2,9.1,10,10.9,11.8,0.9,0.35,0.55,4.15,10,initial,36.05,296,328,361,393,425,9,9,9,9,9,,,,,,,2,0,2,0,0,43,43,46,,,,,,,,,,,,,,5,1.360498599940911,5,0.2,0.44999999999999996,16.21932,return,1.2560911999316886,,,,,,,,,,,,,,,,,p309,21,female,left_right_width,2025-11-26_16h40.21.719,exp1,2023.1.0,60.07063102632905,
,,,,,,,,,,,,,,,,5,8.65,9.325,10,10.675,11.35,0.675,0.275,0.4,3.1,10,match,36.05,312,336,361,385,409,9,9,9,9,9,,,,,,,2,0,2,0,0,44,44,33,,,,,,,,,,,,,,4,1.1722513999557123,4,0.35,0.39999999999999997,14.41717,return,1.251520000048913,,,,,,,,,,,,,,,,,p309,21,female,left_right_width,2025-11-26_16h40.21.719,exp1,2023.1.0,60.07063102632905,
,,,,,,,,,,,,,,,,5,7.8,8.9,10,11.1,12.2,1.1,0.55,0.55,4.95,10,initial,36.05,281,321,361,400,440,9,9,9,9,9,,,,,,,2,0,2,0,0,45,45,34,,,,,,,,,,,,,,5,1.6305982999037951,5,0.3,0.39999999999999997,14.41717,return,1.196213599992916,,,,,,,,,,,,,,,,,p309,21,female,left_right_width,2025-11-26_16h40.21.719,exp1,2023.1.0,60.07063102632905,
,,,,,,,,,,,,,,,,5,8.2,9.1,10,10.9,11.8,0.9,0.5,0.4,4,10,initial,36.05,296,328,361,393,425,9,9,9,9,9,,,,,,,2,0,2,0,0,46,46,50,,,,,,,,,,,,,,5,1.4453162000281736,5,0.55,0.45,16.21932,return,1.227243300061673,,,,,,,,,,,,,,,,,p309,21,female,left_right_width,2025-11-26_16h40.21.719,exp1,2023.1.0,60.07063102632905,
,,,,,,,,,,,,,,,,3,9.3,10,10.7,0,0,0.7,0.44999999999999996,0.25,1.65,10,initial,36.05,335,361,386,0,0,9,9,9,0,0,,,,,,,2,0,2,0,0,47,47,7,,,,,,,,,,,,,,3,1.1324605999980122,3,0.55,0.35000000000000003,12.61502,return,0.9749182000523433,,,,,,,,,,,,,,,,,p309,21,female,left_right_width,2025-11-26_16h40.21.719,exp1,2023.1.0,60.07063102632905,
,,,,,,,,,,,,,,,,4,9.3,9.766666666666667,10.233333333333333,10.7,0,0.4666666666666667,0.21666666666666665,0.25,1.65,10,match,36.05,335,352,369,386,0,9,9,9,9,0,,,,,,,2,0,2,0,0,48,48,8,,,,,,,,,,,,,,4,1.1459117999766022,4,0.3,0.15000000000000002,5.40644,return,0.7798621000256389,,,,,,,,,,,,,,,,,p309,21,female,left_right_width,2025-11-26_16h40.21.719,exp1,2023.1.0,60.07063102632905,
,,,,,,,,,,,,,,,,3,7.8,10,12.2,0,0,2.2,1.9500000000000002,0.25,4.65,10,match,36.05,281,361,440,0,0,9,9,9,0,0,,,,,,,2,0,2,0,0,49,49,37,,,,,,,,,,,,,,3,1.4764884000178427,3,0.5,0.35000000000000003,12.61502,return,0.8406742999795824,,,,,,,,,,,,,,,,,p309,21,female,left_right_width,2025-11-26_16h40.21.719,exp1,2023.1.0,60.07063102632905,
,,,,,,,,,,,,,,,,4,8.9,9.633333333333333,10.366666666666667,11.1,0,0.7333333333333334,0.4833333333333334,0.25,2.45,10,match,36.05,321,347,374,400,0,9,9,9,9,0,,,,,,,2,0,2,0,0,50,50,3,,,,,,,,,,,,,,3,0.9835344000020996,3,0.2,0.3,10.81288,return,1.0706444000825286,,,,,,,,,,,,,,,,,p309,21,female,left_right_width,2025-11-26_16h40.21.719,exp1,2023.1.0,60.07063102632905,
,,,,,,,,,,,,,,,,3,7.8,10,12.2,0,0,2.2,1.65,0.55,4.95,10,match,36.05,281,361,440,0,0,9,9,9,0,0,,,,,,,2,0,2,0,0,51,51,35,,,,,,,,,,,,,,3,1.0640198000473902,3,0.55,0.45,16.21932,return,1.1801345000276342,,,,,,,,,,,,,,,,,p309,21,female,left_right_width,2025-11-26_16h40.21.719,exp1,2023.1.0,60.07063102632905,
,,,,,,,,,,,,,,,,,,,,,,,,,,,,,,,,,,,,,,,,,,,,,2,0,2,0,,,,,,,,,,,,,,,,,,,,,,,,,,,,1414.3669973000651,1414.3669973000651,1414.3669973000651,,,,,,,,,,,,p309,21,female,left_right_width,2025-11-26_16h40.21.719,exp1,2023.1.0,60.07063102632905,
,,,,,,,,,,,,,,,,4,8.9,9.633333333333333,10.366666666666667,11.1,0,0.7333333333333334,0.4833333333333334,0.25,2.45,10,match,36.05,321,347,374,400,0,9,9,9,9,0,,,,,,,3,0,3,0,0,0,0,3,,,,,,,,,,,,,,3,1.2292999000055715,3,0.3,0.3,10.81288,return,1.194905300042592,,,,,,,,,,,,,,,,,p309,21,female,left_right_width,2025-11-26_16h40.21.719,exp1,2023.1.0,60.07063102632905,
,,,,,,,,,,,,,,,,5,8.6,9.3,10,10.7,11.4,0.7,0.1499999999999999,0.55,3.3499999999999996,10,initial,36.05,310,335,361,386,411,9,9,9,9,9,,,,,,,3,0,3,0,0,1,1,40,,,,,,,,,,,,,,5,1.054854299989529,5,0.4,0.35000000000000003,12.61502,return,0.9631209999788553,,,,,,,,,,,,,,,,,p309,21,female,left_right_width,2025-11-26_16h40.21.719,exp1,2023.1.0,60.07063102632905,
,,,,,,,,,,,,,,,,5,8.275,9.1375,10,10.8625,11.725,0.8625,0.6125,0.25,3.7,10,match,36.05,298,329,361,392,423,9,9,9,9,9,,,,,,,3,0,3,0,0,2,2,22,,,,,,,,,,,,,,5,0.9747298998991027,5,0.55,0.4,14.41717,return,0.7907207999378443,,,,,,,,,,,,,,,,,p309,21,female,left_right_width,2025-11-26_16h40.21.719,exp1,2023.1.0,60.07063102632905,
,,,,,,,,,,,,,,,,5,8.65,9.325,10,10.675,11.35,0.675,0.275,0.4,3.1,10,match,36.05,312,336,361,385,409,9,9,9,9,9,,,,,,,3,0,3,0,0,3,3,33,,,,,,,,,,,,,,5,0.968792200088501,5,0.5,0.35000000000000003,12.61502,return,1.232717499951832,,,,,,,,,,,,,,,,,p309,21,female,left_right_width,2025-11-26_16h40.21.719,exp1,2023.1.0,60.07063102632905,
,,,,,,,,,,,,,,,,3,8.6,10,11.4,0,0,1.4,0.85,0.55,3.35,10,match,36.05,310,361,411,0,0,9,9,9,0,0,,,,,,,3,0,3,0,0,4,4,41,,,,,,,,,,,,,,3,1.4157632000278682,3,0.25,0.39999999999999997,14.41717,return,1.5974378999089822,,,,,,,,,,,,,,,,,p309,21,female,left_right_width,2025-11-26_16h40.21.719,exp1,2023.1.0,60.07063102632905,
,,,,,,,,,,,,,,,,3,8.525,10,11.475,0,0,1.475,1.225,0.25,3.2,10,match,36.05,307,361,414,0,0,9,9,9,0,0,,,,,,,3,0,3,0,0,5,5,45,,,,,,,,,,,,,,3,1.2488881000317633,3,0.55,0.20000000000000007,7.20859,return,1.2302681000437587,,,,,,,,,,,,,,,,,p309,21,female,left_right_width,2025-11-26_16h40.21.719,exp1,2023.1.0,60.07063102632905,
,,,,,,,,,,,,,,,,3,8.9,10,11.1,0,0,1.1,0.8500000000000001,0.25,2.45,10,initial,36.05,321,361,400,0,0,9,9,9,0,0,,,,,,,3,0,3,0,0,6,6,2,,,,,,,,,,,,,,2,0.989969199988991,2,0.35,0.15000000000000002,5.40644,return,1.798056700034067,,,,,,,,,,,,,,,,,p309,21,female,left_right_width,2025-11-26_16h40.21.719,exp1,2023.1.0,60.07063102632905,
,,,,,,,,,,,,,,,,4,9.3,9.766666666666667,10.233333333333333,10.7,0,0.4666666666666667,0.06666666666666665,0.4,1.8,10,match,36.05,335,352,369,386,0,9,9,9,9,0,,,,,,,3,0,3,0,0,7,7,10,,,,,,,,,,,,,,3,1.3900804000440985,3,0.45,0.4,14.41717,return,1.3494994000066072,,,,,,,,,,,,,,,,,p309,21,female,left_right_width,2025-11-26_16h40.21.719,exp1,2023.1.0,60.07063102632905,
,,,,,,,,,,,,,,,,3,9.3,10,10.7,0,0,0.7,0.44999999999999996,0.25,1.65,10,initial,36.05,335,361,386,0,0,9,9,9,0,0,,,,,,,3,0,3,0,0,8,8,7,,,,,,,,,,,,,,3,1.1367725000018254,3,0.45,0.25000000000000006,9.01073,return,1.0268948000157252,,,,,,,,,,,,,,,,,p309,21,female,left_right_width,2025-11-26_16h40.21.719,exp1,2023.1.0,60.07063102632905,
,,,,,,,,,,,,,,,,5,8.2,9.1,10,10.9,11.8,0.9,0.65,0.25,3.85,10,initial,36.05,296,328,361,393,425,9,9,9,9,9,,,,,,,3,0,3,0,0,9,9,48,,,,,,,,,,,,,,5,1.1226543999509886,5,0.25,0.3,10.81288,return,1.381729600019753,,,,,,,,,,,,,,,,,p309,21,female,left_right_width,2025-11-26_16h40.21.719,exp1,2023.1.0,60.07063102632905,
,,,,,,,,,,,,,,,,5,8.35,9.175,10,10.825,11.65,0.825,0.575,0.25,3.55,10,match,36.05,301,331,361,390,420,9,9,9,9,9,,,,,,,3,0,3,0,0,10,10,20,,,,,,,,,,,,,,5,1.4894024999812245,5,0.2,0.25,9.01073,return,2.340160300023854,,,,,,,,,,,,,,,,,p309,21,female,left_right_width,2025-11-26_16h40.21.719,exp1,2023.1.0,60.07063102632905,
,,,,,,,,,,,,,,,,5,8.95,9.475,10,10.525,11.05,0.525,0.125,0.4,2.5,10,match,36.05,323,342,361,379,398,9,9,9,9,9,,,,,,,3,0,3,0,0,11,11,27,,,,,,,,,,,,,,5,1.3219135999679565,5,0.2,0.3,10.81288,return,2.0033918999833986,,,,,,,,,,,,,,,,,p309,21,female,left_right_width,2025-11-26_16h40.21.719,exp1,2023.1.0,60.07063102632905,
,,,,,,,,,,,,,,,,5,8.65,9.325,10,10.675,11.35,0.675,0.125,0.55,3.25,10,match,36.05,312,336,361,385,409,9,9,9,9,9,,,,,,,3,0,3,0,0,12,12,29,,,,,,,,,,,,,,5,1.7534028999507427,5,0.55,0.35000000000000003,12.61502,return,1.2670793000143021,,,,,,,,,,,,,,,,,p309,21,female,left_right_width,2025-11-26_16h40.21.719,exp1,2023.1.0,60.07063102632905,
,,,,,,,,,,,,,,,,3,7.8,10,12.2,0,0,2.2,1.9500000000000002,0.25,4.65,10,match,36.05,281,361,440,0,0,9,9,9,0,0,,,,,,,3,0,3,0,0,13,13,37,,,,,,,,,,,,,,3,1.1273342000786215,3,0.45,0.20000000000000007,7.20859,return,1.1606784000759944,,,,,,,,,,,,,,,,,p309,21,female,left_right_width,2025-11-26_16h40.21.719,exp1,2023.1.0,60.07063102632905,
,,,,,,,,,,,,,,,,5,7.8,8.9,10,11.1,12.2,1.1,0.8500000000000001,0.25,4.65,10,initial,36.05,281,321,361,400,440,9,9,9,9,9,,,,,,,3,0,3,0,0,14,14,36,,,,,,,,,,,,,,5,1.2344635999761522,5,0.45,0.20000000000000007,7.20859,return,1.2631596999708563,,,,,,,,,,,,,,,,,p309,21,female,left_right_width,2025-11-26_16h40.21.719,exp1,2023.1.0,60.07063102632905,
,,,,,,,,,,,,,,,,5,8.6,9.3,10,10.7,11.4,0.7,0.29999999999999993,0.4,3.1999999999999997,10,initial,36.05,310,335,361,386,411,9,9,9,9,9,,,,,,,3,0,3,0,0,15,15,44,,,,,,,,,,,,,,5,1.2906764999497682,5,0.35,0.2,7.20859,return,0.9174547999864444,,,,,,,,,,,,,,,,,p309,21,female,left_right_width,2025-11-26_16h40.21.719,exp1,2023.1.0,60.07063102632905,
,,,,,,,,,,,,,,,,3,8.2,10,11.8,0,0,1.7999999999999998,1.4,0.4,4,10,match,36.05,296,361,425,0,0,9,9,9,0,0,,,,,,,3,0,3,0,0,16,16,51,,,,,,,,,,,,,,3,1.5183036000235006,3,0.2,0.39999999999999997,14.41717,return,1.8556338000344113,,,,,,,,,,,,,,,,,p309,21,female,left_right_width,2025-11-26_16h40.21.719,exp1,2023.1.0,60.07063102632905,
,,,,,,,,,,,,,,,,3,8.2,10,11.8,0,0,1.8,1.55,0.25,3.85,10,match,36.05,296,361,425,0,0,9,9,9,0,0,,,,,,,3,0,3,0,0,17,17,49,,,,,,,,,,,,,,3,1.0520742000080645,3,0.25,0.25,9.01073,return,1.0251165999798104,,,,,,,,,,,,,,,,,p309,21,female,left_right_width,2025-11-26_16h40.21.719,exp1,2023.1.0,60.07063102632905,
,,,,,,,,,,,,,,,,4,8.65,9.55,10.45,11.35,0,0.9,0.35,0.55,3.25,10,initial,36.05,312,344,377,409,0,9,9,9,9,0,,,,,,,3,0,3,0,0,18,18,28,,,,,,,,,,,,,,3,1.184019099920988,3,0.25,0.35,12.61502,return,1.6794980999547988,,,,,,,,,,,,,,,,,p309,21,female,left_right_width,2025-11-26_16h40.21.719,exp1,2023.1.0,60.07063102632905,
,,,,,,,,,,,,,,,,3,7.8,10,12.2,0,0,2.2,1.65,0.55,4.95,10,match,36.05,281,361,440,0,0,9,9,9,0,0,,,,,,,3,0,3,0,0,19,19,35,,,,,,,,,,,,,,3,0.845972300041467,3,0.2,0.44999999999999996,16.21932,return,1.1327019999735057,,,,,,,,,,,,,,,,,p309,21,female,left_right_width,2025-11-26_16h40.21.719,exp1,2023.1.0,60.07063102632905,
,,,,,,,,,,,,,,,,4,9.1,9.7,10.3,10.9,0,0.6,0.04999999999999997,0.55,2.35,10,match,36.05,328,350,371,393,0,9,9,9,9,0,,,,,,,3,0,3,0,0,20,20,12,,,,,,,,,,,,,,3,0.8769103999948129,3,0.5,0.55,19.82361,return,0.616050900076516,,,,,,,,,,,,,,,,,p309,21,female,left_right_width,2025-11-26_16h40.21.719,exp1,2023.1.0,60.07063102632905,
,,,,,,,,,,,,,,,,5,8.35,9.175,10,10.825,11.65,0.8250000000000001,0.275,0.55,3.85,10,match,36.05,301,331,361,390,420,9,9,9,9,9,,,,,,,3,0,3,0,0,21,21,18,,,,,,,,,,,,,,5,1.0526188999647275,5,0.35,0.44999999999999996,16.21932,return,0.7060692000668496,,,,,,,,,,,,,,,,,p309,21,female,left_right_width,2025-11-26_16h40.21.719,exp1,2023.1.0,60.07063102632905,
,,,,,,,,,,,,,,,,4,9.3,9.766666666666667,10.233333333333333,10.7,0,0.4666666666666667,0.21666666666666665,0.25,1.65,10,match,36.05,335,352,369,386,0,9,9,9,9,0,,,,,,,3,0,3,0,0,22,22,8,,,,,,,,,,,,,,4,0.9780891000991687,4,0.3,0.2,7.20859,return,0.7140903000254184,,,,,,,,,,,,,,,,,p309,21,female,left_right_width,2025-11-26_16h40.21.719,exp1,2023.1.0,60.07063102632905,
,,,,,,,,,,,,,,,,3,9.1,10,10.9,0,0,0.9,0.5,0.4,2.2,10,initial,36.05,328,361,393,0,0,9,9,9,0,0,,,,,,,3,0,3,0,0,23,23,15,,,,,,,,,,,,,,3,1.3491998000536114,3,0.25,0.35,12.61502,return,0.9106347999768332,,,,,,,,,,,,,,,,,p309,21,female,left_right_width,2025-11-26_16h40.21.719,exp1,2023.1.0,60.07063102632905,
,,,,,,,,,,,,,,,,3,9.3,10,10.7,0,0,0.7,0.1499999999999999,0.55,1.95,10,initial,36.05,335,361,386,0,0,9,9,9,0,0,,,,,,,3,0,3,0,0,24,24,6,,,,,,,,,,,,,,2,1.241899500018917,2,0.4,0.45,16.21932,return,0.5675376000581309,,,,,,,,,,,,,,,,,p309,21,female,left_right_width,2025-11-26_16h40.21.719,exp1,2023.1.0,60.07063102632905,
,,,,,,,,,,,,,,,,4,8.9,9.633333333333333,10.366666666666667,11.1,0,0.7333333333333333,0.18333333333333326,0.55,2.75,10,match,36.05,321,347,374,400,0,9,9,9,9,0,,,,,,,3,0,3,0,0,25,25,1,,,,,,,,,,,,,,4,1.0059484998928383,4,0.3,0.49999999999999994,18.02146,return,2.2622834000503644,,,,,,,,,,,,,,,,,p309,21,female,left_right_width,2025-11-26_16h40.21.719,exp1,2023.1.0,60.07063102632905,
,,,,,,,,,,,,,,,,4,8.35,9.45,10.55,11.65,0,1.1,0.8500000000000001,0.25,3.5500000000000003,10,initial,36.05,301,341,380,420,0,9,9,9,9,0,,,,,,,3,0,3,0,0,26,26,19,,,,,,,,,,,,,,4,0.9679308000486344,4,0.45,0.30000000000000004,10.81288,return,0.9280336999800056,,,,,,,,,,,,,,,,,p309,21,female,left_right_width,2025-11-26_16h40.21.719,exp1,2023.1.0,60.07063102632905,
,,,,,,,,,,,,,,,,4,8.825,9.608333333333333,10.391666666666667,11.175,0,0.7833333333333333,0.5333333333333333,0.25,2.6,10,match,36.05,318,346,375,403,0,9,9,9,9,0,,,,,,,3,0,3,0,0,27,27,5,,,,,,,,,,,,,,4,1.1713295000372455,4,0.55,0.30000000000000004,10.81288,return,1.2520452999742702,,,,,,,,,,,,,,,,,p309,21,female,left_right_width,2025-11-26_16h40.21.719,exp1,2023.1.0,60.07063102632905,
,,,,,,,,,,,,,,,,4,8.35,9.45,10.55,11.65,0,1.1,0.7000000000000001,0.4,3.7,10,initial,36.05,301,341,380,420,0,9,9,9,9,0,,,,,,,3,0,3,0,0,28,28,21,,,,,,,,,,,,,,4,0.8845148000400513,4,0.25,0.39999999999999997,14.41717,return,1.6162708000047132,,,,,,,,,,,,,,,,,p309,21,female,left_right_width,2025-11-26_16h40.21.719,exp1,2023.1.0,60.07063102632905,
,,,,,,,,,,,,,,,,3,8.9,10,11.1,0,0,1.1,0.7000000000000001,0.4,2.6000000000000005,10,initial,36.05,321,361,400,0,0,9,9,9,0,0,,,,,,,3,0,3,0,0,29,29,4,,,,,,,,,,,,,,3,0.806014500092715,3,0.3,0.44999999999999996,16.21932,return,1.1893067000200972,,,,,,,,,,,,,,,,,p309,21,female,left_right_width,2025-11-26_16h40.21.719,exp1,2023.1.0,60.07063102632905,
,,,,,,,,,,,,,,,,5,8.95,9.475,10,10.525,11.05,0.525,0.275,0.25,2.35,10,match,36.05,323,342,361,379,398,9,9,9,9,9,,,,,,,3,0,3,0,0,30,30,25,,,,,,,,,,,,,,4,1.0747451999923214,4,0.4,0.30000000000000004,10.81288,return,0.7435987999197096,,,,,,,,,,,,,,,,,p309,21,female,left_right_width,2025-11-26_16h40.21.719,exp1,2023.1.0,60.07063102632905,
,,,,,,,,,,,,,,,,3,9.1,10,10.9,0,0,0.9,0.65,0.25,2.05,10,initial,36.05,328,361,393,0,0,9,9,9,0,0,,,,,,,3,0,3,0,0,31,31,13,,,,,,,,,,,,,,3,0.8800479000201449,3,0.55,0.4,14.41717,return,0.8272983999922872,,,,,,,,,,,,,,,,,p309,21,female,left_right_width,2025-11-26_16h40.21.719,exp1,2023.1.0,60.07063102632905,
,,,,,,,,,,,,,,,,4,8.65,9.55,10.45,11.35,0,0.9,0.5,0.4,3.1,10,initial,36.05,312,344,377,409,0,9,9,9,9,0,,,,,,,3,0,3,0,0,32,32,32,,,,,,,,,,,,,,3,0.9428219998953864,3,0.55,0.30000000000000004,10.81288,return,0.9680115999653935,,,,,,,,,,,,,,,,,p309,21,female,left_right_width,2025-11-26_16h40.21.719,exp1,2023.1.0,60.07063102632905,
,,,,,,,,,,,,,,,,4,9.1,9.7,10.3,10.9,0,0.5999999999999999,0.3499999999999999,0.25,2.05,10,match,36.05,328,350,371,393,0,9,9,9,9,0,,,,,,,3,0,3,0,0,33,33,14,,,,,,,,,,,,,,3,0.8877921999664977,3,0.35,0.25,9.01073,return,0.6274467000039294,,,,,,,,,,,,,,,,,p309,21,female,left_right_width,2025-11-26_16h40.21.719,exp1,2023.1.0,60.07063102632905,
,,,,,,,,,,,,,,,,5,8.6,9.3,10,10.7,11.4,0.7,0.44999999999999996,0.25,3.05,10,initial,36.05,310,335,361,386,411,9,9,9,9,9,,,,,,,3,0,3,0,0,34,34,42,,,,,,,,,,,,,,5,1.6127304000547156,5,0.3,0.2,7.20859,return,0.6994678999762982,,,,,,,,,,,,,,,,,p309,21,female,left_right_width,2025-11-26_16h40.21.719,exp1,2023.1.0,60.07063102632905,
,,,,,,,,,,,,,,,,3,7.800000000000001,10,12.2,0,0,2.1999999999999997,1.7999999999999998,0.4,4.8,10,match,36.05,281,361,440,0,0,9,9,9,0,0,,,,,,,3,0,3,0,0,35,35,39,,,,,,,,,,,,,,3,0.9514215999515727,3,0.35,0.35,12.61502,return,2.959199500037357,,,,,,,,,,,,,,,,,p309,21,female,left_right_width,2025-11-26_16h40.21.719,exp1,2023.1.0,60.07063102632905,
,,,,,,,,,,,,,,,,4,8.95,9.65,10.35,11.05,0,0.7,0.44999999999999996,0.25,2.3499999999999996,10,initial,36.05,323,348,373,398,0,9,9,9,9,0,,,,,,,3,0,3,0,0,36,36,24,,,,,,,,,,,,,,3,0.9785428000614047,3,0.25,0.3,10.81288,return,1.2893360999878496,,,,,,,,,,,,,,,,,p309,21,female,left_right_width,2025-11-26_16h40.21.719,exp1,2023.1.0,60.07063102632905,
,,,,,,,,,,,,,,,,5,8.2,9.1,10,10.9,11.8,0.9,0.35,0.55,4.15,10,initial,36.05,296,328,361,393,425,9,9,9,9,9,,,,,,,3,0,3,0,0,37,37,46,,,,,,,,,,,,,,5,1.1233902000822127,5,0.2,0.35,12.61502,return,1.541551399976015,,,,,,,,,,,,,,,,,p309,21,female,left_right_width,2025-11-26_16h40.21.719,exp1,2023.1.0,60.07063102632905,
,,,,,,,,,,,,,,,,4,8.95,9.65,10.35,11.05,0,0.7,0.1499999999999999,0.55,2.65,10,initial,36.05,323,348,373,398,0,9,9,9,9,0,,,,,,,3,0,3,0,0,38,38,23,,,,,,,,,,,,,,3,1.0571453999727964,3,0.5,0.4,14.41717,return,2.2933371000690386,,,,,,,,,,,,,,,,,p309,21,female,left_right_width,2025-11-26_16h40.21.719,exp1,2023.1.0,60.07063102632905,
,,,,,,,,,,,,,,,,4,8.95,9.65,10.35,11.05,0,0.7,0.29999999999999993,0.4,2.5,10,initial,36.05,323,348,373,398,0,9,9,9,9,0,,,,,,,3,0,3,0,0,39,39,26,,,,,,,,,,,,,,3,0.8551771000493318,3,0.55,0.4,14.41717,return,1.347793500055559,,,,,,,,,,,,,,,,,p309,21,female,left_right_width,2025-11-26_16h40.21.719,exp1,2023.1.0,60.07063102632905,
,,,,,,,,,,,,,,,,3,8.2,10,11.8,0,0,1.8,1.25,0.55,4.15,10,match,36.05,296,361,425,0,0,9,9,9,0,0,,,,,,,3,0,3,0,0,40,40,47,,,,,,,,,,,,,,3,1.0094399000518024,3,0.2,0.39999999999999997,14.41717,return,1.175791100016795,,,,,,,,,,,,,,,,,p309,21,female,left_right_width,2025-11-26_16h40.21.719,exp1,2023.1.0,60.07063102632905,
,,,,,,,,,,,,,,,,3,9.1,10,10.9,0,0,0.9,0.35,0.55,2.35,10,initial,36.05,328,361,393,0,0,9,9,9,0,0,,,,,,,3,0,3,0,0,41,41,11,,,,,,,,,,,,,,3,0.8525811999570578,3,0.2,0.39999999999999997,14.41717,return,1.8426820000167936,,,,,,,,,,,,,,,,,p309,21,female,left_right_width,2025-11-26_16h40.21.719,exp1,2023.1.0,60.07063102632905,
,,,,,,,,,,,,,,,,4,9.1,9.7,10.3,10.9,0,0.6000000000000001,0.20000000000000004,0.4,2.2,10,match,36.05,328,350,371,393,0,9,9,9,9,0,,,,,,,3,0,3,0,0,42,42,16,,,,,,,,,,,,,,3,0.8891902999021113,3,0.5,0.5,18.02146,return,1.4287598000373691,,,,,,,,,,,,,,,,,p309,21,female,left_right_width,2025-11-26_16h40.21.719,exp1,2023.1.0,60.07063102632905,
,,,,,,,,,,,,,,,,3,8.9,10,11.1,0,0,1.1,0.55,0.55,2.75,10,initial,36.05,321,361,400,0,0,9,9,9,0,0,,,,,,,3,0,3,0,0,43,43,0,,,,,,,,,,,,,,3,0.9754918999969959,3,0.3,0.49999999999999994,18.02146,return,1.5905021000653505,,,,,,,,,,,,,,,,,p309,21,female,left_right_width,2025-11-26_16h40.21.719,exp1,2023.1.0,60.07063102632905,
,,,,,,,,,,,,,,,,3,9.3,10,10.7,0,0,0.7,0.29999999999999993,0.4,1.8,10,initial,36.05,335,361,386,0,0,9,9,9,0,0,,,,,,,3,0,3,0,0,44,44,9,,,,,,,,,,,,,,3,1.1019482999108732,3,0.5,0.6000000000000001,21.62576,return,0.9446601000381634,,,,,,,,,,,,,,,,,p309,21,female,left_right_width,2025-11-26_16h40.21.719,exp1,2023.1.0,60.07063102632905,
,,,,,,,,,,,,,,,,5,7.8,8.9,10,11.1,12.2,1.1,0.55,0.55,4.95,10,initial,36.05,281,321,361,400,440,9,9,9,9,9,,,,,,,3,0,3,0,0,45,45,34,,,,,,,,,,,,,,5,1.1538100999314338,5,0.35,0.5499999999999999,19.82361,return,1.1066430000355467,,,,,,,,,,,,,,,,,p309,21,female,left_right_width,2025-11-26_16h40.21.719,exp1,2023.1.0,60.07063102632905,
,,,,,,,,,,,,,,,,3,8.6,10,11.4,0,0,1.4,1.15,0.25,3.05,10,match,36.05,310,361,411,0,0,9,9,9,0,0,,,,,,,3,0,3,0,0,46,46,43,,,,,,,,,,,,,,3,0.9635747999418527,3,0.3,0.15000000000000002,5.40644,return,0.7472735000774264,,,,,,,,,,,,,,,,,p309,21,female,left_right_width,2025-11-26_16h40.21.719,exp1,2023.1.0,60.07063102632905,
,,,,,,,,,,,,,,,,4,8.35,9.45,10.55,11.65,0,1.1,0.55,0.55,3.8500000000000005,10,initial,36.05,301,341,380,420,0,9,9,9,9,0,,,,,,,3,0,3,0,0,47,47,17,,,,,,,,,,,,,,4,0.8559552000369877,4,0.5,0.6000000000000001,21.62576,return,0.8040631000185385,,,,,,,,,,,,,,,,,p309,21,female,left_right_width,2025-11-26_16h40.21.719,exp1,2023.1.0,60.07063102632905,
,,,,,,,,,,,,,,,,5,8.65,9.325,10,10.675,11.35,0.675,0.42500000000000004,0.25,2.95,10,match,36.05,312,336,361,385,409,9,9,9,9,9,,,,,,,3,0,3,0,0,48,48,31,,,,,,,,,,,,,,5,1.0685010000597686,5,0.3,0.25,9.01073,return,1.136006799992174,,,,,,,,,,,,,,,,,p309,21,female,left_right_width,2025-11-26_16h40.21.719,exp1,2023.1.0,60.07063102632905,
,,,,,,,,,,,,,,,,5,8.2,9.1,10,10.9,11.8,0.9,0.5,0.4,4,10,initial,36.05,296,328,361,393,425,9,9,9,9,9,,,,,,,3,0,3,0,0,49,49,50,,,,,,,,,,,,,,5,1.1250035000266507,5,0.5,0.5,18.02146,return,0.32597500004339963,,,,,,,,,,,,,,,,,p309,21,female,left_right_width,2025-11-26_16h40.21.719,exp1,2023.1.0,60.07063102632905,
,,,,,,,,,,,,,,,,5,7.8,8.9,10,11.1,12.2,1.1,0.7000000000000001,0.4,4.800000000000001,10,initial,36.05,281,321,361,400,440,9,9,9,9,9,,,,,,,3,0,3,0,0,50,50,38,,,,,,,,,,,,,,5,1.0035709000658244,5,0.35,0.3,10.81288,return,0.899291199981235,,,,,,,,,,,,,,,,,p309,21,female,left_right_width,2025-11-26_16h40.21.719,exp1,2023.1.0,60.07063102632905,
,,,,,,,,,,,,,,,,4,8.65,9.55,10.45,11.35,0,0.9,0.65,0.25,2.95,10,initial,36.05,312,344,377,409,0,9,9,9,9,0,,,,,,,3,0,3,0,0,51,51,30,,,,,,,,,,,,,,4,0.9627591000171378,4,0.4,0.25000000000000006,9.01073,return,0.7952050999738276,,,,,,,,,,,,,,,,,p309,21,female,left_right_width,2025-11-26_16h40.21.719,exp1,2023.1.0,60.07063102632905,
,,,,,,,,,,,,,,,,,,,,,,,,,,,,,,,,,,,,,,,,,,,,,3,0,3,0,,,,,,,,,,,,,,,,,,,,,,,,,,,,1643.217047000071,1643.217047000071,1643.217047000071,,,,,,,,,,,,p309,21,female,left_right_width,2025-11-26_16h40.21.719,exp1,2023.1.0,60.07063102632905,
,,,,,,,,,,,,,,,,5,7.8,8.9,10,11.1,12.2,1.1,0.55,0.55,4.95,10,initial,36.05,281,321,361,400,440,9,9,9,9,9,,,,,,,4,0,4,0,0,0,0,34,,,,,,,,,,,,,,5,1.472458199947141,5,0.35,0.25,9.01073,return,1.0766176000470296,,,,,,,,,,,,,,,,,p309,21,female,left_right_width,2025-11-26_16h40.21.719,exp1,2023.1.0,60.07063102632905,
,,,,,,,,,,,,,,,,3,9.1,10,10.9,0,0,0.9,0.35,0.55,2.35,10,initial,36.05,328,361,393,0,0,9,9,9,0,0,,,,,,,4,0,4,0,0,1,1,11,,,,,,,,,,,,,,3,1.152076099999249,3,0.45,0.45,16.21932,return,1.1696420999942347,,,,,,,,,,,,,,,,,p309,21,female,left_right_width,2025-11-26_16h40.21.719,exp1,2023.1.0,60.07063102632905,
,,,,,,,,,,,,,,,,3,8.2,10,11.8,0,0,1.7999999999999998,1.4,0.4,4,10,match,36.05,296,361,425,0,0,9,9,9,0,0,,,,,,,4,0,4,0,0,2,2,51,,,,,,,,,,,,,,3,0.8728214000584558,3,0.45,0.30000000000000004,10.81288,return,1.1559992999536917,,,,,,,,,,,,,,,,,p309,21,female,left_right_width,2025-11-26_16h40.21.719,exp1,2023.1.0,60.07063102632905,
,,,,,,,,,,,,,,,,5,8.6,9.3,10,10.7,11.4,0.7,0.44999999999999996,0.25,3.05,10,initial,36.05,310,335,361,386,411,9,9,9,9,9,,,,,,,4,0,4,0,0,3,3,42,,,,,,,,,,,,,,5,1.133883300004527,5,0.4,0.25000000000000006,9.01073,return,0.7822098000906408,,,,,,,,,,,,,,,,,p309,21,female,left_right_width,2025-11-26_16h40.21.719,exp1,2023.1.0,60.07063102632905,
,,,,,,,,,,,,,,,,3,9.3,10,10.7,0,0,0.7,0.1499999999999999,0.55,1.95,10,initial,36.05,335,361,386,0,0,9,9,9,0,0,,,,,,,4,0,4,0,0,4,4,6,,,,,,,,,,,,,,3,1.5048581999726593,3,0.2,0.44999999999999996,16.21932,return,1.460032599978149,,,,,,,,,,,,,,,,,p309,21,female,left_right_width,2025-11-26_16h40.21.719,exp1,2023.1.0,60.07063102632905,
,,,,,,,,,,,,,,,,4,8.825,9.608333333333333,10.391666666666667,11.175,0,0.7833333333333333,0.5333333333333333,0.25,2.6,10,match,36.05,318,346,375,403,0,9,9,9,9,0,,,,,,,4,0,4,0,0,5,5,5,,,,,,,,,,,,,,4,0.9306307000806555,4,0.3,0.2,7.20859,return,0.6515942000551149,,,,,,,,,,,,,,,,,p309,21,female,left_right_width,2025-11-26_16h40.21.719,exp1,2023.1.0,60.07063102632905,
,,,,,,,,,,,,,,,,4,8.35,9.45,10.55,11.65,0,1.1,0.8500000000000001,0.25,3.5500000000000003,10,initial,36.05,301,341,380,420,0,9,9,9,9,0,,,,,,,4,0,4,0,0,6,6,19,,,,,,,,,,,,,,4,0.9219262999249622,4,0.2,0.2,7.20859,return,2.4833348999964073,,,,,,,,,,,,,,,,,p309,21,female,left_right_width,2025-11-26_16h40.21.719,exp1,2023.1.0,60.07063102632905,
,,,,,,,,,,,,,,,,5,8.275,9.1375,10,10.8625,11.725,0.8625,0.6125,0.25,3.7,10,match,36.05,298,329,361,392,423,9,9,9,9,9,,,,,,,4,0,4,0,0,7,7,22,,,,,,,,,,,,,,4,0.878134400001727,4,0.4,0.25000000000000006,9.01073,return,1.5296234000707045,,,,,,,,,,,,,,,,,p309,21,female,left_right_width,2025-11-26_16h40.21.719,exp1,2023.1.0,60.07063102632905,
,,,,,,,,,,,,,,,,5,8.35,9.175,10,10.825,11.65,0.825,0.575,0.25,3.55,10,match,36.05,301,331,361,390,420,9,9,9,9,9,,,,,,,4,0,4,0,0,8,8,20,,,,,,,,,,,,,,5,1.1995566999539733,5,0.55,0.30000000000000004,10.81288,return,1.5019975999603048,,,,,,,,,,,,,,,,,p309,21,female,left_right_width,2025-11-26_16h40.21.719,exp1,2023.1.0,60.07063102632905,
,,,,,,,,,,,,,,,,3,8.6,10,11.4,0,0,1.4,0.85,0.55,3.35,10,match,36.05,310,361,411,0,0,9,9,9,0,0,,,,,,,4,0,4,0,0,9,9,41,,,,,,,,,,,,,,3,1.2687851999653503,3,0.5,0.4,14.41717,return,1.1377175999805331,,,,,,,,,,,,,,,,,p309,21,female,left_right_width,2025-11-26_16h40.21.719,exp1,2023.1.0,60.07063102632905,
,,,,,,,,,,,,,,,,4,8.95,9.65,10.35,11.05,0,0.7,0.44999999999999996,0.25,2.3499999999999996,10,initial,36.05,323,348,373,398,0,9,9,9,9,0,,,,,,,4,0,4,0,0,10,10,24,,,,,,,,,,,,,,3,1.0616229000734165,3,0.35,0.2,7.20859,return,0.7618096999358386,,,,,,,,,,,,,,,,,p309,21,female,left_right_width,2025-11-26_16h40.21.719,exp1,2023.1.0,60.07063102632905,
,,,,,,,,,,,,,,,,5,8.2,9.1,10,10.9,11.8,0.9,0.65,0.25,3.85,10,initial,36.05,296,328,361,393,425,9,9,9,9,9,,,,,,,4,0,4,0,0,11,11,48,,,,,,,,,,,,,,5,1.7742238999344409,5,0.3,0.2,7.20859,return,0.630218300037086,,,,,,,,,,,,,,,,,p309,21,female,left_right_width,2025-11-26_16h40.21.719,exp1,2023.1.0,60.07063102632905,
,,,,,,,,,,,,,,,,3,8.9,10,11.1,0,0,1.1,0.55,0.55,2.75,10,initial,36.05,321,361,400,0,0,9,9,9,0,0,,,,,,,4,0,4,0,0,12,12,0,,,,,,,,,,,,,,2,1.566322600003332,2,0.55,0.6500000000000001,23.4279,return,1.3754220999544486,,,,,,,,,,,,,,,,,p309,21,female,left_right_width,2025-11-26_16h40.21.719,exp1,2023.1.0,60.07063102632905,
,,,,,,,,,,,,,,,,4,9.3,9.766666666666667,10.233333333333333,10.7,0,0.4666666666666667,0.06666666666666665,0.4,1.8,10,match,36.05,335,352,369,386,0,9,9,9,9,0,,,,,,,4,0,4,0,0,13,13,10,,,,,,,,,,,,,,2,1.0648857000051066,2,0.25,0.49999999999999994,18.02146,return,2.268794000032358,,,,,,,,,,,,,,,,,p309,21,female,left_right_width,2025-11-26_16h40.21.719,exp1,2023.1.0,60.07063102632905,
,,,,,,,,,,,,,,,,4,9.1,9.7,10.3,10.9,0,0.6000000000000001,0.20000000000000004,0.4,2.2,10,match,36.05,328,350,371,393,0,9,9,9,9,0,,,,,,,4,0,4,0,0,14,14,16,,,,,,,,,,,,,,3,2.6988272999878973,3,0.2,0.49999999999999994,18.02146,return,3.230902200099081,,,,,,,,,,,,,,,,,p309,21,female,left_right_width,2025-11-26_16h40.21.719,exp1,2023.1.0,60.07063102632905,
,,,,,,,,,,,,,,,,3,8.9,10,11.1,0,0,1.1,0.8500000000000001,0.25,2.45,10,initial,36.05,321,361,400,0,0,9,9,9,0,0,,,,,,,4,0,4,0,0,15,15,2,,,,,,,,,,,,,,3,1.0779555999906734,3,0.3,0.25,9.01073,return,2.3312344999285415,,,,,,,,,,,,,,,,,p309,21,female,left_right_width,2025-11-26_16h40.21.719,exp1,2023.1.0,60.07063102632905,
,,,,,,,,,,,,,,,,5,8.95,9.475,10,10.525,11.05,0.525,0.275,0.25,2.35,10,match,36.05,323,342,361,379,398,9,9,9,9,9,,,,,,,4,0,4,0,0,16,16,25,,,,,,,,,,,,,,3,0.7508025000570342,3,0.5,0.25000000000000006,9.01073,return,1.2160781000275165,,,,,,,,,,,,,,,,,p309,21,female,left_right_width,2025-11-26_16h40.21.719,exp1,2023.1.0,60.07063102632905,
,,,,,,,,,,,,,,,,3,7.8,10,12.2,0,0,2.2,1.9500000000000002,0.25,4.65,10,match,36.05,281,361,440,0,0,9,9,9,0,0,,,,,,,4,0,4,0,0,17,17,37,,,,,,,,,,,,,,3,1.135535000008531,3,0.45,0.25000000000000006,9.01073,return,1.2488368999911472,,,,,,,,,,,,,,,,,p309,21,female,left_right_width,2025-11-26_16h40.21.719,exp1,2023.1.0,60.07063102632905,
,,,,,,,,,,,,,,,,4,8.35,9.45,10.55,11.65,0,1.1,0.7000000000000001,0.4,3.7,10,initial,36.05,301,341,380,420,0,9,9,9,9,0,,,,,,,4,0,4,0,0,18,18,21,,,,,,,,,,,,,,4,0.9473707999568433,4,0.2,0.39999999999999997,14.41717,return,1.1161334000062197,,,,,,,,,,,,,,,,,p309,21,female,left_right_width,2025-11-26_16h40.21.719,exp1,2023.1.0,60.07063102632905,
,,,,,,,,,,,,,,,,5,8.2,9.1,10,10.9,11.8,0.9,0.35,0.55,4.15,10,initial,36.05,296,328,361,393,425,9,9,9,9,9,,,,,,,4,0,4,0,0,19,19,46,,,,,,,,,,,,,,4,1.0100296000018716,4,0.5,0.45,16.21932,return,0.9693578999722376,,,,,,,,,,,,,,,,,p309,21,female,left_right_width,2025-11-26_16h40.21.719,exp1,2023.1.0,60.07063102632905,
,,,,,,,,,,,,,,,,4,8.35,9.45,10.55,11.65,0,1.1,0.55,0.55,3.8500000000000005,10,initial,36.05,301,341,380,420,0,9,9,9,9,0,,,,,,,4,0,4,0,0,20,20,17,,,,,,,,,,,,,,3,0.9329242000821978,3,0.55,0.45,16.21932,return,2.5279917999869213,,,,,,,,,,,,,,,,,p309,21,female,left_right_width,2025-11-26_16h40.21.719,exp1,2023.1.0,60.07063102632905,
,,,,,,,,,,,,,,,,5,8.65,9.325,10,10.675,11.35,0.675,0.275,0.4,3.1,10,match,36.05,312,336,361,385,409,9,9,9,9,9,,,,,,,4,0,4,0,0,21,21,33,,,,,,,,,,,,,,5,1.4735222000163049,5,0.2,0.35,12.61502,return,1.5896891999291256,,,,,,,,,,,,,,,,,p309,21,female,left_right_width,2025-11-26_16h40.21.719,exp1,2023.1.0,60.07063102632905,
,,,,,,,,,,,,,,,,5,8.65,9.325,10,10.675,11.35,0.675,0.42500000000000004,0.25,2.95,10,match,36.05,312,336,361,385,409,9,9,9,9,9,,,,,,,4,0,4,0,0,22,22,31,,,,,,,,,,,,,,5,1.2825666000135243,5,0.4,0.20000000000000007,7.20859,return,1.231242600013502,,,,,,,,,,,,,,,,,p309,21,female,left_right_width,2025-11-26_16h40.21.719,exp1,2023.1.0,60.07063102632905,
,,,,,,,,,,,,,,,,4,8.65,9.55,10.45,11.35,0,0.9,0.65,0.25,2.95,10,initial,36.05,312,344,377,409,0,9,9,9,9,0,,,,,,,4,0,4,0,0,23,23,30,,,,,,,,,,,,,,4,1.1272526000393555,4,0.5,0.25000000000000006,9.01073,return,1.4494440000271425,,,,,,,,,,,,,,,,,p309,21,female,left_right_width,2025-11-26_16h40.21.719,exp1,2023.1.0,60.07063102632905,
,,,,,,,,,,,,,,,,5,7.8,8.9,10,11.1,12.2,1.1,0.7000000000000001,0.4,4.800000000000001,10,initial,36.05,281,321,361,400,440,9,9,9,9,9,,,,,,,4,0,4,0,0,24,24,38,,,,,,,,,,,,,,5,0.9829211999895051,5,0.25,0.44999999999999996,16.21932,return,1.1179688000120223,,,,,,,,,,,,,,,,,p309,21,female,left_right_width,2025-11-26_16h40.21.719,exp1,2023.1.0,60.07063102632905,
,,,,,,,,,,,,,,,,4,9.3,9.766666666666667,10.233333333333333,10.7,0,0.4666666666666667,0.21666666666666665,0.25,1.65,10,match,36.05,335,352,369,386,0,9,9,9,9,0,,,,,,,4,0,4,0,0,25,25,8,,,,,,,,,,,,,,3,1.4751546999905258,3,0.25,0.2,7.20859,return,0.72697950003203,,,,,,,,,,,,,,,,,p309,21,female,left_right_width,2025-11-26_16h40.21.719,exp1,2023.1.0,60.07063102632905,
,,,,,,,,,,,,,,,,5,7.8,8.9,10,11.1,12.2,1.1,0.8500000000000001,0.25,4.65,10,initial,36.05,281,321,361,400,440,9,9,9,9,9,,,,,,,4,0,4,0,0,26,26,36,,,,,,,,,,,,,,5,1.091252899961546,5,0.4,0.20000000000000007,7.20859,return,1.9742752000456676,,,,,,,,,,,,,,,,,p309,21,female,left_right_width,2025-11-26_16h40.21.719,exp1,2023.1.0,60.07063102632905,
,,,,,,,,,,,,,,,,4,8.95,9.65,10.35,11.05,0,0.7,0.29999999999999993,0.4,2.5,10,initial,36.05,323,348,373,398,0,9,9,9,9,0,,,,,,,4,0,4,0,0,27,27,26,,,,,,,,,,,,,,4,1.1123783000512049,4,0.3,0.3,10.81288,return,1.626666700001806,,,,,,,,,,,,,,,,,p309,21,female,left_right_width,2025-11-26_16h40.21.719,exp1,2023.1.0,60.07063102632905,
,,,,,,,,,,,,,,,,3,8.2,10,11.8,0,0,1.8,1.55,0.25,3.85,10,match,36.05,296,361,425,0,0,9,9,9,0,0,,,,,,,4,0,4,0,0,28,28,49,,,,,,,,,,,,,,3,1.0820054999785498,3,0.35,0.25,9.01073,return,0.7342103000264615,,,,,,,,,,,,,,,,,p309,21,female,left_right_width,2025-11-26_16h40.21.719,exp1,2023.1.0,60.07063102632905,
,,,,,,,,,,,,,,,,3,7.8,10,12.2,0,0,2.2,1.65,0.55,4.95,10,match,36.05,281,361,440,0,0,9,9,9,0,0,,,,,,,4,0,4,0,0,29,29,35,,,,,,,,,,,,,,3,0.8409517999971285,3,0.25,0.39999999999999997,14.41717,return,0.8857110999524593,,,,,,,,,,,,,,,,,p309,21,female,left_right_width,2025-11-26_16h40.21.719,exp1,2023.1.0,60.07063102632905,
,,,,,,,,,,,,,,,,4,8.65,9.55,10.45,11.35,0,0.9,0.5,0.4,3.1,10,initial,36.05,312,344,377,409,0,9,9,9,9,0,,,,,,,4,0,4,0,0,30,30,32,,,,,,,,,,,,,,3,0.7927874999586493,3,0.3,0.39999999999999997,14.41717,return,0.6808951999992132,,,,,,,,,,,,,,,,,p309,21,female,left_right_width,2025-11-26_16h40.21.719,exp1,2023.1.0,60.07063102632905,
,,,,,,,,,,,,,,,,4,8.9,9.633333333333333,10.366666666666667,11.1,0,0.7333333333333334,0.4833333333333334,0.25,2.45,10,match,36.05,321,347,374,400,0,9,9,9,9,0,,,,,,,4,0,4,0,0,31,31,3,,,,,,,,,,,,,,4,0.9769435999915004,4,0.3,0.2,7.20859,return,0.6492857999401167,,,,,,,,,,,,,,,,,p309,21,female,left_right_width,2025-11-26_16h40.21.719,exp1,2023.1.0,60.07063102632905,
,,,,,,,,,,,,,,,,4,9.1,9.7,10.3,10.9,0,0.5999999999999999,0.3499999999999999,0.25,2.05,10,match,36.05,328,350,371,393,0,9,9,9,9,0,,,,,,,4,0,4,0,0,32,32,14,,,,,,,,,,,,,,4,0.8176505999872461,4,0.5,0.30000000000000004,10.81288,return,1.2961015000473708,,,,,,,,,,,,,,,,,p309,21,female,left_right_width,2025-11-26_16h40.21.719,exp1,2023.1.0,60.07063102632905,
,,,,,,,,,,,,,,,,5,8.95,9.475,10,10.525,11.05,0.525,0.125,0.4,2.5,10,match,36.05,323,342,361,379,398,9,9,9,9,9,,,,,,,4,0,4,0,0,33,33,27,,,,,,,,,,,,,,4,0.9640936000505462,4,0.3,0.35,12.61502,return,0.7486422999063507,,,,,,,,,,,,,,,,,p309,21,female,left_right_width,2025-11-26_16h40.21.719,exp1,2023.1.0,60.07063102632905,
,,,,,,,,,,,,,,,,5,8.6,9.3,10,10.7,11.4,0.7,0.29999999999999993,0.4,3.1999999999999997,10,initial,36.05,310,335,361,386,411,9,9,9,9,9,,,,,,,4,0,4,0,0,34,34,44,,,,,,,,,,,,,,4,0.8803545000264421,4,0.3,0.44999999999999996,16.21932,return,0.8278368000173941,,,,,,,,,,,,,,,,,p309,21,female,left_right_width,2025-11-26_16h40.21.719,exp1,2023.1.0,60.07063102632905,
,,,,,,,,,,,,,,,,3,8.525,10,11.475,0,0,1.475,1.225,0.25,3.2,10,match,36.05,307,361,414,0,0,9,9,9,0,0,,,,,,,4,0,4,0,0,35,35,45,,,,,,,,,,,,,,2,0.9573780000209808,2,0.4,0.20000000000000007,7.20859,return,1.2856500999769196,,,,,,,,,,,,,,,,,p309,21,female,left_right_width,2025-11-26_16h40.21.719,exp1,2023.1.0,60.07063102632905,
,,,,,,,,,,,,,,,,5,8.6,9.3,10,10.7,11.4,0.7,0.1499999999999999,0.55,3.3499999999999996,10,initial,36.05,310,335,361,386,411,9,9,9,9,9,,,,,,,4,0,4,0,0,36,36,40,,,,,,,,,,,,,,5,1.769486099947244,5,0.4,0.4,14.41717,return,0.9612956000491977,,,,,,,,,,,,,,,,,p309,21,female,left_right_width,2025-11-26_16h40.21.719,exp1,2023.1.0,60.07063102632905,
,,,,,,,,,,,,,,,,3,9.3,10,10.7,0,0,0.7,0.29999999999999993,0.4,1.8,10,initial,36.05,335,361,386,0,0,9,9,9,0,0,,,,,,,4,0,4,0,0,37,37,9,,,,,,,,,,,,,,2,1.3647376999724656,2,0.2,0.39999999999999997,14.41717,return,1.6286410000175238,,,,,,,,,,,,,,,,,p309,21,female,left_right_width,2025-11-26_16h40.21.719,exp1,2023.1.0,60.07063102632905,
,,,,,,,,,,,,,,,,3,8.9,10,11.1,0,0,1.1,0.7000000000000001,0.4,2.6000000000000005,10,initial,36.05,321,361,400,0,0,9,9,9,0,0,,,,,,,4,0,4,0,0,38,38,4,,,,,,,,,,,,,,2,1.4265275000361726,2,0.3,0.44999999999999996,16.21932,return,1.8162840999430045,,,,,,,,,,,,,,,,,p309,21,female,left_right_width,2025-11-26_16h40.21.719,exp1,2023.1.0,60.07063102632905,
,,,,,,,,,,,,,,,,3,9.3,10,10.7,0,0,0.7,0.44999999999999996,0.25,1.65,10,initial,36.05,335,361,386,0,0,9,9,9,0,0,,,,,,,4,0,4,0,0,39,39,7,,,,,,,,,,,,,,2,0.7912578999530524,2,0.35,0.2,7.20859,return,0.75852869998198,,,,,,,,,,,,,,,,,p309,21,female,left_right_width,2025-11-26_16h40.21.719,exp1,2023.1.0,60.07063102632905,
,,,,,,,,,,,,,,,,3,7.800000000000001,10,12.2,0,0,2.1999999999999997,1.7999999999999998,0.4,4.8,10,match,36.05,281,361,440,0,0,9,9,9,0,0,,,,,,,4,0,4,0,0,40,40,39,,,,,,,,,,,,,,3,1.0878433000762016,3,0.45,0.45,16.21932,return,1.1225573999108747,,,,,,,,,,,,,,,,,p309,21,female,left_right_width,2025-11-26_16h40.21.719,exp1,2023.1.0,60.07063102632905,
,,,,,,,,,,,,,,,,4,9.1,9.7,10.3,10.9,0,0.6,0.04999999999999997,0.55,2.35,10,match,36.05,328,350,371,393,0,9,9,9,9,0,,,,,,,4,0,4,0,0,41,41,12,,,,,,,,,,,,,,3,1.2470431999536231,3,0.2,0.44999999999999996,16.21932,return,2.187507899943739,,,,,,,,,,,,,,,,,p309,21,female,left_right_width,2025-11-26_16h40.21.719,exp1,2023.1.0,60.07063102632905,
,,,,,,,,,,,,,,,,4,8.65,9.55,10.45,11.35,0,0.9,0.35,0.55,3.25,10,initial,36.05,312,344,377,409,0,9,9,9,9,0,,,,,,,4,0,4,0,0,42,42,28,,,,,,,,,,,,,,4,0.9421519000316039,4,0.3,0.44999999999999996,16.21932,return,0.9180498999776319,,,,,,,,,,,,,,,,,p309,21,female,left_right_width,2025-11-26_16h40.21.719,exp1,2023.1.0,60.07063102632905,
,,,,,,,,,,,,,,,,5,8.2,9.1,10,10.9,11.8,0.9,0.5,0.4,4,10,initial,36.05,296,328,361,393,425,9,9,9,9,9,,,,,,,4,0,4,0,0,43,43,50,,,,,,,,,,,,,,5,2.1019865000853315,5,0.2,0.39999999999999997,14.41717,return,1.7123625000240281,,,,,,,,,,,,,,,,,p309,21,female,left_right_width,2025-11-26_16h40.21.719,exp1,2023.1.0,60.07063102632905,
,,,,,,,,,,,,,,,,4,8.95,9.65,10.35,11.05,0,0.7,0.1499999999999999,0.55,2.65,10,initial,36.05,323,348,373,398,0,9,9,9,9,0,,,,,,,4,0,4,0,0,44,44,23,,,,,,,,,,,,,,4,1.1093212999403477,4,0.45,0.55,19.82361,return,0.9036193999927491,,,,,,,,,,,,,,,,,p309,21,female,left_right_width,2025-11-26_16h40.21.719,exp1,2023.1.0,60.07063102632905,
,,,,,,,,,,,,,,,,4,8.9,9.633333333333333,10.366666666666667,11.1,0,0.7333333333333333,0.18333333333333326,0.55,2.75,10,match,36.05,321,347,374,400,0,9,9,9,9,0,,,,,,,4,0,4,0,0,45,45,1,,,,,,,,,,,,,,4,1.0122726999688894,4,0.5,0.4,14.41717,return,0.7632927000522614,,,,,,,,,,,,,,,,,p309,21,female,left_right_width,2025-11-26_16h40.21.719,exp1,2023.1.0,60.07063102632905,
,,,,,,,,,,,,,,,,5,8.35,9.175,10,10.825,11.65,0.8250000000000001,0.275,0.55,3.85,10,match,36.05,301,331,361,390,420,9,9,9,9,9,,,,,,,4,0,4,0,0,46,46,18,,,,,,,,,,,,,,5,1.1090028999606147,5,0.2,0.44999999999999996,16.21932,return,2.8729004999622703,,,,,,,,,,,,,,,,,p309,21,female,left_right_width,2025-11-26_16h40.21.719,exp1,2023.1.0,60.07063102632905,
,,,,,,,,,,,,,,,,5,8.65,9.325,10,10.675,11.35,0.675,0.125,0.55,3.25,10,match,36.05,312,336,361,385,409,9,9,9,9,9,,,,,,,4,0,4,0,0,47,47,29,,,,,,,,,,,,,,4,0.9559047999791801,4,0.5,0.45,16.21932,return,0.6927351000485942,,,,,,,,,,,,,,,,,p309,21,female,left_right_width,2025-11-26_16h40.21.719,exp1,2023.1.0,60.07063102632905,
,,,,,,,,,,,,,,,,3,8.6,10,11.4,0,0,1.4,1.15,0.25,3.05,10,match,36.05,310,361,411,0,0,9,9,9,0,0,,,,,,,4,0,4,0,0,48,48,43,,,,,,,,,,,,,,3,1.0464805000228807,3,0.45,0.25000000000000006,9.01073,return,0.795392100000754,,,,,,,,,,,,,,,,,p309,21,female,left_right_width,2025-11-26_16h40.21.719,exp1,2023.1.0,60.07063102632905,
,,,,,,,,,,,,,,,,3,9.1,10,10.9,0,0,0.9,0.65,0.25,2.05,10,initial,36.05,328,361,393,0,0,9,9,9,0,0,,,,,,,4,0,4,0,0,49,49,13,,,,,,,,,,,,,,3,0.8092609000159428,3,0.4,0.20000000000000007,7.20859,return,0.8708302000304684,,,,,,,,,,,,,,,,,p309,21,female,left_right_width,2025-11-26_16h40.21.719,exp1,2023.1.0,60.07063102632905,
,,,,,,,,,,,,,,,,3,8.2,10,11.8,0,0,1.8,1.25,0.55,4.15,10,match,36.05,296,361,425,0,0,9,9,9,0,0,,,,,,,4,0,4,0,0,50,50,47,,,,,,,,,,,,,,3,0.9238626000005752,3,0.3,0.39999999999999997,14.41717,return,1.3823566000210121,,,,,,,,,,,,,,,,,p309,21,female,left_right_width,2025-11-26_16h40.21.719,exp1,2023.1.0,60.07063102632905,
,,,,,,,,,,,,,,,,3,9.1,10,10.9,0,0,0.9,0.5,0.4,2.2,10,initial,36.05,328,361,393,0,0,9,9,9,0,0,,,,,,,4,0,4,0,0,51,51,15,,,,,,,,,,,,,,3,0.9268040999304503,3,0.55,0.35000000000000003,12.61502,return,1.5613611999433488,,,,,,,,,,,,,,,,,p309,21,female,left_right_width,2025-11-26_16h40.21.719,exp1,2023.1.0,60.07063102632905,
,,,,,,,,,,,,,,,,,,,,,,,,,,,,,,,,,,,,,,,,,,,,,4,0,4,0,,,,,,,,,,,,,,,,,,,,,,,,,,,,1880.816911800066,1880.816911800066,1880.816911800066,,,,,,,,,,,,p309,21,female,left_right_width,2025-11-26_16h40.21.719,exp1,2023.1.0,60.07063102632905,
,,,,,,,,,,,,,,,,5,7.8,8.9,10,11.1,12.2,1.1,0.8500000000000001,0.25,4.65,10,initial,36.05,281,321,361,400,440,9,9,9,9,9,,,,,,,5,0,5,0,0,0,0,36,,,,,,,,,,,,,,4,1.1684788999846205,4,0.45,0.25000000000000006,9.01073,return,2.1433911999920383,,,,,,,,,,,,,,,,,p309,21,female,left_right_width,2025-11-26_16h40.21.719,exp1,2023.1.0,60.07063102632905,
,,,,,,,,,,,,,,,,5,8.95,9.475,10,10.525,11.05,0.525,0.125,0.4,2.5,10,match,36.05,323,342,361,379,398,9,9,9,9,9,,,,,,,5,0,5,0,0,1,1,27,,,,,,,,,,,,,,5,1.2019160999916494,5,0.55,0.4,14.41717,return,0.9929142000619322,,,,,,,,,,,,,,,,,p309,21,female,left_right_width,2025-11-26_16h40.21.719,exp1,2023.1.0,60.07063102632905,
,,,,,,,,,,,,,,,,3,8.9,10,11.1,0,0,1.1,0.7000000000000001,0.4,2.6000000000000005,10,initial,36.05,321,361,400,0,0,9,9,9,0,0,,,,,,,5,0,5,0,0,2,2,4,,,,,,,,,,,,,,3,0.8641759000020102,3,0.4,0.4,14.41717,return,1.4359273000154644,,,,,,,,,,,,,,,,,p309,21,female,left_right_width,2025-11-26_16h40.21.719,exp1,2023.1.0,60.07063102632905,
,,,,,,,,,,,,,,,,4,8.95,9.65,10.35,11.05,0,0.7,0.44999999999999996,0.25,2.3499999999999996,10,initial,36.05,323,348,373,398,0,9,9,9,9,0,,,,,,,5,0,5,0,0,3,3,24,,,,,,,,,,,,,,4,1.0331568999681622,4,0.5,0.35000000000000003,12.61502,return,0.9753057999769226,,,,,,,,,,,,,,,,,p309,21,female,left_right_width,2025-11-26_16h40.21.719,exp1,2023.1.0,60.07063102632905,
,,,,,,,,,,,,,,,,4,9.1,9.7,10.3,10.9,0,0.6,0.04999999999999997,0.55,2.35,10,match,36.05,328,350,371,393,0,9,9,9,9,0,,,,,,,5,0,5,0,0,4,4,12,,,,,,,,,,,,,,3,1.1471749999327585,3,0.3,0.39999999999999997,14.41717,return,1.0843934000004083,,,,,,,,,,,,,,,,,p309,21,female,left_right_width,2025-11-26_16h40.21.719,exp1,2023.1.0,60.07063102632905,
,,,,,,,,,,,,,,,,5,8.65,9.325,10,10.675,11.35,0.675,0.42500000000000004,0.25,2.95,10,match,36.05,312,336,361,385,409,9,9,9,9,9,,,,,,,5,0,5,0,0,5,5,31,,,,,,,,,,,,,,4,1.043376600020565,4,0.55,0.35000000000000003,12.61502,return,0.8874491000315174,,,,,,,,,,,,,,,,,p309,21,female,left_right_width,2025-11-26_16h40.21.719,exp1,2023.1.0,60.07063102632905,
,,,,,,,,,,,,,,,,3,7.8,10,12.2,0,0,2.2,1.9500000000000002,0.25,4.65,10,match,36.05,281,361,440,0,0,9,9,9,0,0,,,,,,,5,0,5,0,0,6,6,37,,,,,,,,,,,,,,4,3.501505200052634,4,0.25,0.25,9.01073,return,6.0159734999760985,,,,,,,,,,,,,,,,,p309,21,female,left_right_width,2025-11-26_16h40.21.719,exp1,2023.1.0,60.07063102632905,
,,,,,,,,,,,,,,,,3,8.2,10,11.8,0,0,1.7999999999999998,1.4,0.4,4,10,match,36.05,296,361,425,0,0,9,9,9,0,0,,,,,,,5,0,5,0,0,7,7,51,,,,,,,,,,,,,,2,1.8375311000272632,2,0.55,0.30000000000000004,10.81288,return,2.114290500059724,,,,,,,,,,,,,,,,,p309,21,female,left_right_width,2025-11-26_16h40.21.719,exp1,2023.1.0,60.07063102632905,
,,,,,,,,,,,,,,,,3,8.525,10,11.475,0,0,1.475,1.225,0.25,3.2,10,match,36.05,307,361,414,0,0,9,9,9,0,0,,,,,,,5,0,5,0,0,8,8,45,,,,,,,,,,,,,,2,0.447594300028868,2,0.3,0.25,9.01073,return,1.8517868999624625,,,,,,,,,,,,,,,,,p309,21,female,left_right_width,2025-11-26_16h40.21.719,exp1,2023.1.0,60.07063102632905,
,,,,,,,,,,,,,,,,3,9.3,10,10.7,0,0,0.7,0.29999999999999993,0.4,1.8,10,initial,36.05,335,361,386,0,0,9,9,9,0,0,,,,,,,5,0,5,0,0,9,9,9,,,,,,,,,,,,,,3,1.0030167000368237,3,0.25,0.35,12.61502,return,1.4728441000916064,,,,,,,,,,,,,,,,,p309,21,female,left_right_width,2025-11-26_16h40.21.719,exp1,2023.1.0,60.07063102632905,
,,,,,,,,,,,,,,,,4,8.65,9.55,10.45,11.35,0,0.9,0.5,0.4,3.1,10,initial,36.05,312,344,377,409,0,9,9,9,9,0,,,,,,,5,0,5,0,0,10,10,32,,,,,,,,,,,,,,4,0.9518061999697238,4,0.3,0.35,12.61502,return,1.344798499951139,,,,,,,,,,,,,,,,,p309,21,female,left_right_width,2025-11-26_16h40.21.719,exp1,2023.1.0,60.07063102632905,
,,,,,,,,,,,,,,,,5,8.275,9.1375,10,10.8625,11.725,0.8625,0.6125,0.25,3.7,10,match,36.05,298,329,361,392,423,9,9,9,9,9,,,,,,,5,0,5,0,0,11,11,22,,,,,,,,,,,,,,5,1.0512840000446886,5,0.3,0.2,7.20859,return,0.9592999999877065,,,,,,,,,,,,,,,,,p309,21,female,left_right_width,2025-11-26_16h40.21.719,exp1,2023.1.0,60.07063102632905,
,,,,,,,,,,,,,,,,5,8.65,9.325,10,10.675,11.35,0.675,0.275,0.4,3.1,10,match,36.05,312,336,361,385,409,9,9,9,9,9,,,,,,,5,0,5,0,0,12,12,33,,,,,,,,,,,,,,5,0.7971396999200806,5,0.5,0.4,14.41717,return,1.099371699965559,,,,,,,,,,,,,,,,,p309,21,female,left_right_width,2025-11-26_16h40.21.719,exp1,2023.1.0,60.07063102632905,
,,,,,,,,,,,,,,,,4,8.9,9.633333333333333,10.366666666666667,11.1,0,0.7333333333333333,0.18333333333333326,0.55,2.75,10,match,36.05,321,347,374,400,0,9,9,9,9,0,,,,,,,5,0,5,0,0,13,13,1,,,,,,,,,,,,,,4,0.9897899000206962,4,0.55,0.45,16.21932,return,1.3014031000202522,,,,,,,,,,,,,,,,,p309,21,female,left_right_width,2025-11-26_16h40.21.719,exp1,2023.1.0,60.07063102632905,
,,,,,,,,,,,,,,,,5,8.2,9.1,10,10.9,11.8,0.9,0.65,0.25,3.85,10,initial,36.05,296,328,361,393,425,9,9,9,9,9,,,,,,,5,0,5,0,0,14,14,48,,,,,,,,,,,,,,5,1.4975781000684947,5,0.45,0.30000000000000004,10.81288,return,0.9574804999865592,,,,,,,,,,,,,,,,,p309,21,female,left_right_width,2025-11-26_16h40.21.719,exp1,2023.1.0,60.07063102632905,
,,,,,,,,,,,,,,,,5,8.6,9.3,10,10.7,11.4,0.7,0.1499999999999999,0.55,3.3499999999999996,10,initial,36.05,310,335,361,386,411,9,9,9,9,9,,,,,,,5,0,5,0,0,15,15,40,,,,,,,,,,,,,,4,1.1386949999723583,4,0.45,0.5,18.02146,return,0.86930499994196,,,,,,,,,,,,,,,,,p309,21,female,left_right_width,2025-11-26_16h40.21.719,exp1,2023.1.0,60.07063102632905,
,,,,,,,,,,,,,,,,4,8.95,9.65,10.35,11.05,0,0.7,0.29999999999999993,0.4,2.5,10,initial,36.05,323,348,373,398,0,9,9,9,9,0,,,,,,,5,0,5,0,0,16,16,26,,,,,,,,,,,,,,4,1.1473667999962345,4,0.2,0.35,12.61502,return,2.012578099966049,,,,,,,,,,,,,,,,,p309,21,female,left_right_width,2025-11-26_16h40.21.719,exp1,2023.1.0,60.07063102632905,
,,,,,,,,,,,,,,,,3,7.800000000000001,10,12.2,0,0,2.1999999999999997,1.7999999999999998,0.4,4.8,10,match,36.05,281,361,440,0,0,9,9,9,0,0,,,,,,,5,0,5,0,0,17,17,39,,,,,,,,,,,,,,3,1.0863245000364259,3,0.35,0.3,10.81288,return,0.7856005999492481,,,,,,,,,,,,,,,,,p309,21,female,left_right_width,2025-11-26_16h40.21.719,exp1,2023.1.0,60.07063102632905,
,,,,,,,,,,,,,,,,3,9.3,10,10.7,0,0,0.7,0.1499999999999999,0.55,1.95,10,initial,36.05,335,361,386,0,0,9,9,9,0,0,,,,,,,5,0,5,0,0,18,18,6,,,,,,,,,,,,,,3,0.8855471999850124,3,0.2,0.44999999999999996,16.21932,return,1.3453072999836877,,,,,,,,,,,,,,,,,p309,21,female,left_right_width,2025-11-26_16h40.21.719,exp1,2023.1.0,60.07063102632905,
,,,,,,,,,,,,,,,,5,7.8,8.9,10,11.1,12.2,1.1,0.7000000000000001,0.4,4.800000000000001,10,initial,36.05,281,321,361,400,440,9,9,9,9,9,,,,,,,5,0,5,0,0,19,19,38,,,,,,,,,,,,,,5,1.4106809999793768,5,0.5,0.35000000000000003,12.61502,return,1.193066900013946,,,,,,,,,,,,,,,,,p309,21,female,left_right_width,2025-11-26_16h40.21.719,exp1,2023.1.0,60.07063102632905,
,,,,,,,,,,,,,,,,5,8.95,9.475,10,10.525,11.05,0.525,0.275,0.25,2.35,10,match,36.05,323,342,361,379,398,9,9,9,9,9,,,,,,,5,0,5,0,0,20,20,25,,,,,,,,,,,,,,5,1.2499481999548152,5,0.55,0.30000000000000004,10.81288,return,1.0394053000491112,,,,,,,,,,,,,,,,,p309,21,female,left_right_width,2025-11-26_16h40.21.719,exp1,2023.1.0,60.07063102632905,
,,,,,,,,,,,,,,,,4,8.35,9.45,10.55,11.65,0,1.1,0.55,0.55,3.8500000000000005,10,initial,36.05,301,341,380,420,0,9,9,9,9,0,,,,,,,5,0,5,0,0,21,21,17,,,,,,,,,,,,,,4,1.1187983000418171,4,0.45,0.35000000000000003,12.61502,return,0.7680430000182241,,,,,,,,,,,,,,,,,p309,21,female,left_right_width,2025-11-26_16h40.21.719,exp1,2023.1.0,60.07063102632905,
,,,,,,,,,,,,,,,,5,8.2,9.1,10,10.9,11.8,0.9,0.5,0.4,4,10,initial,36.05,296,328,361,393,425,9,9,9,9,9,,,,,,,5,0,5,0,0,22,22,50,,,,,,,,,,,,,,5,0.8850510000484064,5,0.2,0.3,10.81288,return,1.5678306999616325,,,,,,,,,,,,,,,,,p309,21,female,left_right_width,2025-11-26_16h40.21.719,exp1,2023.1.0,60.07063102632905,
