amount_p,posx1_p,posx2_p,posx3_p,posx4_p,posx5_p,center_to_center_p,edge_to_edge_p,w_p,stim_lengt_p,eccentricity_p,line1_p,line2_p,line3_p,line4_p,line5_p,amount,posx1,posx2,posx3,posx4,posx5,center_to_center,edge_to_edge,w,stim_length,eccentricity,trial_type,deg_to_pix_index,posx1_in_pix,posx2_in_pix,posx3_in_pix,posx4_in_pix,posx5_in_pix,line1,line2,line3,line4,line5,posx,setsize_cobdi,trials.thisRepN,trials.thisTrialN,trials.thisN,trials.thisIndex,blocks.thisRepN,blocks.thisTrialN,blocks.thisN,blocks.thisIndex,loop.thisRepN,loop.thisTrialN,loop.thisN,loop.thisIndex,first.thisRepN,first.thisTrialN,first.thisN,first.thisIndex,second.thisRepN,second.thisTrialN,second.thisN,second.thisIndex,thisRow.t,notes,key_resp_3.started,key_resp_3.keys,key_resp_3.rt,key_resp.keys,key_resp.rt,response,starting_width_deg,response_width_degree,response_width_pixel,next_5.keys,next_5.rt,key_resp_4.keys,key_resp_4.rt,text_3.started,text_4.started,key_resp_2.started,text_2.started,key_resp_2.keys,key_resp_2.rt,adjusting.started,next.keys,next.rt,text_control2.started,key_resp.started,key_resp.corr,text_bye.started,text_bye.stopped,participant,age,gender,resp_group,date,expName,psychopyVersion,frameRate,
,,,,,,,,,,,,,,,,,,,,,,,,,,,,,,,,,,,,,,,,,,,,,,,,,,,,,,,,,,,,,,,522.8368790999521,c,107.88749220001046,,,,,,,,,,,,,,,,,,,,,,,,,p310,22,female,up_down_width,2025-11-29_08h59.09.380,exp1,2023.1.0,60.01983056327316,
3,8.2,10,11.8,0,0,1.7999999999999998,1.4,0.4,4,10,9,9,9,0,0,,,,,,,,,,,,,,,,,,,,,,,,,,0,0,0,2,,,,,,,,,,,,,,,,,,,,,,3,2.1154218999436125,3,0.35,0.2,7.20859,return,8.125443099997938,,,,,,,,,,,,,,,,,p310,22,female,up_down_width,2025-11-29_08h59.09.380,exp1,2023.1.0,60.01983056327316,
4,9.25,9.75,10.25,10.75,0,0.5,0.25,0.25,1.75,10,9,9,9,9,0,,,,,,,,,,,,,,,,,,,,,,,,,,0,1,1,4,,,,,,,,,,,,,,,,,,,,,,4,1.835120499948971,4,0.25,0.35,12.61502,return,2.192716300021857,,,,,,,,,,,,,,,,,p310,22,female,up_down_width,2025-11-29_08h59.09.380,exp1,2023.1.0,60.01983056327316,
5,9.25,9.625,10,10.375,10.75,0.375,0.125,0.25,1.75,10,9,9,9,9,9,,,,,,,,,,,,,,,,,,,,,,,,,,0,2,2,6,,,,,,,,,,,,,,,,,,,,,,4,1.2383023999864236,4,0.4,0.25000000000000006,9.01073,return,2.306673099985346,,,,,,,,,,,,,,,,,p310,22,female,up_down_width,2025-11-29_08h59.09.380,exp1,2023.1.0,60.01983056327316,
4,8.65,9.55,10.45,11.35,0,0.9,0.5,0.4,3.1,10,9,9,9,9,0,,,,,,,,,,,,,,,,,,,,,,,,,,0,3,3,5,,,,,,,,,,,,,,,,,,,,,,4,1.4716532999882475,4,0.2,0.39999999999999997,14.41717,return,2.9491238000337034,,,,,,,,,,,,,,,,,p310,22,female,up_down_width,2025-11-29_08h59.09.380,exp1,2023.1.0,60.01983056327316,
5,9,9.5,10,10.5,11,0.5,0.09999999999999998,0.4,2.4,10,9,9,9,9,9,,,,,,,,,,,,,,,,,,,,,,,,,,0,4,4,8,,,,,,,,,,,,,,,,,,,,,,4,1.9416818000609055,4,0.5,0.35000000000000003,12.61502,return,2.3435931999702007,,,,,,,,,,,,,,,,,p310,22,female,up_down_width,2025-11-29_08h59.09.380,exp1,2023.1.0,60.01983056327316,
3,9,10,11,0,0,1,0.9,0.1,2.1,10,9,9,9,0,0,,,,,,,,,,,,,,,,,,,,,,,,,,0,5,5,1,,,,,,,,,,,,,,,,,,,,,,3,1.6541849999921396,3,0.3,0.05000000000000002,1.80215,return,2.754814099986106,,,,,,,,,,,,,,,,,p310,22,female,up_down_width,2025-11-29_08h59.09.380,exp1,2023.1.0,60.01983056327316,
4,9.5,9.833333333333334,10.166666666666666,10.5,0,0.33333333333333337,0.23333333333333336,0.1,1.1,10,9,9,9,9,0,,,,,,,,,,,,,,,,,,,,,,,,,,0,6,6,3,,,,,,,,,,,,,,,,,,,,,,4,1.3295183000154793,4,0.2,0.15000000000000002,5.40644,return,1.6110681999707595,,,,,,,,,,,,,,,,,p310,22,female,up_down_width,2025-11-29_08h59.09.380,exp1,2023.1.0,60.01983056327316,
3,9.5,10,10.5,0,0,0.5,0.4,0.1,1.1,10,9,9,9,0,0,,,,,,,,,,,,,,,,,,,,,,,,,,0,7,7,0,,,,,,,,,,,,,,,,,,,,,,3,1.5407227999530733,3,0.25,0.10000000000000002,3.60429,return,2.101189999957569,,,,,,,,,,,,,,,,,p310,22,female,up_down_width,2025-11-29_08h59.09.380,exp1,2023.1.0,60.01983056327316,
5,8.6,9.3,10,10.7,11.4,0.7,0.29999999999999993,0.4,3.1999999999999997,10,9,9,9,9,9,,,,,,,,,,,,,,,,,,,,,,,,,,0,8,8,7,,,,,,,,,,,,,,,,,,,,,,4,1.43284629995469,4,0.3,0.35,12.61502,return,2.1582287000492215,,,,,,,,,,,,,,,,,p310,22,female,up_down_width,2025-11-29_08h59.09.380,exp1,2023.1.0,60.01983056327316,
,,,,,,,,,,,,,,,,,,,,,,,,,,,,,,,,,,,,,,,,,,,,,,,,,,,,,,,,,,,,,,,,,,,,,,,,,,c,92.40710389998276,,,,,,,,,,,,,,,p310,22,female,up_down_width,2025-11-29_08h59.09.380,exp1,2023.1.0,60.01983056327316,
,,,,,,,,,,,,,,,,5,8.65,9.325,10,10.675,11.35,0.675,0.125,0.55,3.25,10,match,36.05,312,336,361,385,409,9,9,9,9,9,,,,,,,0,0,0,0,0,0,0,29,,,,,,,,,,,,,,4,1.9474292999366298,4,0.3,0.49999999999999994,18.02146,return,2.829475700040348,,,,,,,,,,,,,,,,,p310,22,female,up_down_width,2025-11-29_08h59.09.380,exp1,2023.1.0,60.01983056327316,
,,,,,,,,,,,,,,,,3,8.6,10,11.4,0,0,1.4,1.15,0.25,3.05,10,match,36.05,310,361,411,0,0,9,9,9,0,0,,,,,,,0,0,0,0,0,1,1,43,,,,,,,,,,,,,,3,0.8379546999931335,3,0.45,0.20000000000000007,7.20859,return,1.4270960000576451,,,,,,,,,,,,,,,,,p310,22,female,up_down_width,2025-11-29_08h59.09.380,exp1,2023.1.0,60.01983056327316,
,,,,,,,,,,,,,,,,3,7.800000000000001,10,12.2,0,0,2.1999999999999997,1.7999999999999998,0.4,4.8,10,match,36.05,281,361,440,0,0,9,9,9,0,0,,,,,,,0,0,0,0,0,2,2,39,,,,,,,,,,,,,,3,1.4787737999577075,3,0.3,0.39999999999999997,14.41717,return,1.0342129999771714,,,,,,,,,,,,,,,,,p310,22,female,up_down_width,2025-11-29_08h59.09.380,exp1,2023.1.0,60.01983056327316,
,,,,,,,,,,,,,,,,5,8.6,9.3,10,10.7,11.4,0.7,0.1499999999999999,0.55,3.3499999999999996,10,initial,36.05,310,335,361,386,411,9,9,9,9,9,,,,,,,0,0,0,0,0,3,3,40,,,,,,,,,,,,,,4,1.621593700023368,4,0.4,0.5,18.02146,return,1.138337100041099,,,,,,,,,,,,,,,,,p310,22,female,up_down_width,2025-11-29_08h59.09.380,exp1,2023.1.0,60.01983056327316,
,,,,,,,,,,,,,,,,3,8.2,10,11.8,0,0,1.8,1.55,0.25,3.85,10,match,36.05,296,361,425,0,0,9,9,9,0,0,,,,,,,0,0,0,0,0,4,4,49,,,,,,,,,,,,,,3,0.7582551999948919,3,0.4,0.20000000000000007,7.20859,return,1.7030580999562517,,,,,,,,,,,,,,,,,p310,22,female,up_down_width,2025-11-29_08h59.09.380,exp1,2023.1.0,60.01983056327316,
,,,,,,,,,,,,,,,,3,9.3,10,10.7,0,0,0.7,0.44999999999999996,0.25,1.65,10,initial,36.05,335,361,386,0,0,9,9,9,0,0,,,,,,,0,0,0,0,0,5,5,7,,,,,,,,,,,,,,3,1.6516840999247506,3,0.55,0.20000000000000007,7.20859,return,2.3196694999933243,,,,,,,,,,,,,,,,,p310,22,female,up_down_width,2025-11-29_08h59.09.380,exp1,2023.1.0,60.01983056327316,
,,,,,,,,,,,,,,,,4,9.1,9.7,10.3,10.9,0,0.6000000000000001,0.20000000000000004,0.4,2.2,10,match,36.05,328,350,371,393,0,9,9,9,9,0,,,,,,,0,0,0,0,0,6,6,16,,,,,,,,,,,,,,4,1.9262865000637248,4,0.2,0.39999999999999997,14.41717,return,1.4492827000794932,,,,,,,,,,,,,,,,,p310,22,female,up_down_width,2025-11-29_08h59.09.380,exp1,2023.1.0,60.01983056327316,
,,,,,,,,,,,,,,,,5,7.8,8.9,10,11.1,12.2,1.1,0.8500000000000001,0.25,4.65,10,initial,36.05,281,321,361,400,440,9,9,9,9,9,,,,,,,0,0,0,0,0,7,7,36,,,,,,,,,,,,,,4,1.7120948999654502,4,0.55,0.30000000000000004,10.81288,return,2.3465930999955162,,,,,,,,,,,,,,,,,p310,22,female,up_down_width,2025-11-29_08h59.09.380,exp1,2023.1.0,60.01983056327316,
,,,,,,,,,,,,,,,,4,8.9,9.633333333333333,10.366666666666667,11.1,0,0.7333333333333333,0.18333333333333326,0.55,2.75,10,match,36.05,321,347,374,400,0,9,9,9,9,0,,,,,,,0,0,0,0,0,8,8,1,,,,,,,,,,,,,,4,1.2941092000110075,4,0.55,0.6000000000000001,21.62576,return,1.08005350001622,,,,,,,,,,,,,,,,,p310,22,female,up_down_width,2025-11-29_08h59.09.380,exp1,2023.1.0,60.01983056327316,
,,,,,,,,,,,,,,,,3,9.3,10,10.7,0,0,0.7,0.1499999999999999,0.55,1.95,10,initial,36.05,335,361,386,0,0,9,9,9,0,0,,,,,,,0,0,0,0,0,9,9,6,,,,,,,,,,,,,,3,1.4126357999630272,3,0.55,0.55,19.82361,return,0.9874520000303164,,,,,,,,,,,,,,,,,p310,22,female,up_down_width,2025-11-29_08h59.09.380,exp1,2023.1.0,60.01983056327316,
,,,,,,,,,,,,,,,,5,8.65,9.325,10,10.675,11.35,0.675,0.275,0.4,3.1,10,match,36.05,312,336,361,385,409,9,9,9,9,9,,,,,,,0,0,0,0,0,10,10,33,,,,,,,,,,,,,,4,1.351622199988924,4,0.35,0.44999999999999996,16.21932,return,1.3441798000130802,,,,,,,,,,,,,,,,,p310,22,female,up_down_width,2025-11-29_08h59.09.380,exp1,2023.1.0,60.01983056327316,
,,,,,,,,,,,,,,,,3,8.2,10,11.8,0,0,1.7999999999999998,1.4,0.4,4,10,match,36.05,296,361,425,0,0,9,9,9,0,0,,,,,,,0,0,0,0,0,11,11,51,,,,,,,,,,,,,,3,1.2327477999497205,3,0.2,0.35,12.61502,return,1.4075290999608114,,,,,,,,,,,,,,,,,p310,22,female,up_down_width,2025-11-29_08h59.09.380,exp1,2023.1.0,60.01983056327316,
,,,,,,,,,,,,,,,,3,9.3,10,10.7,0,0,0.7,0.29999999999999993,0.4,1.8,10,initial,36.05,335,361,386,0,0,9,9,9,0,0,,,,,,,0,0,0,0,0,12,12,9,,,,,,,,,,,,,,3,1.0016812999965623,3,0.4,0.4,14.41717,return,0.9446756000397727,,,,,,,,,,,,,,,,,p310,22,female,up_down_width,2025-11-29_08h59.09.380,exp1,2023.1.0,60.01983056327316,
,,,,,,,,,,,,,,,,5,8.35,9.175,10,10.825,11.65,0.825,0.575,0.25,3.55,10,match,36.05,301,331,361,390,420,9,9,9,9,9,,,,,,,0,0,0,0,0,13,13,20,,,,,,,,,,,,,,4,1.1073607000289485,4,0.25,0.25,9.01073,return,1.1419581000227481,,,,,,,,,,,,,,,,,p310,22,female,up_down_width,2025-11-29_08h59.09.380,exp1,2023.1.0,60.01983056327316,
,,,,,,,,,,,,,,,,3,8.6,10,11.4,0,0,1.4,0.85,0.55,3.35,10,match,36.05,310,361,411,0,0,9,9,9,0,0,,,,,,,0,0,0,0,0,14,14,41,,,,,,,,,,,,,,4,1.4823500000638887,4,0.2,0.3,10.81288,return,0.9421346000162885,,,,,,,,,,,,,,,,,p310,22,female,up_down_width,2025-11-29_08h59.09.380,exp1,2023.1.0,60.01983056327316,
,,,,,,,,,,,,,,,,5,8.95,9.475,10,10.525,11.05,0.525,0.125,0.4,2.5,10,match,36.05,323,342,361,379,398,9,9,9,9,9,,,,,,,0,0,0,0,0,15,15,27,,,,,,,,,,,,,,5,1.3392417000140995,5,0.2,0.35,12.61502,return,1.284147399943322,,,,,,,,,,,,,,,,,p310,22,female,up_down_width,2025-11-29_08h59.09.380,exp1,2023.1.0,60.01983056327316,
,,,,,,,,,,,,,,,,4,8.95,9.65,10.35,11.05,0,0.7,0.29999999999999993,0.4,2.5,10,initial,36.05,323,348,373,398,0,9,9,9,9,0,,,,,,,0,0,0,0,0,16,16,26,,,,,,,,,,,,,,4,1.2242334000766277,4,0.5,0.25000000000000006,9.01073,return,3.029803999932483,,,,,,,,,,,,,,,,,p310,22,female,up_down_width,2025-11-29_08h59.09.380,exp1,2023.1.0,60.01983056327316,
,,,,,,,,,,,,,,,,5,7.8,8.9,10,11.1,12.2,1.1,0.7000000000000001,0.4,4.800000000000001,10,initial,36.05,281,321,361,400,440,9,9,9,9,9,,,,,,,0,0,0,0,0,17,17,38,,,,,,,,,,,,,,5,1.5828077999176458,5,0.45,0.25000000000000006,9.01073,return,1.4221057000104338,,,,,,,,,,,,,,,,,p310,22,female,up_down_width,2025-11-29_08h59.09.380,exp1,2023.1.0,60.01983056327316,
,,,,,,,,,,,,,,,,3,8.9,10,11.1,0,0,1.1,0.7000000000000001,0.4,2.6000000000000005,10,initial,36.05,321,361,400,0,0,9,9,9,0,0,,,,,,,0,0,0,0,0,18,18,4,,,,,,,,,,,,,,3,1.7349493000656366,3,0.35,0.35,12.61502,return,1.2798748000059277,,,,,,,,,,,,,,,,,p310,22,female,up_down_width,2025-11-29_08h59.09.380,exp1,2023.1.0,60.01983056327316,
,,,,,,,,,,,,,,,,4,8.65,9.55,10.45,11.35,0,0.9,0.5,0.4,3.1,10,initial,36.05,312,344,377,409,0,9,9,9,9,0,,,,,,,0,0,0,0,0,19,19,32,,,,,,,,,,,,,,4,1.247247499995865,4,0.45,0.4,14.41717,return,1.0218147999839857,,,,,,,,,,,,,,,,,p310,22,female,up_down_width,2025-11-29_08h59.09.380,exp1,2023.1.0,60.01983056327316,
,,,,,,,,,,,,,,,,3,8.2,10,11.8,0,0,1.8,1.25,0.55,4.15,10,match,36.05,296,361,425,0,0,9,9,9,0,0,,,,,,,0,0,0,0,0,20,20,47,,,,,,,,,,,,,,3,1.2773000000743195,3,0.5,0.5,18.02146,return,0.9211115000071004,,,,,,,,,,,,,,,,,p310,22,female,up_down_width,2025-11-29_08h59.09.380,exp1,2023.1.0,60.01983056327316,
,,,,,,,,,,,,,,,,5,8.6,9.3,10,10.7,11.4,0.7,0.44999999999999996,0.25,3.05,10,initial,36.05,310,335,361,386,411,9,9,9,9,9,,,,,,,0,0,0,0,0,21,21,42,,,,,,,,,,,,,,4,1.322136600036174,4,0.3,0.3,10.81288,return,1.2367675999412313,,,,,,,,,,,,,,,,,p310,22,female,up_down_width,2025-11-29_08h59.09.380,exp1,2023.1.0,60.01983056327316,
,,,,,,,,,,,,,,,,3,7.8,10,12.2,0,0,2.2,1.65,0.55,4.95,10,match,36.05,281,361,440,0,0,9,9,9,0,0,,,,,,,0,0,0,0,0,22,22,35,,,,,,,,,,,,,,3,1.2355398999061435,3,0.35,0.5499999999999999,19.82361,return,2.6732223000144586,,,,,,,,,,,,,,,,,p310,22,female,up_down_width,2025-11-29_08h59.09.380,exp1,2023.1.0,60.01983056327316,
,,,,,,,,,,,,,,,,5,7.8,8.9,10,11.1,12.2,1.1,0.55,0.55,4.95,10,initial,36.05,281,321,361,400,440,9,9,9,9,9,,,,,,,0,0,0,0,0,23,23,34,,,,,,,,,,,,,,5,1.3735712000634521,5,0.35,0.49999999999999994,18.02146,return,1.8778651000466198,,,,,,,,,,,,,,,,,p310,22,female,up_down_width,2025-11-29_08h59.09.380,exp1,2023.1.0,60.01983056327316,
,,,,,,,,,,,,,,,,4,9.1,9.7,10.3,10.9,0,0.5999999999999999,0.3499999999999999,0.25,2.05,10,match,36.05,328,350,371,393,0,9,9,9,9,0,,,,,,,0,0,0,0,0,24,24,14,,,,,,,,,,,,,,4,1.4442300000227988,4,0.3,0.3,10.81288,return,0.7774773000273854,,,,,,,,,,,,,,,,,p310,22,female,up_down_width,2025-11-29_08h59.09.380,exp1,2023.1.0,60.01983056327316,
,,,,,,,,,,,,,,,,3,8.525,10,11.475,0,0,1.475,1.225,0.25,3.2,10,match,36.05,307,361,414,0,0,9,9,9,0,0,,,,,,,0,0,0,0,0,25,25,45,,,,,,,,,,,,,,3,1.056147100054659,3,0.2,0.25,9.01073,return,0.9808523999527097,,,,,,,,,,,,,,,,,p310,22,female,up_down_width,2025-11-29_08h59.09.380,exp1,2023.1.0,60.01983056327316,
,,,,,,,,,,,,,,,,5,8.2,9.1,10,10.9,11.8,0.9,0.65,0.25,3.85,10,initial,36.05,296,328,361,393,425,9,9,9,9,9,,,,,,,0,0,0,0,0,26,26,48,,,,,,,,,,,,,,4,1.185174799989909,4,0.25,0.3,10.81288,return,3.1688329000025988,,,,,,,,,,,,,,,,,p310,22,female,up_down_width,2025-11-29_08h59.09.380,exp1,2023.1.0,60.01983056327316,
,,,,,,,,,,,,,,,,4,8.9,9.633333333333333,10.366666666666667,11.1,0,0.7333333333333334,0.4833333333333334,0.25,2.45,10,match,36.05,321,347,374,400,0,9,9,9,9,0,,,,,,,0,0,0,0,0,27,27,3,,,,,,,,,,,,,,4,1.4993807999417186,4,0.5,0.25000000000000006,9.01073,return,2.7494060000171885,,,,,,,,,,,,,,,,,p310,22,female,up_down_width,2025-11-29_08h59.09.380,exp1,2023.1.0,60.01983056327316,
,,,,,,,,,,,,,,,,4,9.3,9.766666666666667,10.233333333333333,10.7,0,0.4666666666666667,0.06666666666666665,0.4,1.8,10,match,36.05,335,352,369,386,0,9,9,9,9,0,,,,,,,0,0,0,0,0,28,28,10,,,,,,,,,,,,,,3,2.599284900003113,3,0.35,0.44999999999999996,16.21932,return,1.2781533000525087,,,,,,,,,,,,,,,,,p310,22,female,up_down_width,2025-11-29_08h59.09.380,exp1,2023.1.0,60.01983056327316,
,,,,,,,,,,,,,,,,4,8.65,9.55,10.45,11.35,0,0.9,0.65,0.25,2.95,10,initial,36.05,312,344,377,409,0,9,9,9,9,0,,,,,,,0,0,0,0,0,29,29,30,,,,,,,,,,,,,,4,1.2621437999187037,4,0.35,0.3,10.81288,return,1.2598390000639483,,,,,,,,,,,,,,,,,p310,22,female,up_down_width,2025-11-29_08h59.09.380,exp1,2023.1.0,60.01983056327316,
,,,,,,,,,,,,,,,,4,8.825,9.608333333333333,10.391666666666667,11.175,0,0.7833333333333333,0.5333333333333333,0.25,2.6,10,match,36.05,318,346,375,403,0,9,9,9,9,0,,,,,,,0,0,0,0,0,30,30,5,,,,,,,,,,,,,,4,1.3305925999302417,4,0.2,0.25,9.01073,return,0.9248662999598309,,,,,,,,,,,,,,,,,p310,22,female,up_down_width,2025-11-29_08h59.09.380,exp1,2023.1.0,60.01983056327316,
,,,,,,,,,,,,,,,,5,8.65,9.325,10,10.675,11.35,0.675,0.42500000000000004,0.25,2.95,10,match,36.05,312,336,361,385,409,9,9,9,9,9,,,,,,,0,0,0,0,0,31,31,31,,,,,,,,,,,,,,4,0.7882489999756217,4,0.2,0.25,9.01073,return,0.8029778999043629,,,,,,,,,,,,,,,,,p310,22,female,up_down_width,2025-11-29_08h59.09.380,exp1,2023.1.0,60.01983056327316,
,,,,,,,,,,,,,,,,4,8.65,9.55,10.45,11.35,0,0.9,0.35,0.55,3.25,10,initial,36.05,312,344,377,409,0,9,9,9,9,0,,,,,,,0,0,0,0,0,32,32,28,,,,,,,,,,,,,,4,1.2709068999392912,4,0.55,0.4,14.41717,return,1.234466499881819,,,,,,,,,,,,,,,,,p310,22,female,up_down_width,2025-11-29_08h59.09.380,exp1,2023.1.0,60.01983056327316,
,,,,,,,,,,,,,,,,3,8.9,10,11.1,0,0,1.1,0.55,0.55,2.75,10,initial,36.05,321,361,400,0,0,9,9,9,0,0,,,,,,,0,0,0,0,0,33,33,0,,,,,,,,,,,,,,3,1.394526100018993,3,0.4,0.4,14.41717,return,0.7292005999479443,,,,,,,,,,,,,,,,,p310,22,female,up_down_width,2025-11-29_08h59.09.380,exp1,2023.1.0,60.01983056327316,
,,,,,,,,,,,,,,,,4,8.35,9.45,10.55,11.65,0,1.1,0.7000000000000001,0.4,3.7,10,initial,36.05,301,341,380,420,0,9,9,9,9,0,,,,,,,0,0,0,0,0,34,34,21,,,,,,,,,,,,,,3,1.0551255999598652,3,0.55,0.35000000000000003,12.61502,return,1.5872420000378042,,,,,,,,,,,,,,,,,p310,22,female,up_down_width,2025-11-29_08h59.09.380,exp1,2023.1.0,60.01983056327316,
,,,,,,,,,,,,,,,,5,8.6,9.3,10,10.7,11.4,0.7,0.29999999999999993,0.4,3.1999999999999997,10,initial,36.05,310,335,361,386,411,9,9,9,9,9,,,,,,,0,0,0,0,0,35,35,44,,,,,,,,,,,,,,4,0.9969573999987915,4,0.4,0.45,16.21932,return,1.4676620000973344,,,,,,,,,,,,,,,,,p310,22,female,up_down_width,2025-11-29_08h59.09.380,exp1,2023.1.0,60.01983056327316,
,,,,,,,,,,,,,,,,3,7.8,10,12.2,0,0,2.2,1.9500000000000002,0.25,4.65,10,match,36.05,281,361,440,0,0,9,9,9,0,0,,,,,,,0,0,0,0,0,36,36,37,,,,,,,,,,,,,,3,1.1229863000335172,3,0.3,0.3,10.81288,return,1.6211758999852464,,,,,,,,,,,,,,,,,p310,22,female,up_down_width,2025-11-29_08h59.09.380,exp1,2023.1.0,60.01983056327316,
,,,,,,,,,,,,,,,,4,8.95,9.65,10.35,11.05,0,0.7,0.1499999999999999,0.55,2.65,10,initial,36.05,323,348,373,398,0,9,9,9,9,0,,,,,,,0,0,0,0,0,37,37,23,,,,,,,,,,,,,,3,1.8345510000362992,3,0.3,0.49999999999999994,18.02146,return,1.3607998000225052,,,,,,,,,,,,,,,,,p310,22,female,up_down_width,2025-11-29_08h59.09.380,exp1,2023.1.0,60.01983056327316,
,,,,,,,,,,,,,,,,5,8.35,9.175,10,10.825,11.65,0.8250000000000001,0.275,0.55,3.85,10,match,36.05,301,331,361,390,420,9,9,9,9,9,,,,,,,0,0,0,0,0,38,38,18,,,,,,,,,,,,,,5,1.942753899958916,5,0.55,0.4,14.41717,return,1.2395304000237957,,,,,,,,,,,,,,,,,p310,22,female,up_down_width,2025-11-29_08h59.09.380,exp1,2023.1.0,60.01983056327316,
,,,,,,,,,,,,,,,,4,8.95,9.65,10.35,11.05,0,0.7,0.44999999999999996,0.25,2.3499999999999996,10,initial,36.05,323,348,373,398,0,9,9,9,9,0,,,,,,,0,0,0,0,0,39,39,24,,,,,,,,,,,,,,3,2.151011999929324,3,0.5,0.30000000000000004,10.81288,return,1.3926545000867918,,,,,,,,,,,,,,,,,p310,22,female,up_down_width,2025-11-29_08h59.09.380,exp1,2023.1.0,60.01983056327316,
,,,,,,,,,,,,,,,,4,9.1,9.7,10.3,10.9,0,0.6,0.04999999999999997,0.55,2.35,10,match,36.05,328,350,371,393,0,9,9,9,9,0,,,,,,,0,0,0,0,0,40,40,12,,,,,,,,,,,,,,3,1.206195899983868,3,0.25,0.65,23.4279,return,2.2447883000131696,,,,,,,,,,,,,,,,,p310,22,female,up_down_width,2025-11-29_08h59.09.380,exp1,2023.1.0,60.01983056327316,
,,,,,,,,,,,,,,,,4,9.3,9.766666666666667,10.233333333333333,10.7,0,0.4666666666666667,0.21666666666666665,0.25,1.65,10,match,36.05,335,352,369,386,0,9,9,9,9,0,,,,,,,0,0,0,0,0,41,41,8,,,,,,,,,,,,,,3,1.0028570999857038,3,0.25,0.39999999999999997,14.41717,return,1.2506789999315515,,,,,,,,,,,,,,,,,p310,22,female,up_down_width,2025-11-29_08h59.09.380,exp1,2023.1.0,60.01983056327316,
,,,,,,,,,,,,,,,,4,8.35,9.45,10.55,11.65,0,1.1,0.8500000000000001,0.25,3.5500000000000003,10,initial,36.05,301,341,380,420,0,9,9,9,9,0,,,,,,,0,0,0,0,0,42,42,19,,,,,,,,,,,,,,3,1.319281099946238,3,0.25,0.25,9.01073,return,1.201169400010258,,,,,,,,,,,,,,,,,p310,22,female,up_down_width,2025-11-29_08h59.09.380,exp1,2023.1.0,60.01983056327316,
,,,,,,,,,,,,,,,,3,9.1,10,10.9,0,0,0.9,0.5,0.4,2.2,10,initial,36.05,328,361,393,0,0,9,9,9,0,0,,,,,,,0,0,0,0,0,43,43,15,,,,,,,,,,,,,,3,1.1465748000191525,3,0.3,0.39999999999999997,14.41717,return,0.8273580999812111,,,,,,,,,,,,,,,,,p310,22,female,up_down_width,2025-11-29_08h59.09.380,exp1,2023.1.0,60.01983056327316,
,,,,,,,,,,,,,,,,3,9.1,10,10.9,0,0,0.9,0.65,0.25,2.05,10,initial,36.05,328,361,393,0,0,9,9,9,0,0,,,,,,,0,0,0,0,0,44,44,13,,,,,,,,,,,,,,3,0.734611300053075,3,0.55,0.20000000000000007,7.20859,return,3.983092200011015,,,,,,,,,,,,,,,,,p310,22,female,up_down_width,2025-11-29_08h59.09.380,exp1,2023.1.0,60.01983056327316,
,,,,,,,,,,,,,,,,5,8.275,9.1375,10,10.8625,11.725,0.8625,0.6125,0.25,3.7,10,match,36.05,298,329,361,392,423,9,9,9,9,9,,,,,,,0,0,0,0,0,45,45,22,,,,,,,,,,,,,,4,1.2882055999943987,4,0.5,0.20000000000000007,7.20859,return,1.7466258000349626,,,,,,,,,,,,,,,,,p310,22,female,up_down_width,2025-11-29_08h59.09.380,exp1,2023.1.0,60.01983056327316,
,,,,,,,,,,,,,,,,5,8.2,9.1,10,10.9,11.8,0.9,0.35,0.55,4.15,10,initial,36.05,296,328,361,393,425,9,9,9,9,9,,,,,,,0,0,0,0,0,46,46,46,,,,,,,,,,,,,,5,1.6364728000480682,5,0.3,0.49999999999999994,18.02146,return,1.1532472999533638,,,,,,,,,,,,,,,,,p310,22,female,up_down_width,2025-11-29_08h59.09.380,exp1,2023.1.0,60.01983056327316,
,,,,,,,,,,,,,,,,3,9.1,10,10.9,0,0,0.9,0.35,0.55,2.35,10,initial,36.05,328,361,393,0,0,9,9,9,0,0,,,,,,,0,0,0,0,0,47,47,11,,,,,,,,,,,,,,3,1.1750311000505462,3,0.45,0.5,18.02146,return,1.3014733999734744,,,,,,,,,,,,,,,,,p310,22,female,up_down_width,2025-11-29_08h59.09.380,exp1,2023.1.0,60.01983056327316,
,,,,,,,,,,,,,,,,4,8.35,9.45,10.55,11.65,0,1.1,0.55,0.55,3.8500000000000005,10,initial,36.05,301,341,380,420,0,9,9,9,9,0,,,,,,,0,0,0,0,0,48,48,17,,,,,,,,,,,,,,4,1.0673268999671564,4,0.35,0.49999999999999994,18.02146,return,0.9598793999757618,,,,,,,,,,,,,,,,,p310,22,female,up_down_width,2025-11-29_08h59.09.380,exp1,2023.1.0,60.01983056327316,
,,,,,,,,,,,,,,,,5,8.95,9.475,10,10.525,11.05,0.525,0.275,0.25,2.35,10,match,36.05,323,342,361,379,398,9,9,9,9,9,,,,,,,0,0,0,0,0,49,49,25,,,,,,,,,,,,,,4,1.0715509000001475,4,0.45,0.30000000000000004,10.81288,return,1.0608476999914274,,,,,,,,,,,,,,,,,p310,22,female,up_down_width,2025-11-29_08h59.09.380,exp1,2023.1.0,60.01983056327316,
,,,,,,,,,,,,,,,,3,8.9,10,11.1,0,0,1.1,0.8500000000000001,0.25,2.45,10,initial,36.05,321,361,400,0,0,9,9,9,0,0,,,,,,,0,0,0,0,0,50,50,2,,,,,,,,,,,,,,3,1.3934120000340044,3,0.3,0.25,9.01073,return,0.8720883000642061,,,,,,,,,,,,,,,,,p310,22,female,up_down_width,2025-11-29_08h59.09.380,exp1,2023.1.0,60.01983056327316,
,,,,,,,,,,,,,,,,5,8.2,9.1,10,10.9,11.8,0.9,0.5,0.4,4,10,initial,36.05,296,328,361,393,425,9,9,9,9,9,,,,,,,0,0,0,0,0,51,51,50,,,,,,,,,,,,,,4,0.5974573999410495,4,0.3,0.3,10.81288,return,0.9261249999981374,,,,,,,,,,,,,,,,,p310,22,female,up_down_width,2025-11-29_08h59.09.380,exp1,2023.1.0,60.01983056327316,
,,,,,,,,,,,,,,,,,,,,,,,,,,,,,,,,,,,,,,,,,,,,,0,0,0,0,,,,,,,,,,,,,,,,,,,,,,,,,,,,1011.7408095999854,1011.7408095999854,1011.7408095999854,,,,,,,,,,,,p310,22,female,up_down_width,2025-11-29_08h59.09.380,exp1,2023.1.0,60.01983056327316,
,,,,,,,,,,,,,,,,5,7.8,8.9,10,11.1,12.2,1.1,0.55,0.55,4.95,10,initial,36.05,281,321,361,400,440,9,9,9,9,9,,,,,,,1,0,1,0,0,0,0,34,,,,,,,,,,,,,,5,1.1525797999929637,5,0.45,0.5,18.02146,return,0.6738852999405935,,,,,,,,,,,,,,,,,p310,22,female,up_down_width,2025-11-29_08h59.09.380,exp1,2023.1.0,60.01983056327316,
,,,,,,,,,,,,,,,,5,8.65,9.325,10,10.675,11.35,0.675,0.275,0.4,3.1,10,match,36.05,312,336,361,385,409,9,9,9,9,9,,,,,,,1,0,1,0,0,1,1,33,,,,,,,,,,,,,,5,1.117271300056018,5,0.55,0.5,18.02146,return,1.7760111999232322,,,,,,,,,,,,,,,,,p310,22,female,up_down_width,2025-11-29_08h59.09.380,exp1,2023.1.0,60.01983056327316,
,,,,,,,,,,,,,,,,3,9.1,10,10.9,0,0,0.9,0.65,0.25,2.05,10,initial,36.05,328,361,393,0,0,9,9,9,0,0,,,,,,,1,0,1,0,0,2,2,13,,,,,,,,,,,,,,2,1.5139429999981076,2,0.2,0.3,10.81288,return,1.33954369998537,,,,,,,,,,,,,,,,,p310,22,female,up_down_width,2025-11-29_08h59.09.380,exp1,2023.1.0,60.01983056327316,
,,,,,,,,,,,,,,,,4,8.95,9.65,10.35,11.05,0,0.7,0.44999999999999996,0.25,2.3499999999999996,10,initial,36.05,323,348,373,398,0,9,9,9,9,0,,,,,,,1,0,1,0,0,3,3,24,,,,,,,,,,,,,,4,1.344369399943389,4,0.45,0.30000000000000004,10.81288,return,2.632764199981466,,,,,,,,,,,,,,,,,p310,22,female,up_down_width,2025-11-29_08h59.09.380,exp1,2023.1.0,60.01983056327316,
,,,,,,,,,,,,,,,,5,8.6,9.3,10,10.7,11.4,0.7,0.44999999999999996,0.25,3.05,10,initial,36.05,310,335,361,386,411,9,9,9,9,9,,,,,,,1,0,1,0,0,4,4,42,,,,,,,,,,,,,,4,1.3942699000472203,4,0.45,0.25000000000000006,9.01073,return,1.2586875000270084,,,,,,,,,,,,,,,,,p310,22,female,up_down_width,2025-11-29_08h59.09.380,exp1,2023.1.0,60.01983056327316,
,,,,,,,,,,,,,,,,5,8.65,9.325,10,10.675,11.35,0.675,0.125,0.55,3.25,10,match,36.05,312,336,361,385,409,9,9,9,9,9,,,,,,,1,0,1,0,0,5,5,29,,,,,,,,,,,,,,5,1.230758700054139,5,0.25,0.5499999999999999,19.82361,return,1.2770708000753075,,,,,,,,,,,,,,,,,p310,22,female,up_down_width,2025-11-29_08h59.09.380,exp1,2023.1.0,60.01983056327316,
,,,,,,,,,,,,,,,,5,8.2,9.1,10,10.9,11.8,0.9,0.65,0.25,3.85,10,initial,36.05,296,328,361,393,425,9,9,9,9,9,,,,,,,1,0,1,0,0,6,6,48,,,,,,,,,,,,,,5,0.9081189000280574,5,0.25,0.3,10.81288,return,1.1114762000506744,,,,,,,,,,,,,,,,,p310,22,female,up_down_width,2025-11-29_08h59.09.380,exp1,2023.1.0,60.01983056327316,
,,,,,,,,,,,,,,,,4,8.35,9.45,10.55,11.65,0,1.1,0.55,0.55,3.8500000000000005,10,initial,36.05,301,341,380,420,0,9,9,9,9,0,,,,,,,1,0,1,0,0,7,7,17,,,,,,,,,,,,,,4,1.2461057000327855,4,0.4,0.5,18.02146,return,0.9714483000570908,,,,,,,,,,,,,,,,,p310,22,female,up_down_width,2025-11-29_08h59.09.380,exp1,2023.1.0,60.01983056327316,
,,,,,,,,,,,,,,,,5,8.275,9.1375,10,10.8625,11.725,0.8625,0.6125,0.25,3.7,10,match,36.05,298,329,361,392,423,9,9,9,9,9,,,,,,,1,0,1,0,0,8,8,22,,,,,,,,,,,,,,4,1.9580478999996558,4,0.3,0.3,10.81288,return,0.7906835000030696,,,,,,,,,,,,,,,,,p310,22,female,up_down_width,2025-11-29_08h59.09.380,exp1,2023.1.0,60.01983056327316,
,,,,,,,,,,,,,,,,4,9.3,9.766666666666667,10.233333333333333,10.7,0,0.4666666666666667,0.21666666666666665,0.25,1.65,10,match,36.05,335,352,369,386,0,9,9,9,9,0,,,,,,,1,0,1,0,0,9,9,8,,,,,,,,,,,,,,3,1.1747736000688747,3,0.3,0.3,10.81288,return,0.9988512999843806,,,,,,,,,,,,,,,,,p310,22,female,up_down_width,2025-11-29_08h59.09.380,exp1,2023.1.0,60.01983056327316,
,,,,,,,,,,,,,,,,3,9.1,10,10.9,0,0,0.9,0.5,0.4,2.2,10,initial,36.05,328,361,393,0,0,9,9,9,0,0,,,,,,,1,0,1,0,0,10,10,15,,,,,,,,,,,,,,3,0.9255558999720961,3,0.55,0.5,18.02146,return,1.1270641998853534,,,,,,,,,,,,,,,,,p310,22,female,up_down_width,2025-11-29_08h59.09.380,exp1,2023.1.0,60.01983056327316,
,,,,,,,,,,,,,,,,5,8.95,9.475,10,10.525,11.05,0.525,0.275,0.25,2.35,10,match,36.05,323,342,361,379,398,9,9,9,9,9,,,,,,,1,0,1,0,0,11,11,25,,,,,,,,,,,,,,4,0.7953443999867886,4,0.55,0.30000000000000004,10.81288,return,1.4991934000281617,,,,,,,,,,,,,,,,,p310,22,female,up_down_width,2025-11-29_08h59.09.380,exp1,2023.1.0,60.01983056327316,
,,,,,,,,,,,,,,,,3,7.8,10,12.2,0,0,2.2,1.9500000000000002,0.25,4.65,10,match,36.05,281,361,440,0,0,9,9,9,0,0,,,,,,,1,0,1,0,0,12,12,37,,,,,,,,,,,,,,3,1.3237499000970274,3,0.4,0.30000000000000004,10.81288,return,1.4618765000486746,,,,,,,,,,,,,,,,,p310,22,female,up_down_width,2025-11-29_08h59.09.380,exp1,2023.1.0,60.01983056327316,
,,,,,,,,,,,,,,,,4,9.3,9.766666666666667,10.233333333333333,10.7,0,0.4666666666666667,0.06666666666666665,0.4,1.8,10,match,36.05,335,352,369,386,0,9,9,9,9,0,,,,,,,1,0,1,0,0,13,13,10,,,,,,,,,,,,,,3,1.7006930999923497,3,0.45,0.45,16.21932,return,0.7508143000304699,,,,,,,,,,,,,,,,,p310,22,female,up_down_width,2025-11-29_08h59.09.380,exp1,2023.1.0,60.01983056327316,
,,,,,,,,,,,,,,,,5,7.8,8.9,10,11.1,12.2,1.1,0.8500000000000001,0.25,4.65,10,initial,36.05,281,321,361,400,440,9,9,9,9,9,,,,,,,1,0,1,0,0,14,14,36,,,,,,,,,,,,,,4,1.0977191999554634,4,0.25,0.3,10.81288,return,1.884814799996093,,,,,,,,,,,,,,,,,p310,22,female,up_down_width,2025-11-29_08h59.09.380,exp1,2023.1.0,60.01983056327316,
,,,,,,,,,,,,,,,,3,8.9,10,11.1,0,0,1.1,0.8500000000000001,0.25,2.45,10,initial,36.05,321,361,400,0,0,9,9,9,0,0,,,,,,,1,0,1,0,0,15,15,2,,,,,,,,,,,,,,3,0.7634251000126824,3,0.2,0.25,9.01073,return,0.9562147000106052,,,,,,,,,,,,,,,,,p310,22,female,up_down_width,2025-11-29_08h59.09.380,exp1,2023.1.0,60.01983056327316,
,,,,,,,,,,,,,,,,4,8.95,9.65,10.35,11.05,0,0.7,0.1499999999999999,0.55,2.65,10,initial,36.05,323,348,373,398,0,9,9,9,9,0,,,,,,,1,0,1,0,0,16,16,23,,,,,,,,,,,,,,4,1.343598400009796,4,0.4,0.5,18.02146,return,0.8716655001044273,,,,,,,,,,,,,,,,,p310,22,female,up_down_width,2025-11-29_08h59.09.380,exp1,2023.1.0,60.01983056327316,
,,,,,,,,,,,,,,,,5,8.6,9.3,10,10.7,11.4,0.7,0.29999999999999993,0.4,3.1999999999999997,10,initial,36.05,310,335,361,386,411,9,9,9,9,9,,,,,,,1,0,1,0,0,17,17,44,,,,,,,,,,,,,,4,0.6415490000508726,4,0.2,0.39999999999999997,14.41717,return,1.175602399976924,,,,,,,,,,,,,,,,,p310,22,female,up_down_width,2025-11-29_08h59.09.380,exp1,2023.1.0,60.01983056327316,
,,,,,,,,,,,,,,,,3,9.1,10,10.9,0,0,0.9,0.35,0.55,2.35,10,initial,36.05,328,361,393,0,0,9,9,9,0,0,,,,,,,1,0,1,0,0,18,18,11,,,,,,,,,,,,,,3,0.6825654999120161,3,0.5,0.45,16.21932,return,1.085205499897711,,,,,,,,,,,,,,,,,p310,22,female,up_down_width,2025-11-29_08h59.09.380,exp1,2023.1.0,60.01983056327316,
,,,,,,,,,,,,,,,,4,9.1,9.7,10.3,10.9,0,0.6000000000000001,0.20000000000000004,0.4,2.2,10,match,36.05,328,350,371,393,0,9,9,9,9,0,,,,,,,1,0,1,0,0,19,19,16,,,,,,,,,,,,,,4,0.7506252001039684,4,0.55,0.4,14.41717,return,1.5995275999885052,,,,,,,,,,,,,,,,,p310,22,female,up_down_width,2025-11-29_08h59.09.380,exp1,2023.1.0,60.01983056327316,
,,,,,,,,,,,,,,,,5,8.2,9.1,10,10.9,11.8,0.9,0.35,0.55,4.15,10,initial,36.05,296,328,361,393,425,9,9,9,9,9,,,,,,,1,0,1,0,0,20,20,46,,,,,,,,,,,,,,4,1.0906473998911679,4,0.2,0.44999999999999996,16.21932,return,1.3015878999140114,,,,,,,,,,,,,,,,,p310,22,female,up_down_width,2025-11-29_08h59.09.380,exp1,2023.1.0,60.01983056327316,
,,,,,,,,,,,,,,,,4,9.1,9.7,10.3,10.9,0,0.5999999999999999,0.3499999999999999,0.25,2.05,10,match,36.05,328,350,371,393,0,9,9,9,9,0,,,,,,,1,0,1,0,0,21,21,14,,,,,,,,,,,,,,3,1.1088729000184685,3,0.3,0.35,12.61502,return,0.935117100016214,,,,,,,,,,,,,,,,,p310,22,female,up_down_width,2025-11-29_08h59.09.380,exp1,2023.1.0,60.01983056327316,
,,,,,,,,,,,,,,,,3,8.2,10,11.8,0,0,1.8,1.55,0.25,3.85,10,match,36.05,296,361,425,0,0,9,9,9,0,0,,,,,,,1,0,1,0,0,22,22,49,,,,,,,,,,,,,,3,0.9807068000081927,3,0.55,0.05000000000000007,1.80215,return,3.2767931000562385,,,,,,,,,,,,,,,,,p310,22,female,up_down_width,2025-11-29_08h59.09.380,exp1,2023.1.0,60.01983056327316,
,,,,,,,,,,,,,,,,3,9.3,10,10.7,0,0,0.7,0.1499999999999999,0.55,1.95,10,initial,36.05,335,361,386,0,0,9,9,9,0,0,,,,,,,1,0,1,0,0,23,23,6,,,,,,,,,,,,,,3,1.1432738000294194,3,0.55,0.55,19.82361,return,1.3842163999797776,,,,,,,,,,,,,,,,,p310,22,female,up_down_width,2025-11-29_08h59.09.380,exp1,2023.1.0,60.01983056327316,
,,,,,,,,,,,,,,,,3,8.9,10,11.1,0,0,1.1,0.7000000000000001,0.4,2.6000000000000005,10,initial,36.05,321,361,400,0,0,9,9,9,0,0,,,,,,,1,0,1,0,0,24,24,4,,,,,,,,,,,,,,3,0.8048787000589073,3,0.45,0.4,14.41717,return,1.7624039000365883,,,,,,,,,,,,,,,,,p310,22,female,up_down_width,2025-11-29_08h59.09.380,exp1,2023.1.0,60.01983056327316,
,,,,,,,,,,,,,,,,3,8.2,10,11.8,0,0,1.8,1.25,0.55,4.15,10,match,36.05,296,361,425,0,0,9,9,9,0,0,,,,,,,1,0,1,0,0,25,25,47,,,,,,,,,,,,,,3,1.874883099924773,3,0.55,0.6000000000000001,21.62576,return,1.975303400075063,,,,,,,,,,,,,,,,,p310,22,female,up_down_width,2025-11-29_08h59.09.380,exp1,2023.1.0,60.01983056327316,
,,,,,,,,,,,,,,,,5,8.65,9.325,10,10.675,11.35,0.675,0.42500000000000004,0.25,2.95,10,match,36.05,312,336,361,385,409,9,9,9,9,9,,,,,,,1,0,1,0,0,26,26,31,,,,,,,,,,,,,,4,0.777853999985382,4,0.25,0.35,12.61502,return,2.0251059000147507,,,,,,,,,,,,,,,,,p310,22,female,up_down_width,2025-11-29_08h59.09.380,exp1,2023.1.0,60.01983056327316,
,,,,,,,,,,,,,,,,4,8.95,9.65,10.35,11.05,0,0.7,0.29999999999999993,0.4,2.5,10,initial,36.05,323,348,373,398,0,9,9,9,9,0,,,,,,,1,0,1,0,0,27,27,26,,,,,,,,,,,,,,4,0.8913993999594823,4,0.55,0.25000000000000006,9.01073,return,2.182114399969578,,,,,,,,,,,,,,,,,p310,22,female,up_down_width,2025-11-29_08h59.09.380,exp1,2023.1.0,60.01983056327316,
,,,,,,,,,,,,,,,,5,8.35,9.175,10,10.825,11.65,0.825,0.575,0.25,3.55,10,match,36.05,301,331,361,390,420,9,9,9,9,9,,,,,,,1,0,1,0,0,28,28,20,,,,,,,,,,,,,,5,1.2189130999613553,5,0.2,0.25,9.01073,return,0.8654151000082493,,,,,,,,,,,,,,,,,p310,22,female,up_down_width,2025-11-29_08h59.09.380,exp1,2023.1.0,60.01983056327316,
,,,,,,,,,,,,,,,,4,9.1,9.7,10.3,10.9,0,0.6,0.04999999999999997,0.55,2.35,10,match,36.05,328,350,371,393,0,9,9,9,9,0,,,,,,,1,0,1,0,0,29,29,12,,,,,,,,,,,,,,3,0.9659332999726757,3,0.55,0.6000000000000001,21.62576,return,1.6147392999846488,,,,,,,,,,,,,,,,,p310,22,female,up_down_width,2025-11-29_08h59.09.380,exp1,2023.1.0,60.01983056327316,
,,,,,,,,,,,,,,,,4,8.65,9.55,10.45,11.35,0,0.9,0.5,0.4,3.1,10,initial,36.05,312,344,377,409,0,9,9,9,9,0,,,,,,,1,0,1,0,0,30,30,32,,,,,,,,,,,,,,4,0.8494288999354467,4,0.25,0.49999999999999994,18.02146,return,1.7267257999628782,,,,,,,,,,,,,,,,,p310,22,female,up_down_width,2025-11-29_08h59.09.380,exp1,2023.1.0,60.01983056327316,
,,,,,,,,,,,,,,,,3,8.6,10,11.4,0,0,1.4,1.15,0.25,3.05,10,match,36.05,310,361,411,0,0,9,9,9,0,0,,,,,,,1,0,1,0,0,31,31,43,,,,,,,,,,,,,,3,0.5229347000131384,3,0.25,0.3,10.81288,return,0.9009105999721214,,,,,,,,,,,,,,,,,p310,22,female,up_down_width,2025-11-29_08h59.09.380,exp1,2023.1.0,60.01983056327316,
,,,,,,,,,,,,,,,,5,7.8,8.9,10,11.1,12.2,1.1,0.7000000000000001,0.4,4.800000000000001,10,initial,36.05,281,321,361,400,440,9,9,9,9,9,,,,,,,1,0,1,0,0,32,32,38,,,,,,,,,,,,,,5,1.0221423999173567,5,0.3,0.35,12.61502,return,0.9160557000432163,,,,,,,,,,,,,,,,,p310,22,female,up_down_width,2025-11-29_08h59.09.380,exp1,2023.1.0,60.01983056327316,
,,,,,,,,,,,,,,,,4,8.35,9.45,10.55,11.65,0,1.1,0.8500000000000001,0.25,3.5500000000000003,10,initial,36.05,301,341,380,420,0,9,9,9,9,0,,,,,,,1,0,1,0,0,33,33,19,,,,,,,,,,,,,,4,0.5629995999624953,4,0.5,0.10000000000000007,3.60429,return,2.315462699974887,,,,,,,,,,,,,,,,,p310,22,female,up_down_width,2025-11-29_08h59.09.380,exp1,2023.1.0,60.01983056327316,
,,,,,,,,,,,,,,,,4,8.825,9.608333333333333,10.391666666666667,11.175,0,0.7833333333333333,0.5333333333333333,0.25,2.6,10,match,36.05,318,346,375,403,0,9,9,9,9,0,,,,,,,1,0,1,0,0,34,34,5,,,,,,,,,,,,,,4,0.8877500999951735,4,0.5,0.20000000000000007,7.20859,return,2.019442900083959,,,,,,,,,,,,,,,,,p310,22,female,up_down_width,2025-11-29_08h59.09.380,exp1,2023.1.0,60.01983056327316,
,,,,,,,,,,,,,,,,3,9.3,10,10.7,0,0,0.7,0.44999999999999996,0.25,1.65,10,initial,36.05,335,361,386,0,0,9,9,9,0,0,,,,,,,1,0,1,0,0,35,35,7,,,,,,,,,,,,,,3,1.5468140000011772,3,0.25,0.25,9.01073,return,2.7955661000451073,,,,,,,,,,,,,,,,,p310,22,female,up_down_width,2025-11-29_08h59.09.380,exp1,2023.1.0,60.01983056327316,
,,,,,,,,,,,,,,,,3,8.2,10,11.8,0,0,1.7999999999999998,1.4,0.4,4,10,match,36.05,296,361,425,0,0,9,9,9,0,0,,,,,,,1,0,1,0,0,36,36,51,,,,,,,,,,,,,,3,0.772215100005269,3,0.3,0.44999999999999996,16.21932,return,1.6512601000722498,,,,,,,,,,,,,,,,,p310,22,female,up_down_width,2025-11-29_08h59.09.380,exp1,2023.1.0,60.01983056327316,
,,,,,,,,,,,,,,,,5,8.35,9.175,10,10.825,11.65,0.8250000000000001,0.275,0.55,3.85,10,match,36.05,301,331,361,390,420,9,9,9,9,9,,,,,,,1,0,1,0,0,37,37,18,,,,,,,,,,,,,,4,0.9467725000577047,4,0.45,0.55,19.82361,return,1.3715811999281868,,,,,,,,,,,,,,,,,p310,22,female,up_down_width,2025-11-29_08h59.09.380,exp1,2023.1.0,60.01983056327316,
,,,,,,,,,,,,,,,,3,8.9,10,11.1,0,0,1.1,0.55,0.55,2.75,10,initial,36.05,321,361,400,0,0,9,9,9,0,0,,,,,,,1,0,1,0,0,38,38,0,,,,,,,,,,,,,,3,0.7426941000157967,3,0.2,0.49999999999999994,18.02146,return,1.703580699977465,,,,,,,,,,,,,,,,,p310,22,female,up_down_width,2025-11-29_08h59.09.380,exp1,2023.1.0,60.01983056327316,
,,,,,,,,,,,,,,,,4,8.9,9.633333333333333,10.366666666666667,11.1,0,0.7333333333333334,0.4833333333333334,0.25,2.45,10,match,36.05,321,347,374,400,0,9,9,9,9,0,,,,,,,1,0,1,0,0,39,39,3,,,,,,,,,,,,,,3,1.5488179998937994,3,0.25,0.25,9.01073,return,0.7013018999714404,,,,,,,,,,,,,,,,,p310,22,female,up_down_width,2025-11-29_08h59.09.380,exp1,2023.1.0,60.01983056327316,
,,,,,,,,,,,,,,,,4,8.65,9.55,10.45,11.35,0,0.9,0.35,0.55,3.25,10,initial,36.05,312,344,377,409,0,9,9,9,9,0,,,,,,,1,0,1,0,0,40,40,28,,,,,,,,,,,,,,3,0.8902154000243172,3,0.45,0.5,18.02146,return,0.7428215999389067,,,,,,,,,,,,,,,,,p310,22,female,up_down_width,2025-11-29_08h59.09.380,exp1,2023.1.0,60.01983056327316,
,,,,,,,,,,,,,,,,5,8.95,9.475,10,10.525,11.05,0.525,0.125,0.4,2.5,10,match,36.05,323,342,361,379,398,9,9,9,9,9,,,,,,,1,0,1,0,0,41,41,27,,,,,,,,,,,,,,5,2.001707599963993,5,0.3,0.44999999999999996,16.21932,return,1.0080674999626353,,,,,,,,,,,,,,,,,p310,22,female,up_down_width,2025-11-29_08h59.09.380,exp1,2023.1.0,60.01983056327316,
,,,,,,,,,,,,,,,,3,8.6,10,11.4,0,0,1.4,0.85,0.55,3.35,10,match,36.05,310,361,411,0,0,9,9,9,0,0,,,,,,,1,0,1,0,0,42,42,41,,,,,,,,,,,,,,4,1.2107362999813631,4,0.2,0.49999999999999994,18.02146,return,1.48217700002715,,,,,,,,,,,,,,,,,p310,22,female,up_down_width,2025-11-29_08h59.09.380,exp1,2023.1.0,60.01983056327316,
,,,,,,,,,,,,,,,,3,7.8,10,12.2,0,0,2.2,1.65,0.55,4.95,10,match,36.05,281,361,440,0,0,9,9,9,0,0,,,,,,,1,0,1,0,0,43,43,35,,,,,,,,,,,,,,3,1.3197049000300467,3,0.55,0.55,19.82361,return,1.6807750000152737,,,,,,,,,,,,,,,,,p310,22,female,up_down_width,2025-11-29_08h59.09.380,exp1,2023.1.0,60.01983056327316,
,,,,,,,,,,,,,,,,4,8.9,9.633333333333333,10.366666666666667,11.1,0,0.7333333333333333,0.18333333333333326,0.55,2.75,10,match,36.05,321,347,374,400,0,9,9,9,9,0,,,,,,,1,0,1,0,0,44,44,1,,,,,,,,,,,,,,4,0.8346561000216752,4,0.45,0.55,19.82361,return,0.8799263999098912,,,,,,,,,,,,,,,,,p310,22,female,up_down_width,2025-11-29_08h59.09.380,exp1,2023.1.0,60.01983056327316,
,,,,,,,,,,,,,,,,3,8.525,10,11.475,0,0,1.475,1.225,0.25,3.2,10,match,36.05,307,361,414,0,0,9,9,9,0,0,,,,,,,1,0,1,0,0,45,45,45,,,,,,,,,,,,,,2,1.8006915000732988,2,0.25,0.25,9.01073,return,0.6394659999059513,,,,,,,,,,,,,,,,,p310,22,female,up_down_width,2025-11-29_08h59.09.380,exp1,2023.1.0,60.01983056327316,
,,,,,,,,,,,,,,,,4,8.65,9.55,10.45,11.35,0,0.9,0.65,0.25,2.95,10,initial,36.05,312,344,377,409,0,9,9,9,9,0,,,,,,,1,0,1,0,0,46,46,30,,,,,,,,,,,,,,2,0.9942390999058262,2,0.4,0.20000000000000007,7.20859,return,1.4655746000353247,,,,,,,,,,,,,,,,,p310,22,female,up_down_width,2025-11-29_08h59.09.380,exp1,2023.1.0,60.01983056327316,
,,,,,,,,,,,,,,,,3,9.3,10,10.7,0,0,0.7,0.29999999999999993,0.4,1.8,10,initial,36.05,335,361,386,0,0,9,9,9,0,0,,,,,,,1,0,1,0,0,47,47,9,,,,,,,,,,,,,,2,0.60143329994753,2,0.4,0.4,14.41717,return,0.5755065999692306,,,,,,,,,,,,,,,,,p310,22,female,up_down_width,2025-11-29_08h59.09.380,exp1,2023.1.0,60.01983056327316,
,,,,,,,,,,,,,,,,4,8.35,9.45,10.55,11.65,0,1.1,0.7000000000000001,0.4,3.7,10,initial,36.05,301,341,380,420,0,9,9,9,9,0,,,,,,,1,0,1,0,0,48,48,21,,,,,,,,,,,,,,4,0.6449049999937415,4,0.4,0.35000000000000003,12.61502,return,1.1462750000646338,,,,,,,,,,,,,,,,,p310,22,female,up_down_width,2025-11-29_08h59.09.380,exp1,2023.1.0,60.01983056327316,
,,,,,,,,,,,,,,,,5,8.6,9.3,10,10.7,11.4,0.7,0.1499999999999999,0.55,3.3499999999999996,10,initial,36.05,310,335,361,386,411,9,9,9,9,9,,,,,,,1,0,1,0,0,49,49,40,,,,,,,,,,,,,,4,0.6661231000907719,4,0.55,0.5,18.02146,return,1.134567999979481,,,,,,,,,,,,,,,,,p310,22,female,up_down_width,2025-11-29_08h59.09.380,exp1,2023.1.0,60.01983056327316,
,,,,,,,,,,,,,,,,3,7.800000000000001,10,12.2,0,0,2.1999999999999997,1.7999999999999998,0.4,4.8,10,match,36.05,281,361,440,0,0,9,9,9,0,0,,,,,,,1,0,1,0,0,50,50,39,,,,,,,,,,,,,,3,0.9707845998927951,3,0.45,0.35000000000000003,12.61502,return,1.0907048999797553,,,,,,,,,,,,,,,,,p310,22,female,up_down_width,2025-11-29_08h59.09.380,exp1,2023.1.0,60.01983056327316,
,,,,,,,,,,,,,,,,5,8.2,9.1,10,10.9,11.8,0.9,0.5,0.4,4,10,initial,36.05,296,328,361,393,425,9,9,9,9,9,,,,,,,1,0,1,0,0,51,51,50,,,,,,,,,,,,,,4,0.7788629999849945,4,0.3,0.35,12.61502,return,1.0507341000484303,,,,,,,,,,,,,,,,,p310,22,female,up_down_width,2025-11-29_08h59.09.380,exp1,2023.1.0,60.01983056327316,
,,,,,,,,,,,,,,,,,,,,,,,,,,,,,,,,,,,,,,,,,,,,,1,0,1,0,,,,,,,,,,,,,,,,,,,,,,,,,,,,1236.3408766000066,1236.3408766000066,1236.3408766000066,,,,,,,,,,,,p310,22,female,up_down_width,2025-11-29_08h59.09.380,exp1,2023.1.0,60.01983056327316,
,,,,,,,,,,,,,,,,5,7.8,8.9,10,11.1,12.2,1.1,0.55,0.55,4.95,10,initial,36.05,281,321,361,400,440,9,9,9,9,9,,,,,,,2,0,2,0,0,0,0,34,,,,,,,,,,,,,,4,1.1908646000083536,4,0.3,0.44999999999999996,16.21932,return,2.486018000054173,,,,,,,,,,,,,,,,,p310,22,female,up_down_width,2025-11-29_08h59.09.380,exp1,2023.1.0,60.01983056327316,
,,,,,,,,,,,,,,,,3,9.1,10,10.9,0,0,0.9,0.35,0.55,2.35,10,initial,36.05,328,361,393,0,0,9,9,9,0,0,,,,,,,2,0,2,0,0,1,1,11,,,,,,,,,,,,,,2,1.0196752999909222,2,0.55,0.6000000000000001,21.62576,return,1.008942099986598,,,,,,,,,,,,,,,,,p310,22,female,up_down_width,2025-11-29_08h59.09.380,exp1,2023.1.0,60.01983056327316,
,,,,,,,,,,,,,,,,5,8.65,9.325,10,10.675,11.35,0.675,0.275,0.4,3.1,10,match,36.05,312,336,361,385,409,9,9,9,9,9,,,,,,,2,0,2,0,0,2,2,33,,,,,,,,,,,,,,5,1.1996785000665113,5,0.3,0.39999999999999997,14.41717,return,1.0398353000637144,,,,,,,,,,,,,,,,,p310,22,female,up_down_width,2025-11-29_08h59.09.380,exp1,2023.1.0,60.01983056327316,
,,,,,,,,,,,,,,,,5,7.8,8.9,10,11.1,12.2,1.1,0.7000000000000001,0.4,4.800000000000001,10,initial,36.05,281,321,361,400,440,9,9,9,9,9,,,,,,,2,0,2,0,0,3,3,38,,,,,,,,,,,,,,4,0.9267961999867111,4,0.35,0.39999999999999997,14.41717,return,0.6812889999710023,,,,,,,,,,,,,,,,,p310,22,female,up_down_width,2025-11-29_08h59.09.380,exp1,2023.1.0,60.01983056327316,
,,,,,,,,,,,,,,,,4,8.95,9.65,10.35,11.05,0,0.7,0.29999999999999993,0.4,2.5,10,initial,36.05,323,348,373,398,0,9,9,9,9,0,,,,,,,2,0,2,0,0,4,4,26,,,,,,,,,,,,,,4,0.6935573000228032,4,0.3,0.35,12.61502,return,0.9359638000605628,,,,,,,,,,,,,,,,,p310,22,female,up_down_width,2025-11-29_08h59.09.380,exp1,2023.1.0,60.01983056327316,
,,,,,,,,,,,,,,,,5,8.6,9.3,10,10.7,11.4,0.7,0.44999999999999996,0.25,3.05,10,initial,36.05,310,335,361,386,411,9,9,9,9,9,,,,,,,2,0,2,0,0,5,5,42,,,,,,,,,,,,,,4,0.5397600999567658,4,0.55,0.20000000000000007,7.20859,return,3.413507299963385,,,,,,,,,,,,,,,,,p310,22,female,up_down_width,2025-11-29_08h59.09.380,exp1,2023.1.0,60.01983056327316,
,,,,,,,,,,,,,,,,4,9.1,9.7,10.3,10.9,0,0.6000000000000001,0.20000000000000004,0.4,2.2,10,match,36.05,328,350,371,393,0,9,9,9,9,0,,,,,,,2,0,2,0,0,6,6,16,,,,,,,,,,,,,,4,0.6663885000161827,4,0.25,0.35,12.61502,return,0.8787312000058591,,,,,,,,,,,,,,,,,p310,22,female,up_down_width,2025-11-29_08h59.09.380,exp1,2023.1.0,60.01983056327316,
,,,,,,,,,,,,,,,,4,8.35,9.45,10.55,11.65,0,1.1,0.8500000000000001,0.25,3.5500000000000003,10,initial,36.05,301,341,380,420,0,9,9,9,9,0,,,,,,,2,0,2,0,0,7,7,19,,,,,,,,,,,,,,4,1.1481105000711977,4,0.2,0.2,7.20859,return,1.2608333000680432,,,,,,,,,,,,,,,,,p310,22,female,up_down_width,2025-11-29_08h59.09.380,exp1,2023.1.0,60.01983056327316,
,,,,,,,,,,,,,,,,4,8.95,9.65,10.35,11.05,0,0.7,0.44999999999999996,0.25,2.3499999999999996,10,initial,36.05,323,348,373,398,0,9,9,9,9,0,,,,,,,2,0,2,0,0,8,8,24,,,,,,,,,,,,,,4,0.49419640004634857,4,0.25,0.25,9.01073,return,0.6979418999981135,,,,,,,,,,,,,,,,,p310,22,female,up_down_width,2025-11-29_08h59.09.380,exp1,2023.1.0,60.01983056327316,
,,,,,,,,,,,,,,,,5,8.65,9.325,10,10.675,11.35,0.675,0.125,0.55,3.25,10,match,36.05,312,336,361,385,409,9,9,9,9,9,,,,,,,2,0,2,0,0,9,9,29,,,,,,,,,,,,,,4,1.9151924999896437,4,0.2,0.49999999999999994,18.02146,return,1.2782257000217214,,,,,,,,,,,,,,,,,p310,22,female,up_down_width,2025-11-29_08h59.09.380,exp1,2023.1.0,60.01983056327316,
,,,,,,,,,,,,,,,,3,8.2,10,11.8,0,0,1.7999999999999998,1.4,0.4,4,10,match,36.05,296,361,425,0,0,9,9,9,0,0,,,,,,,2,0,2,0,0,10,10,51,,,,,,,,,,,,,,3,1.3901244999142364,3,0.4,0.4,14.41717,return,0.6450588000006974,,,,,,,,,,,,,,,,,p310,22,female,up_down_width,2025-11-29_08h59.09.380,exp1,2023.1.0,60.01983056327316,
,,,,,,,,,,,,,,,,5,8.2,9.1,10,10.9,11.8,0.9,0.35,0.55,4.15,10,initial,36.05,296,328,361,393,425,9,9,9,9,9,,,,,,,2,0,2,0,0,11,11,46,,,,,,,,,,,,,,4,0.9614872999954969,4,0.25,0.44999999999999996,16.21932,return,1.115751100005582,,,,,,,,,,,,,,,,,p310,22,female,up_down_width,2025-11-29_08h59.09.380,exp1,2023.1.0,60.01983056327316,
,,,,,,,,,,,,,,,,3,7.8,10,12.2,0,0,2.2,1.65,0.55,4.95,10,match,36.05,281,361,440,0,0,9,9,9,0,0,,,,,,,2,0,2,0,0,12,12,35,,,,,,,,,,,,,,3,1.0228289000224322,3,0.3,0.6,21.62576,return,1.157545900088735,,,,,,,,,,,,,,,,,p310,22,female,up_down_width,2025-11-29_08h59.09.380,exp1,2023.1.0,60.01983056327316,
,,,,,,,,,,,,,,,,5,8.65,9.325,10,10.675,11.35,0.675,0.42500000000000004,0.25,2.95,10,match,36.05,312,336,361,385,409,9,9,9,9,9,,,,,,,2,0,2,0,0,13,13,31,,,,,,,,,,,,,,4,0.5288804000010714,4,0.25,0.35,12.61502,return,1.4829375999979675,,,,,,,,,,,,,,,,,p310,22,female,up_down_width,2025-11-29_08h59.09.380,exp1,2023.1.0,60.01983056327316,
,,,,,,,,,,,,,,,,4,8.9,9.633333333333333,10.366666666666667,11.1,0,0.7333333333333333,0.18333333333333326,0.55,2.75,10,match,36.05,321,347,374,400,0,9,9,9,9,0,,,,,,,2,0,2,0,0,14,14,1,,,,,,,,,,,,,,3,0.7644367000320926,3,0.55,0.6000000000000001,21.62576,return,0.8292692999821156,,,,,,,,,,,,,,,,,p310,22,female,up_down_width,2025-11-29_08h59.09.380,exp1,2023.1.0,60.01983056327316,
,,,,,,,,,,,,,,,,3,7.800000000000001,10,12.2,0,0,2.1999999999999997,1.7999999999999998,0.4,4.8,10,match,36.05,281,361,440,0,0,9,9,9,0,0,,,,,,,2,0,2,0,0,15,15,39,,,,,,,,,,,,,,3,0.5169023999478668,3,0.25,0.35,12.61502,return,0.7988885999657214,,,,,,,,,,,,,,,,,p310,22,female,up_down_width,2025-11-29_08h59.09.380,exp1,2023.1.0,60.01983056327316,
,,,,,,,,,,,,,,,,4,9.3,9.766666666666667,10.233333333333333,10.7,0,0.4666666666666667,0.06666666666666665,0.4,1.8,10,match,36.05,335,352,369,386,0,9,9,9,9,0,,,,,,,2,0,2,0,0,16,16,10,,,,,,,,,,,,,,3,1.7090204999549314,3,0.55,0.6000000000000001,21.62576,return,0.5676430000457913,,,,,,,,,,,,,,,,,p310,22,female,up_down_width,2025-11-29_08h59.09.380,exp1,2023.1.0,60.01983056327316,
,,,,,,,,,,,,,,,,4,8.9,9.633333333333333,10.366666666666667,11.1,0,0.7333333333333334,0.4833333333333334,0.25,2.45,10,match,36.05,321,347,374,400,0,9,9,9,9,0,,,,,,,2,0,2,0,0,17,17,3,,,,,,,,,,,,,,3,0.9646264999173582,3,0.35,0.35,12.61502,return,0.9722346999915317,,,,,,,,,,,,,,,,,p310,22,female,up_down_width,2025-11-29_08h59.09.380,exp1,2023.1.0,60.01983056327316,
,,,,,,,,,,,,,,,,5,8.95,9.475,10,10.525,11.05,0.525,0.125,0.4,2.5,10,match,36.05,323,342,361,379,398,9,9,9,9,9,,,,,,,2,0,2,0,0,18,18,27,,,,,,,,,,,,,,4,0.6212203000904992,4,0.35,0.39999999999999997,14.41717,return,0.6427688000258058,,,,,,,,,,,,,,,,,p310,22,female,up_down_width,2025-11-29_08h59.09.380,exp1,2023.1.0,60.01983056327316,
,,,,,,,,,,,,,,,,4,8.65,9.55,10.45,11.35,0,0.9,0.35,0.55,3.25,10,initial,36.05,312,344,377,409,0,9,9,9,9,0,,,,,,,2,0,2,0,0,19,19,28,,,,,,,,,,,,,,4,0.8748349000234157,4,0.5,0.5,18.02146,return,1.1896814000792801,,,,,,,,,,,,,,,,,p310,22,female,up_down_width,2025-11-29_08h59.09.380,exp1,2023.1.0,60.01983056327316,
,,,,,,,,,,,,,,,,4,8.65,9.55,10.45,11.35,0,0.9,0.5,0.4,3.1,10,initial,36.05,312,344,377,409,0,9,9,9,9,0,,,,,,,2,0,2,0,0,20,20,32,,,,,,,,,,,,,,4,0.6382530999835581,4,0.5,0.45,16.21932,return,0.8662302000448108,,,,,,,,,,,,,,,,,p310,22,female,up_down_width,2025-11-29_08h59.09.380,exp1,2023.1.0,60.01983056327316,
,,,,,,,,,,,,,,,,3,8.2,10,11.8,0,0,1.8,1.55,0.25,3.85,10,match,36.05,296,361,425,0,0,9,9,9,0,0,,,,,,,2,0,2,0,0,21,21,49,,,,,,,,,,,,,,3,0.7560920000541955,3,0.25,0.3,10.81288,return,0.8679391000187024,,,,,,,,,,,,,,,,,p310,22,female,up_down_width,2025-11-29_08h59.09.380,exp1,2023.1.0,60.01983056327316,
,,,,,,,,,,,,,,,,5,8.275,9.1375,10,10.8625,11.725,0.8625,0.6125,0.25,3.7,10,match,36.05,298,329,361,392,423,9,9,9,9,9,,,,,,,2,0,2,0,0,22,22,22,,,,,,,,,,,,,,5,0.9391414999263361,5,0.25,0.25,9.01073,return,0.6447713999077678,,,,,,,,,,,,,,,,,p310,22,female,up_down_width,2025-11-29_08h59.09.380,exp1,2023.1.0,60.01983056327316,
,,,,,,,,,,,,,,,,3,8.9,10,11.1,0,0,1.1,0.55,0.55,2.75,10,initial,36.05,321,361,400,0,0,9,9,9,0,0,,,,,,,2,0,2,0,0,23,23,0,,,,,,,,,,,,,,3,0.7696430999785662,3,0.4,0.45,16.21932,return,1.2654502000659704,,,,,,,,,,,,,,,,,p310,22,female,up_down_width,2025-11-29_08h59.09.380,exp1,2023.1.0,60.01983056327316,
,,,,,,,,,,,,,,,,5,8.2,9.1,10,10.9,11.8,0.9,0.5,0.4,4,10,initial,36.05,296,328,361,393,425,9,9,9,9,9,,,,,,,2,0,2,0,0,24,24,50,,,,,,,,,,,,,,5,0.9607817999785766,5,0.4,0.4,14.41717,return,1.0322425999911502,,,,,,,,,,,,,,,,,p310,22,female,up_down_width,2025-11-29_08h59.09.380,exp1,2023.1.0,60.01983056327316,
,,,,,,,,,,,,,,,,5,8.6,9.3,10,10.7,11.4,0.7,0.29999999999999993,0.4,3.1999999999999997,10,initial,36.05,310,335,361,386,411,9,9,9,9,9,,,,,,,2,0,2,0,0,25,25,44,,,,,,,,,,,,,,4,0.5932223000563681,4,0.25,0.44999999999999996,16.21932,return,1.4013351999456063,,,,,,,,,,,,,,,,,p310,22,female,up_down_width,2025-11-29_08h59.09.380,exp1,2023.1.0,60.01983056327316,
,,,,,,,,,,,,,,,,3,9.1,10,10.9,0,0,0.9,0.65,0.25,2.05,10,initial,36.05,328,361,393,0,0,9,9,9,0,0,,,,,,,2,0,2,0,0,26,26,13,,,,,,,,,,,,,,3,0.8555202001007274,3,0.25,0.25,9.01073,return,0.7876383999828249,,,,,,,,,,,,,,,,,p310,22,female,up_down_width,2025-11-29_08h59.09.380,exp1,2023.1.0,60.01983056327316,
,,,,,,,,,,,,,,,,5,8.2,9.1,10,10.9,11.8,0.9,0.65,0.25,3.85,10,initial,36.05,296,328,361,393,425,9,9,9,9,9,,,,,,,2,0,2,0,0,27,27,48,,,,,,,,,,,,,,5,0.7593686999753118,5,0.55,0.25000000000000006,9.01073,return,1.9594306000508368,,,,,,,,,,,,,,,,,p310,22,female,up_down_width,2025-11-29_08h59.09.380,exp1,2023.1.0,60.01983056327316,
,,,,,,,,,,,,,,,,3,8.6,10,11.4,0,0,1.4,0.85,0.55,3.35,10,match,36.05,310,361,411,0,0,9,9,9,0,0,,,,,,,2,0,2,0,0,28,28,41,,,,,,,,,,,,,,3,0.730779999983497,3,0.45,0.55,19.82361,return,0.8115926999598742,,,,,,,,,,,,,,,,,p310,22,female,up_down_width,2025-11-29_08h59.09.380,exp1,2023.1.0,60.01983056327316,
,,,,,,,,,,,,,,,,3,8.9,10,11.1,0,0,1.1,0.8500000000000001,0.25,2.45,10,initial,36.05,321,361,400,0,0,9,9,9,0,0,,,,,,,2,0,2,0,0,29,29,2,,,,,,,,,,,,,,3,0.5211060999426991,3,0.35,0.25,9.01073,return,1.2675518000032753,,,,,,,,,,,,,,,,,p310,22,female,up_down_width,2025-11-29_08h59.09.380,exp1,2023.1.0,60.01983056327316,
,,,,,,,,,,,,,,,,3,9.3,10,10.7,0,0,0.7,0.1499999999999999,0.55,1.95,10,initial,36.05,335,361,386,0,0,9,9,9,0,0,,,,,,,2,0,2,0,0,30,30,6,,,,,,,,,,,,,,2,1.0923242999706417,2,0.5,0.55,19.82361,return,0.9675492999376729,,,,,,,,,,,,,,,,,p310,22,female,up_down_width,2025-11-29_08h59.09.380,exp1,2023.1.0,60.01983056327316,
,,,,,,,,,,,,,,,,3,9.3,10,10.7,0,0,0.7,0.44999999999999996,0.25,1.65,10,initial,36.05,335,361,386,0,0,9,9,9,0,0,,,,,,,2,0,2,0,0,31,31,7,,,,,,,,,,,,,,2,0.7374620999908075,2,0.2,0.3,10.81288,return,1.4107175000244752,,,,,,,,,,,,,,,,,p310,22,female,up_down_width,2025-11-29_08h59.09.380,exp1,2023.1.0,60.01983056327316,
,,,,,,,,,,,,,,,,3,7.8,10,12.2,0,0,2.2,1.9500000000000002,0.25,4.65,10,match,36.05,281,361,440,0,0,9,9,9,0,0,,,,,,,2,0,2,0,0,32,32,37,,,,,,,,,,,,,,3,0.603586700046435,3,0.3,0.25,9.01073,return,1.2024722000351176,,,,,,,,,,,,,,,,,p310,22,female,up_down_width,2025-11-29_08h59.09.380,exp1,2023.1.0,60.01983056327316,
,,,,,,,,,,,,,,,,4,8.35,9.45,10.55,11.65,0,1.1,0.7000000000000001,0.4,3.7,10,initial,36.05,301,341,380,420,0,9,9,9,9,0,,,,,,,2,0,2,0,0,33,33,21,,,,,,,,,,,,,,4,1.0915523000294343,4,0.45,0.25000000000000006,9.01073,return,1.55884439998772,,,,,,,,,,,,,,,,,p310,22,female,up_down_width,2025-11-29_08h59.09.380,exp1,2023.1.0,60.01983056327316,
,,,,,,,,,,,,,,,,5,8.35,9.175,10,10.825,11.65,0.8250000000000001,0.275,0.55,3.85,10,match,36.05,301,331,361,390,420,9,9,9,9,9,,,,,,,2,0,2,0,0,34,34,18,,,,,,,,,,,,,,4,0.8048970999661833,4,0.35,0.5499999999999999,19.82361,return,1.1243329000426456,,,,,,,,,,,,,,,,,p310,22,female,up_down_width,2025-11-29_08h59.09.380,exp1,2023.1.0,60.01983056327316,
,,,,,,,,,,,,,,,,3,8.6,10,11.4,0,0,1.4,1.15,0.25,3.05,10,match,36.05,310,361,411,0,0,9,9,9,0,0,,,,,,,2,0,2,0,0,35,35,43,,,,,,,,,,,,,,3,0.5686255999607965,3,0.35,0.3,10.81288,return,0.9441260999301448,,,,,,,,,,,,,,,,,p310,22,female,up_down_width,2025-11-29_08h59.09.380,exp1,2023.1.0,60.01983056327316,
,,,,,,,,,,,,,,,,4,8.95,9.65,10.35,11.05,0,0.7,0.1499999999999999,0.55,2.65,10,initial,36.05,323,348,373,398,0,9,9,9,9,0,,,,,,,2,0,2,0,0,36,36,23,,,,,,,,,,,,,,3,0.8813823000527918,3,0.55,0.6000000000000001,21.62576,return,0.7802495999494568,,,,,,,,,,,,,,,,,p310,22,female,up_down_width,2025-11-29_08h59.09.380,exp1,2023.1.0,60.01983056327316,
,,,,,,,,,,,,,,,,5,8.35,9.175,10,10.825,11.65,0.825,0.575,0.25,3.55,10,match,36.05,301,331,361,390,420,9,9,9,9,9,,,,,,,2,0,2,0,0,37,37,20,,,,,,,,,,,,,,4,0.6735368000809103,4,0.45,0.25000000000000006,9.01073,return,1.6845638999948278,,,,,,,,,,,,,,,,,p310,22,female,up_down_width,2025-11-29_08h59.09.380,exp1,2023.1.0,60.01983056327316,
,,,,,,,,,,,,,,,,5,8.6,9.3,10,10.7,11.4,0.7,0.1499999999999999,0.55,3.3499999999999996,10,initial,36.05,310,335,361,386,411,9,9,9,9,9,,,,,,,2,0,2,0,0,38,38,40,,,,,,,,,,,,,,3,0.7828652000753209,3,0.25,0.65,23.4279,return,2.159548999974504,,,,,,,,,,,,,,,,,p310,22,female,up_down_width,2025-11-29_08h59.09.380,exp1,2023.1.0,60.01983056327316,
,,,,,,,,,,,,,,,,4,9.3,9.766666666666667,10.233333333333333,10.7,0,0.4666666666666667,0.21666666666666665,0.25,1.65,10,match,36.05,335,352,369,386,0,9,9,9,9,0,,,,,,,2,0,2,0,0,39,39,8,,,,,,,,,,,,,,3,0.9340755000011995,3,0.45,0.25000000000000006,9.01073,return,1.8063379999948665,,,,,,,,,,,,,,,,,p310,22,female,up_down_width,2025-11-29_08h59.09.380,exp1,2023.1.0,60.01983056327316,
,,,,,,,,,,,,,,,,3,8.2,10,11.8,0,0,1.8,1.25,0.55,4.15,10,match,36.05,296,361,425,0,0,9,9,9,0,0,,,,,,,2,0,2,0,0,40,40,47,,,,,,,,,,,,,,3,0.7509929001098499,3,0.5,0.7500000000000002,27.0322,return,1.824568699928932,,,,,,,,,,,,,,,,,p310,22,female,up_down_width,2025-11-29_08h59.09.380,exp1,2023.1.0,60.01983056327316,
,,,,,,,,,,,,,,,,4,8.35,9.45,10.55,11.65,0,1.1,0.55,0.55,3.8500000000000005,10,initial,36.05,301,341,380,420,0,9,9,9,9,0,,,,,,,2,0,2,0,0,41,41,17,,,,,,,,,,,,,,3,0.8090612998930737,3,0.5,0.7000000000000002,25.23005,return,1.1437201999360695,,,,,,,,,,,,,,,,,p310,22,female,up_down_width,2025-11-29_08h59.09.380,exp1,2023.1.0,60.01983056327316,
,,,,,,,,,,,,,,,,4,8.65,9.55,10.45,11.35,0,0.9,0.65,0.25,2.95,10,initial,36.05,312,344,377,409,0,9,9,9,9,0,,,,,,,2,0,2,0,0,42,42,30,,,,,,,,,,,,,,3,0.6405229000374675,3,0.45,0.20000000000000007,7.20859,return,1.4134190999902785,,,,,,,,,,,,,,,,,p310,22,female,up_down_width,2025-11-29_08h59.09.380,exp1,2023.1.0,60.01983056327316,
,,,,,,,,,,,,,,,,5,7.8,8.9,10,11.1,12.2,1.1,0.8500000000000001,0.25,4.65,10,initial,36.05,281,321,361,400,440,9,9,9,9,9,,,,,,,2,0,2,0,0,43,43,36,,,,,,,,,,,,,,5,0.9811041000066325,5,0.25,0.2,7.20859,return,1.6769960999954492,,,,,,,,,,,,,,,,,p310,22,female,up_down_width,2025-11-29_08h59.09.380,exp1,2023.1.0,60.01983056327316,
,,,,,,,,,,,,,,,,5,8.95,9.475,10,10.525,11.05,0.525,0.275,0.25,2.35,10,match,36.05,323,342,361,379,398,9,9,9,9,9,,,,,,,2,0,2,0,0,44,44,25,,,,,,,,,,,,,,4,0.7789557999931276,4,0.55,0.25000000000000006,9.01073,return,1.8184894000878558,,,,,,,,,,,,,,,,,p310,22,female,up_down_width,2025-11-29_08h59.09.380,exp1,2023.1.0,60.01983056327316,
,,,,,,,,,,,,,,,,3,9.3,10,10.7,0,0,0.7,0.29999999999999993,0.4,1.8,10,initial,36.05,335,361,386,0,0,9,9,9,0,0,,,,,,,2,0,2,0,0,45,45,9,,,,,,,,,,,,,,3,0.9592277000192553,3,0.25,0.39999999999999997,14.41717,return,1.0302618999266997,,,,,,,,,,,,,,,,,p310,22,female,up_down_width,2025-11-29_08h59.09.380,exp1,2023.1.0,60.01983056327316,
,,,,,,,,,,,,,,,,3,8.525,10,11.475,0,0,1.475,1.225,0.25,3.2,10,match,36.05,307,361,414,0,0,9,9,9,0,0,,,,,,,2,0,2,0,0,46,46,45,,,,,,,,,,,,,,3,0.46551620005629957,3,0.35,0.2,7.20859,return,1.3249144000001252,,,,,,,,,,,,,,,,,p310,22,female,up_down_width,2025-11-29_08h59.09.380,exp1,2023.1.0,60.01983056327316,
,,,,,,,,,,,,,,,,4,9.1,9.7,10.3,10.9,0,0.6,0.04999999999999997,0.55,2.35,10,match,36.05,328,350,371,393,0,9,9,9,9,0,,,,,,,2,0,2,0,0,47,47,12,,,,,,,,,,,,,,2,1.0549288999754936,2,0.35,0.8000000000000002,28.83434,return,1.7966479000169784,,,,,,,,,,,,,,,,,p310,22,female,up_down_width,2025-11-29_08h59.09.380,exp1,2023.1.0,60.01983056327316,
,,,,,,,,,,,,,,,,4,9.1,9.7,10.3,10.9,0,0.5999999999999999,0.3499999999999999,0.25,2.05,10,match,36.05,328,350,371,393,0,9,9,9,9,0,,,,,,,2,0,2,0,0,48,48,14,,,,,,,,,,,,,,3,1.1742932999040931,3,0.45,0.35000000000000003,12.61502,return,1.189699299982749,,,,,,,,,,,,,,,,,p310,22,female,up_down_width,2025-11-29_08h59.09.380,exp1,2023.1.0,60.01983056327316,
,,,,,,,,,,,,,,,,3,9.1,10,10.9,0,0,0.9,0.5,0.4,2.2,10,initial,36.05,328,361,393,0,0,9,9,9,0,0,,,,,,,2,0,2,0,0,49,49,15,,,,,,,,,,,,,,2,0.5749088999582455,2,0.4,0.45,16.21932,return,0.6788330000126734,,,,,,,,,,,,,,,,,p310,22,female,up_down_width,2025-11-29_08h59.09.380,exp1,2023.1.0,60.01983056327316,
,,,,,,,,,,,,,,,,4,8.825,9.608333333333333,10.391666666666667,11.175,0,0.7833333333333333,0.5333333333333333,0.25,2.6,10,match,36.05,318,346,375,403,0,9,9,9,9,0,,,,,,,2,0,2,0,0,50,50,5,,,,,,,,,,,,,,3,0.7227336999494582,3,0.35,0.39999999999999997,14.41717,return,0.8525415000040084,,,,,,,,,,,,,,,,,p310,22,female,up_down_width,2025-11-29_08h59.09.380,exp1,2023.1.0,60.01983056327316,
,,,,,,,,,,,,,,,,3,8.9,10,11.1,0,0,1.1,0.7000000000000001,0.4,2.6000000000000005,10,initial,36.05,321,361,400,0,0,9,9,9,0,0,,,,,,,2,0,2,0,0,51,51,4,,,,,,,,,,,,,,3,0.5721010999986902,3,0.55,0.55,19.82361,return,0.980276899994351,,,,,,,,,,,,,,,,,p310,22,female,up_down_width,2025-11-29_08h59.09.380,exp1,2023.1.0,60.01983056327316,
,,,,,,,,,,,,,,,,,,,,,,,,,,,,,,,,,,,,,,,,,,,,,2,0,2,0,,,,,,,,,,,,,,,,,,,,,,,,,,,,1483.2408772999188,1483.2408772999188,1483.2408772999188,,,,,,,,,,,,p310,22,female,up_down_width,2025-11-29_08h59.09.380,exp1,2023.1.0,60.01983056327316,
,,,,,,,,,,,,,,,,4,8.65,9.55,10.45,11.35,0,0.9,0.5,0.4,3.1,10,initial,36.05,312,344,377,409,0,9,9,9,9,0,,,,,,,3,0,3,0,0,0,0,32,,,,,,,,,,,,,,4,0.5518989999545738,4,0.5,0.45,16.21932,return,1.4896002999739721,,,,,,,,,,,,,,,,,p310,22,female,up_down_width,2025-11-29_08h59.09.380,exp1,2023.1.0,60.01983056327316,
,,,,,,,,,,,,,,,,3,7.8,10,12.2,0,0,2.2,1.9500000000000002,0.25,4.65,10,match,36.05,281,361,440,0,0,9,9,9,0,0,,,,,,,3,0,3,0,0,1,1,37,,,,,,,,,,,,,,3,0.5178416999988258,3,0.4,0.4,14.41717,return,1.1054102000780404,,,,,,,,,,,,,,,,,p310,22,female,up_down_width,2025-11-29_08h59.09.380,exp1,2023.1.0,60.01983056327316,
,,,,,,,,,,,,,,,,3,8.9,10,11.1,0,0,1.1,0.7000000000000001,0.4,2.6000000000000005,10,initial,36.05,321,361,400,0,0,9,9,9,0,0,,,,,,,3,0,3,0,0,2,2,4,,,,,,,,,,,,,,2,0.8435459999600425,2,0.4,0.45,16.21932,return,0.6493952999589965,,,,,,,,,,,,,,,,,p310,22,female,up_down_width,2025-11-29_08h59.09.380,exp1,2023.1.0,60.01983056327316,
,,,,,,,,,,,,,,,,4,9.3,9.766666666666667,10.233333333333333,10.7,0,0.4666666666666667,0.21666666666666665,0.25,1.65,10,match,36.05,335,352,369,386,0,9,9,9,9,0,,,,,,,3,0,3,0,0,3,3,8,,,,,,,,,,,,,,3,0.6480704999994487,3,0.45,0.25000000000000006,9.01073,return,1.4526186999864876,,,,,,,,,,,,,,,,,p310,22,female,up_down_width,2025-11-29_08h59.09.380,exp1,2023.1.0,60.01983056327316,
,,,,,,,,,,,,,,,,3,7.8,10,12.2,0,0,2.2,1.65,0.55,4.95,10,match,36.05,281,361,440,0,0,9,9,9,0,0,,,,,,,3,0,3,0,0,4,4,35,,,,,,,,,,,,,,3,0.5395482999738306,3,0.35,0.7000000000000001,25.23005,return,1.9894435000605881,,,,,,,,,,,,,,,,,p310,22,female,up_down_width,2025-11-29_08h59.09.380,exp1,2023.1.0,60.01983056327316,
,,,,,,,,,,,,,,,,4,8.95,9.65,10.35,11.05,0,0.7,0.1499999999999999,0.55,2.65,10,initial,36.05,323,348,373,398,0,9,9,9,9,0,,,,,,,3,0,3,0,0,5,5,23,,,,,,,,,,,,,,3,0.8446620999602601,3,0.5,0.6500000000000001,23.4279,return,1.0488884000806138,,,,,,,,,,,,,,,,,p310,22,female,up_down_width,2025-11-29_08h59.09.380,exp1,2023.1.0,60.01983056327316,
,,,,,,,,,,,,,,,,4,8.825,9.608333333333333,10.391666666666667,11.175,0,0.7833333333333333,0.5333333333333333,0.25,2.6,10,match,36.05,318,346,375,403,0,9,9,9,9,0,,,,,,,3,0,3,0,0,6,6,5,,,,,,,,,,,,,,3,0.6328776000300422,3,0.35,0.35,12.61502,return,0.8469701000722125,,,,,,,,,,,,,,,,,p310,22,female,up_down_width,2025-11-29_08h59.09.380,exp1,2023.1.0,60.01983056327316,
,,,,,,,,,,,,,,,,4,8.9,9.633333333333333,10.366666666666667,11.1,0,0.7333333333333334,0.4833333333333334,0.25,2.45,10,match,36.05,321,347,374,400,0,9,9,9,9,0,,,,,,,3,0,3,0,0,7,7,3,,,,,,,,,,,,,,4,0.644691800000146,4,0.45,0.30000000000000004,10.81288,return,1.4342135000042617,,,,,,,,,,,,,,,,,p310,22,female,up_down_width,2025-11-29_08h59.09.380,exp1,2023.1.0,60.01983056327316,
,,,,,,,,,,,,,,,,5,8.275,9.1375,10,10.8625,11.725,0.8625,0.6125,0.25,3.7,10,match,36.05,298,329,361,392,423,9,9,9,9,9,,,,,,,3,0,3,0,0,8,8,22,,,,,,,,,,,,,,5,1.0262139000697061,5,0.2,0.3,10.81288,return,1.4643733999691904,,,,,,,,,,,,,,,,,p310,22,female,up_down_width,2025-11-29_08h59.09.380,exp1,2023.1.0,60.01983056327316,
,,,,,,,,,,,,,,,,3,9.1,10,10.9,0,0,0.9,0.65,0.25,2.05,10,initial,36.05,328,361,393,0,0,9,9,9,0,0,,,,,,,3,0,3,0,0,9,9,13,,,,,,,,,,,,,,2,1.0340717000653967,2,0.55,0.30000000000000004,10.81288,return,1.728235200047493,,,,,,,,,,,,,,,,,p310,22,female,up_down_width,2025-11-29_08h59.09.380,exp1,2023.1.0,60.01983056327316,
,,,,,,,,,,,,,,,,5,8.2,9.1,10,10.9,11.8,0.9,0.5,0.4,4,10,initial,36.05,296,328,361,393,425,9,9,9,9,9,,,,,,,3,0,3,0,0,10,10,50,,,,,,,,,,,,,,5,0.8115015000803396,5,0.25,0.39999999999999997,14.41717,return,1.2255701000103727,,,,,,,,,,,,,,,,,p310,22,female,up_down_width,2025-11-29_08h59.09.380,exp1,2023.1.0,60.01983056327316,
,,,,,,,,,,,,,,,,5,8.6,9.3,10,10.7,11.4,0.7,0.1499999999999999,0.55,3.3499999999999996,10,initial,36.05,310,335,361,386,411,9,9,9,9,9,,,,,,,3,0,3,0,0,11,11,40,,,,,,,,,,,,,,4,0.6994072999805212,4,0.45,0.7000000000000002,25.23005,return,1.5175619999645278,,,,,,,,,,,,,,,,,p310,22,female,up_down_width,2025-11-29_08h59.09.380,exp1,2023.1.0,60.01983056327316,
,,,,,,,,,,,,,,,,5,8.35,9.175,10,10.825,11.65,0.8250000000000001,0.275,0.55,3.85,10,match,36.05,301,331,361,390,420,9,9,9,9,9,,,,,,,3,0,3,0,0,12,12,18,,,,,,,,,,,,,,4,0.6164557998999953,4,0.55,0.7500000000000002,27.0322,return,1.29503320006188,,,,,,,,,,,,,,,,,p310,22,female,up_down_width,2025-11-29_08h59.09.380,exp1,2023.1.0,60.01983056327316,
,,,,,,,,,,,,,,,,4,9.1,9.7,10.3,10.9,0,0.6,0.04999999999999997,0.55,2.35,10,match,36.05,328,350,371,393,0,9,9,9,9,0,,,,,,,3,0,3,0,0,13,13,12,,,,,,,,,,,,,,2,1.0840453000273556,2,0.25,0.8000000000000002,28.83434,return,2.928188299993053,,,,,,,,,,,,,,,,,p310,22,female,up_down_width,2025-11-29_08h59.09.380,exp1,2023.1.0,60.01983056327316,
,,,,,,,,,,,,,,,,3,9.3,10,10.7,0,0,0.7,0.1499999999999999,0.55,1.95,10,initial,36.05,335,361,386,0,0,9,9,9,0,0,,,,,,,3,0,3,0,0,14,14,6,,,,,,,,,,,,,,2,0.647488999995403,2,0.4,0.7500000000000002,27.0322,return,1.4688303000293672,,,,,,,,,,,,,,,,,p310,22,female,up_down_width,2025-11-29_08h59.09.380,exp1,2023.1.0,60.01983056327316,
,,,,,,,,,,,,,,,,3,8.525,10,11.475,0,0,1.475,1.225,0.25,3.2,10,match,36.05,307,361,414,0,0,9,9,9,0,0,,,,,,,3,0,3,0,0,15,15,45,,,,,,,,,,,,,,3,0.5173025999683887,3,0.55,0.20000000000000007,7.20859,return,3.423121999949217,,,,,,,,,,,,,,,,,p310,22,female,up_down_width,2025-11-29_08h59.09.380,exp1,2023.1.0,60.01983056327316,
,,,,,,,,,,,,,,,,5,7.8,8.9,10,11.1,12.2,1.1,0.55,0.55,4.95,10,initial,36.05,281,321,361,400,440,9,9,9,9,9,,,,,,,3,0,3,0,0,16,16,34,,,,,,,,,,,,,,4,0.8256154999835417,4,0.4,0.8000000000000003,28.83434,return,2.0382721999194473,,,,,,,,,,,,,,,,,p310,22,female,up_down_width,2025-11-29_08h59.09.380,exp1,2023.1.0,60.01983056327316,
,,,,,,,,,,,,,,,,4,8.9,9.633333333333333,10.366666666666667,11.1,0,0.7333333333333333,0.18333333333333326,0.55,2.75,10,match,36.05,321,347,374,400,0,9,9,9,9,0,,,,,,,3,0,3,0,0,17,17,1,,,,,,,,,,,,,,3,0.7768473000032827,3,0.2,0.7500000000000001,27.0322,return,2.2802237999858335,,,,,,,,,,,,,,,,,p310,22,female,up_down_width,2025-11-29_08h59.09.380,exp1,2023.1.0,60.01983056327316,
,,,,,,,,,,,,,,,,5,8.6,9.3,10,10.7,11.4,0.7,0.29999999999999993,0.4,3.1999999999999997,10,initial,36.05,310,335,361,386,411,9,9,9,9,9,,,,,,,3,0,3,0,0,18,18,44,,,,,,,,,,,,,,5,1.2206427999772131,5,0.55,0.45,16.21932,return,1.3464971999637783,,,,,,,,,,,,,,,,,p310,22,female,up_down_width,2025-11-29_08h59.09.380,exp1,2023.1.0,60.01983056327316,
,,,,,,,,,,,,,,,,4,8.35,9.45,10.55,11.65,0,1.1,0.55,0.55,3.8500000000000005,10,initial,36.05,301,341,380,420,0,9,9,9,9,0,,,,,,,3,0,3,0,0,19,19,17,,,,,,,,,,,,,,4,0.9326813999796286,4,0.3,0.65,23.4279,return,1.6287728999741375,,,,,,,,,,,,,,,,,p310,22,female,up_down_width,2025-11-29_08h59.09.380,exp1,2023.1.0,60.01983056327316,
,,,,,,,,,,,,,,,,3,9.3,10,10.7,0,0,0.7,0.29999999999999993,0.4,1.8,10,initial,36.05,335,361,386,0,0,9,9,9,0,0,,,,,,,3,0,3,0,0,20,20,9,,,,,,,,,,,,,,3,0.564332399982959,3,0.35,0.5499999999999999,19.82361,return,1.1161050000227988,,,,,,,,,,,,,,,,,p310,22,female,up_down_width,2025-11-29_08h59.09.380,exp1,2023.1.0,60.01983056327316,
,,,,,,,,,,,,,,,,5,8.35,9.175,10,10.825,11.65,0.825,0.575,0.25,3.55,10,match,36.05,301,331,361,390,420,9,9,9,9,9,,,,,,,3,0,3,0,0,21,21,20,,,,,,,,,,,,,,5,0.777630899916403,5,0.25,0.35,12.61502,return,0.8562150000361726,,,,,,,,,,,,,,,,,p310,22,female,up_down_width,2025-11-29_08h59.09.380,exp1,2023.1.0,60.01983056327316,
,,,,,,,,,,,,,,,,3,8.9,10,11.1,0,0,1.1,0.8500000000000001,0.25,2.45,10,initial,36.05,321,361,400,0,0,9,9,9,0,0,,,,,,,3,0,3,0,0,22,22,2,,,,,,,,,,,,,,2,0.701663100044243,2,0.3,0.3,10.81288,return,0.8809607999864966,,,,,,,,,,,,,,,,,p310,22,female,up_down_width,2025-11-29_08h59.09.380,exp1,2023.1.0,60.01983056327316,
,,,,,,,,,,,,,,,,5,8.2,9.1,10,10.9,11.8,0.9,0.35,0.55,4.15,10,initial,36.05,296,328,361,393,425,9,9,9,9,9,,,,,,,3,0,3,0,0,23,23,46,,,,,,,,,,,,,,4,0.5826889999443665,4,0.45,0.55,19.82361,return,0.9263547000009567,,,,,,,,,,,,,,,,,p310,22,female,up_down_width,2025-11-29_08h59.09.380,exp1,2023.1.0,60.01983056327316,
,,,,,,,,,,,,,,,,4,8.35,9.45,10.55,11.65,0,1.1,0.7000000000000001,0.4,3.7,10,initial,36.05,301,341,380,420,0,9,9,9,9,0,,,,,,,3,0,3,0,0,24,24,21,,,,,,,,,,,,,,3,0.7013066000072286,3,0.4,0.5,18.02146,return,0.8307518000947312,,,,,,,,,,,,,,,,,p310,22,female,up_down_width,2025-11-29_08h59.09.380,exp1,2023.1.0,60.01983056327316,
,,,,,,,,,,,,,,,,3,9.1,10,10.9,0,0,0.9,0.5,0.4,2.2,10,initial,36.05,328,361,393,0,0,9,9,9,0,0,,,,,,,3,0,3,0,0,25,25,15,,,,,,,,,,,,,,3,0.8207385999849066,3,0.35,0.35,12.61502,return,0.675613300059922,,,,,,,,,,,,,,,,,p310,22,female,up_down_width,2025-11-29_08h59.09.380,exp1,2023.1.0,60.01983056327316,
,,,,,,,,,,,,,,,,3,7.800000000000001,10,12.2,0,0,2.1999999999999997,1.7999999999999998,0.4,4.8,10,match,36.05,281,361,440,0,0,9,9,9,0,0,,,,,,,3,0,3,0,0,26,26,39,,,,,,,,,,,,,,3,1.0322115999879315,3,0.45,0.5,18.02146,return,0.6703799000242725,,,,,,,,,,,,,,,,,p310,22,female,up_down_width,2025-11-29_08h59.09.380,exp1,2023.1.0,60.01983056327316,
,,,,,,,,,,,,,,,,5,8.65,9.325,10,10.675,11.35,0.675,0.42500000000000004,0.25,2.95,10,match,36.05,312,336,361,385,409,9,9,9,9,9,,,,,,,3,0,3,0,0,27,27,31,,,,,,,,,,,,,,4,1.8952701999805868,4,0.4,0.4,14.41717,return,0.601733599905856,,,,,,,,,,,,,,,,,p310,22,female,up_down_width,2025-11-29_08h59.09.380,exp1,2023.1.0,60.01983056327316,
,,,,,,,,,,,,,,,,5,7.8,8.9,10,11.1,12.2,1.1,0.8500000000000001,0.25,4.65,10,initial,36.05,281,321,361,400,440,9,9,9,9,9,,,,,,,3,0,3,0,0,28,28,36,,,,,,,,,,,,,,4,1.0778021001024172,4,0.25,0.25,9.01073,return,0.8723260998958722,,,,,,,,,,,,,,,,,p310,22,female,up_down_width,2025-11-29_08h59.09.380,exp1,2023.1.0,60.01983056327316,
,,,,,,,,,,,,,,,,5,8.95,9.475,10,10.525,11.05,0.525,0.125,0.4,2.5,10,match,36.05,323,342,361,379,398,9,9,9,9,9,,,,,,,3,0,3,0,0,29,29,27,,,,,,,,,,,,,,4,1.0908641000278294,4,0.2,0.44999999999999996,16.21932,return,1.8781692000338808,,,,,,,,,,,,,,,,,p310,22,female,up_down_width,2025-11-29_08h59.09.380,exp1,2023.1.0,60.01983056327316,
,,,,,,,,,,,,,,,,5,8.65,9.325,10,10.675,11.35,0.675,0.275,0.4,3.1,10,match,36.05,312,336,361,385,409,9,9,9,9,9,,,,,,,3,0,3,0,0,30,30,33,,,,,,,,,,,,,,4,1.1276014000177383,4,0.5,0.5,18.02146,return,0.7144174000713974,,,,,,,,,,,,,,,,,p310,22,female,up_down_width,2025-11-29_08h59.09.380,exp1,2023.1.0,60.01983056327316,
,,,,,,,,,,,,,,,,3,8.6,10,11.4,0,0,1.4,1.15,0.25,3.05,10,match,36.05,310,361,411,0,0,9,9,9,0,0,,,,,,,3,0,3,0,0,31,31,43,,,,,,,,,,,,,,3,1.3611221000319347,3,0.25,0.25,9.01073,return,0.8095142999663949,,,,,,,,,,,,,,,,,p310,22,female,up_down_width,2025-11-29_08h59.09.380,exp1,2023.1.0,60.01983056327316,
,,,,,,,,,,,,,,,,4,9.1,9.7,10.3,10.9,0,0.5999999999999999,0.3499999999999999,0.25,2.05,10,match,36.05,328,350,371,393,0,9,9,9,9,0,,,,,,,3,0,3,0,0,32,32,14,,,,,,,,,,,,,,3,0.43884149997029454,3,0.5,0.20000000000000007,7.20859,return,1.9557886000256985,,,,,,,,,,,,,,,,,p310,22,female,up_down_width,2025-11-29_08h59.09.380,exp1,2023.1.0,60.01983056327316,
,,,,,,,,,,,,,,,,4,9.3,9.766666666666667,10.233333333333333,10.7,0,0.4666666666666667,0.06666666666666665,0.4,1.8,10,match,36.05,335,352,369,386,0,9,9,9,9,0,,,,,,,3,0,3,0,0,33,33,10,,,,,,,,,,,,,,4,0.5946870000334457,4,0.45,0.5,18.02146,return,1.1447353000985458,,,,,,,,,,,,,,,,,p310,22,female,up_down_width,2025-11-29_08h59.09.380,exp1,2023.1.0,60.01983056327316,
,,,,,,,,,,,,,,,,3,8.9,10,11.1,0,0,1.1,0.55,0.55,2.75,10,initial,36.05,321,361,400,0,0,9,9,9,0,0,,,,,,,3,0,3,0,0,34,34,0,,,,,,,,,,,,,,2,1.0069258000003174,2,0.3,0.6,21.62576,return,1.7497874000109732,,,,,,,,,,,,,,,,,p310,22,female,up_down_width,2025-11-29_08h59.09.380,exp1,2023.1.0,60.01983056327316,
,,,,,,,,,,,,,,,,5,8.6,9.3,10,10.7,11.4,0.7,0.44999999999999996,0.25,3.05,10,initial,36.05,310,335,361,386,411,9,9,9,9,9,,,,,,,3,0,3,0,0,35,35,42,,,,,,,,,,,,,,4,0.904335799976252,4,0.55,0.25000000000000006,9.01073,return,2.099365400034003,,,,,,,,,,,,,,,,,p310,22,female,up_down_width,2025-11-29_08h59.09.380,exp1,2023.1.0,60.01983056327316,
,,,,,,,,,,,,,,,,3,9.1,10,10.9,0,0,0.9,0.35,0.55,2.35,10,initial,36.05,328,361,393,0,0,9,9,9,0,0,,,,,,,3,0,3,0,0,36,36,11,,,,,,,,,,,,,,2,0.9056015000678599,2,0.5,0.6500000000000001,23.4279,return,0.867496799910441,,,,,,,,,,,,,,,,,p310,22,female,up_down_width,2025-11-29_08h59.09.380,exp1,2023.1.0,60.01983056327316,
,,,,,,,,,,,,,,,,4,8.65,9.55,10.45,11.35,0,0.9,0.35,0.55,3.25,10,initial,36.05,312,344,377,409,0,9,9,9,9,0,,,,,,,3,0,3,0,0,37,37,28,,,,,,,,,,,,,,3,0.9424187999684364,3,0.4,0.6500000000000001,23.4279,return,1.3675073999911547,,,,,,,,,,,,,,,,,p310,22,female,up_down_width,2025-11-29_08h59.09.380,exp1,2023.1.0,60.01983056327316,
,,,,,,,,,,,,,,,,5,7.8,8.9,10,11.1,12.2,1.1,0.7000000000000001,0.4,4.800000000000001,10,initial,36.05,281,321,361,400,440,9,9,9,9,9,,,,,,,3,0,3,0,0,38,38,38,,,,,,,,,,,,,,4,0.532759000081569,4,0.45,0.45,16.21932,return,1.1824206999735907,,,,,,,,,,,,,,,,,p310,22,female,up_down_width,2025-11-29_08h59.09.380,exp1,2023.1.0,60.01983056327316,
,,,,,,,,,,,,,,,,3,8.2,10,11.8,0,0,1.8,1.25,0.55,4.15,10,match,36.05,296,361,425,0,0,9,9,9,0,0,,,,,,,3,0,3,0,0,39,39,47,,,,,,,,,,,,,,3,0.7223377999616787,3,0.25,0.7000000000000001,25.23005,return,2.612322699977085,,,,,,,,,,,,,,,,,p310,22,female,up_down_width,2025-11-29_08h59.09.380,exp1,2023.1.0,60.01983056327316,
,,,,,,,,,,,,,,,,5,8.95,9.475,10,10.525,11.05,0.525,0.275,0.25,2.35,10,match,36.05,323,342,361,379,398,9,9,9,9,9,,,,,,,3,0,3,0,0,40,40,25,,,,,,,,,,,,,,4,0.5410275999456644,4,0.45,0.25000000000000006,9.01073,return,1.9428756000706926,,,,,,,,,,,,,,,,,p310,22,female,up_down_width,2025-11-29_08h59.09.380,exp1,2023.1.0,60.01983056327316,
,,,,,,,,,,,,,,,,3,8.6,10,11.4,0,0,1.4,0.85,0.55,3.35,10,match,36.05,310,361,411,0,0,9,9,9,0,0,,,,,,,3,0,3,0,0,41,41,41,,,,,,,,,,,,,,3,0.6197075000964105,3,0.5,0.6500000000000001,23.4279,return,0.8977735999505967,,,,,,,,,,,,,,,,,p310,22,female,up_down_width,2025-11-29_08h59.09.380,exp1,2023.1.0,60.01983056327316,
,,,,,,,,,,,,,,,,3,8.2,10,11.8,0,0,1.8,1.55,0.25,3.85,10,match,36.05,296,361,425,0,0,9,9,9,0,0,,,,,,,3,0,3,0,0,42,42,49,,,,,,,,,,,,,,3,0.5862513999454677,3,0.55,0.25000000000000006,9.01073,return,2.9135843000840396,,,,,,,,,,,,,,,,,p310,22,female,up_down_width,2025-11-29_08h59.09.380,exp1,2023.1.0,60.01983056327316,
,,,,,,,,,,,,,,,,3,8.2,10,11.8,0,0,1.7999999999999998,1.4,0.4,4,10,match,36.05,296,361,425,0,0,9,9,9,0,0,,,,,,,3,0,3,0,0,43,43,51,,,,,,,,,,,,,,3,0.581633000052534,3,0.4,0.45,16.21932,return,0.7011822999920696,,,,,,,,,,,,,,,,,p310,22,female,up_down_width,2025-11-29_08h59.09.380,exp1,2023.1.0,60.01983056327316,
,,,,,,,,,,,,,,,,5,8.65,9.325,10,10.675,11.35,0.675,0.125,0.55,3.25,10,match,36.05,312,336,361,385,409,9,9,9,9,9,,,,,,,3,0,3,0,0,44,44,29,,,,,,,,,,,,,,3,0.7916593999834731,3,0.4,0.9500000000000004,34.24078,return,2.2789486999390647,,,,,,,,,,,,,,,,,p310,22,female,up_down_width,2025-11-29_08h59.09.380,exp1,2023.1.0,60.01983056327316,
,,,,,,,,,,,,,,,,4,8.95,9.65,10.35,11.05,0,0.7,0.29999999999999993,0.4,2.5,10,initial,36.05,323,348,373,398,0,9,9,9,9,0,,,,,,,3,0,3,0,0,45,45,26,,,,,,,,,,,,,,3,0.48511969996616244,3,0.3,0.6,21.62576,return,1.5355615000007674,,,,,,,,,,,,,,,,,p310,22,female,up_down_width,2025-11-29_08h59.09.380,exp1,2023.1.0,60.01983056327316,
,,,,,,,,,,,,,,,,4,8.95,9.65,10.35,11.05,0,0.7,0.44999999999999996,0.25,2.3499999999999996,10,initial,36.05,323,348,373,398,0,9,9,9,9,0,,,,,,,3,0,3,0,0,46,46,24,,,,,,,,,,,,,,3,1.0941898999735713,3,0.35,0.35,12.61502,return,0.6812730000820011,,,,,,,,,,,,,,,,,p310,22,female,up_down_width,2025-11-29_08h59.09.380,exp1,2023.1.0,60.01983056327316,
,,,,,,,,,,,,,,,,4,8.65,9.55,10.45,11.35,0,0.9,0.65,0.25,2.95,10,initial,36.05,312,344,377,409,0,9,9,9,9,0,,,,,,,3,0,3,0,0,47,47,30,,,,,,,,,,,,,,3,0.5914020000491291,3,0.4,0.35000000000000003,12.61502,return,1.8946453999960795,,,,,,,,,,,,,,,,,p310,22,female,up_down_width,2025-11-29_08h59.09.380,exp1,2023.1.0,60.01983056327316,
,,,,,,,,,,,,,,,,3,9.3,10,10.7,0,0,0.7,0.44999999999999996,0.25,1.65,10,initial,36.05,335,361,386,0,0,9,9,9,0,0,,,,,,,3,0,3,0,0,48,48,7,,,,,,,,,,,,,,3,0.48750879999715835,3,0.4,0.25000000000000006,9.01073,return,1.394778999965638,,,,,,,,,,,,,,,,,p310,22,female,up_down_width,2025-11-29_08h59.09.380,exp1,2023.1.0,60.01983056327316,
,,,,,,,,,,,,,,,,4,8.35,9.45,10.55,11.65,0,1.1,0.8500000000000001,0.25,3.5500000000000003,10,initial,36.05,301,341,380,420,0,9,9,9,9,0,,,,,,,3,0,3,0,0,49,49,19,,,,,,,,,,,,,,4,0.7642246999312192,4,0.25,0.25,9.01073,return,0.6361731999786571,,,,,,,,,,,,,,,,,p310,22,female,up_down_width,2025-11-29_08h59.09.380,exp1,2023.1.0,60.01983056327316,
,,,,,,,,,,,,,,,,4,9.1,9.7,10.3,10.9,0,0.6000000000000001,0.20000000000000004,0.4,2.2,10,match,36.05,328,350,371,393,0,9,9,9,9,0,,,,,,,3,0,3,0,0,50,50,16,,,,,,,,,,,,,,3,0.9646907000569627,3,0.4,0.5,18.02146,return,1.2452103999676183,,,,,,,,,,,,,,,,,p310,22,female,up_down_width,2025-11-29_08h59.09.380,exp1,2023.1.0,60.01983056327316,
,,,,,,,,,,,,,,,,5,8.2,9.1,10,10.9,11.8,0.9,0.65,0.25,3.85,10,initial,36.05,296,328,361,393,425,9,9,9,9,9,,,,,,,3,0,3,0,0,51,51,48,,,,,,,,,,,,,,5,0.8449777000350878,5,0.55,0.25000000000000006,9.01073,return,1.738053600070998,,,,,,,,,,,,,,,,,p310,22,female,up_down_width,2025-11-29_08h59.09.380,exp1,2023.1.0,60.01983056327316,
,,,,,,,,,,,,,,,,,,,,,,,,,,,,,,,,,,,,,,,,,,,,,3,0,3,0,,,,,,,,,,,,,,,,,,,,,,,,,,,,1688.257360999938,1688.257360999938,1688.257360999938,,,,,,,,,,,,p310,22,female,up_down_width,2025-11-29_08h59.09.380,exp1,2023.1.0,60.01983056327316,
,,,,,,,,,,,,,,,,4,9.3,9.766666666666667,10.233333333333333,10.7,0,0.4666666666666667,0.21666666666666665,0.25,1.65,10,match,36.05,335,352,369,386,0,9,9,9,9,0,,,,,,,4,0,4,0,0,0,0,8,,,,,,,,,,,,,,3,0.6988178000319749,3,0.5,0.30000000000000004,10.81288,return,1.18192900007125,,,,,,,,,,,,,,,,,p310,22,female,up_down_width,2025-11-29_08h59.09.380,exp1,2023.1.0,60.01983056327316,
,,,,,,,,,,,,,,,,3,8.9,10,11.1,0,0,1.1,0.8500000000000001,0.25,2.45,10,initial,36.05,321,361,400,0,0,9,9,9,0,0,,,,,,,4,0,4,0,0,1,1,2,,,,,,,,,,,,,,3,0.5240061999065802,3,0.4,0.25000000000000006,9.01073,return,1.430271300021559,,,,,,,,,,,,,,,,,p310,22,female,up_down_width,2025-11-29_08h59.09.380,exp1,2023.1.0,60.01983056327316,
,,,,,,,,,,,,,,,,5,8.35,9.175,10,10.825,11.65,0.825,0.575,0.25,3.55,10,match,36.05,301,331,361,390,420,9,9,9,9,9,,,,,,,4,0,4,0,0,2,2,20,,,,,,,,,,,,,,4,0.49910200003068894,4,0.35,0.25,9.01073,return,1.054271599976346,,,,,,,,,,,,,,,,,p310,22,female,up_down_width,2025-11-29_08h59.09.380,exp1,2023.1.0,60.01983056327316,
,,,,,,,,,,,,,,,,5,8.65,9.325,10,10.675,11.35,0.675,0.275,0.4,3.1,10,match,36.05,312,336,361,385,409,9,9,9,9,9,,,,,,,4,0,4,0,0,3,3,33,,,,,,,,,,,,,,5,0.6955939000472426,5,0.55,0.55,19.82361,return,0.82750589994248,,,,,,,,,,,,,,,,,p310,22,female,up_down_width,2025-11-29_08h59.09.380,exp1,2023.1.0,60.01983056327316,
,,,,,,,,,,,,,,,,5,8.275,9.1375,10,10.8625,11.725,0.8625,0.6125,0.25,3.7,10,match,36.05,298,329,361,392,423,9,9,9,9,9,,,,,,,4,0,4,0,0,4,4,22,,,,,,,,,,,,,,4,1.0435266999993473,4,0.2,0.3,10.81288,return,1.4644453000510111,,,,,,,,,,,,,,,,,p310,22,female,up_down_width,2025-11-29_08h59.09.380,exp1,2023.1.0,60.01983056327316,
,,,,,,,,,,,,,,,,4,8.95,9.65,10.35,11.05,0,0.7,0.29999999999999993,0.4,2.5,10,initial,36.05,323,348,373,398,0,9,9,9,9,0,,,,,,,4,0,4,0,0,5,5,26,,,,,,,,,,,,,,4,0.6896596000296995,4,0.4,0.45,16.21932,return,0.6763795999577269,,,,,,,,,,,,,,,,,p310,22,female,up_down_width,2025-11-29_08h59.09.380,exp1,2023.1.0,60.01983056327316,
,,,,,,,,,,,,,,,,3,8.2,10,11.8,0,0,1.8,1.55,0.25,3.85,10,match,36.05,296,361,425,0,0,9,9,9,0,0,,,,,,,4,0,4,0,0,6,6,49,,,,,,,,,,,,,,4,0.8101513999281451,4,0.35,0.3,10.81288,return,0.6976797999814153,,,,,,,,,,,,,,,,,p310,22,female,up_down_width,2025-11-29_08h59.09.380,exp1,2023.1.0,60.01983056327316,
,,,,,,,,,,,,,,,,5,8.95,9.475,10,10.525,11.05,0.525,0.275,0.25,2.35,10,match,36.05,323,342,361,379,398,9,9,9,9,9,,,,,,,4,0,4,0,0,7,7,25,,,,,,,,,,,,,,4,0.6696586000034586,4,0.45,0.4,14.41717,return,1.4261102000018582,,,,,,,,,,,,,,,,,p310,22,female,up_down_width,2025-11-29_08h59.09.380,exp1,2023.1.0,60.01983056327316,
,,,,,,,,,,,,,,,,4,8.9,9.633333333333333,10.366666666666667,11.1,0,0.7333333333333333,0.18333333333333326,0.55,2.75,10,match,36.05,321,347,374,400,0,9,9,9,9,0,,,,,,,4,0,4,0,0,8,8,1,,,,,,,,,,,,,,2,1.2492199999978766,2,0.35,0.7500000000000001,27.0322,return,1.6461955000413582,,,,,,,,,,,,,,,,,p310,22,female,up_down_width,2025-11-29_08h59.09.380,exp1,2023.1.0,60.01983056327316,
,,,,,,,,,,,,,,,,3,8.2,10,11.8,0,0,1.7999999999999998,1.4,0.4,4,10,match,36.05,296,361,425,0,0,9,9,9,0,0,,,,,,,4,0,4,0,0,9,9,51,,,,,,,,,,,,,,3,0.5974236999172717,3,0.5,0.5,18.02146,return,0.7487103000748903,,,,,,,,,,,,,,,,,p310,22,female,up_down_width,2025-11-29_08h59.09.380,exp1,2023.1.0,60.01983056327316,
,,,,,,,,,,,,,,,,5,8.65,9.325,10,10.675,11.35,0.675,0.125,0.55,3.25,10,match,36.05,312,336,361,385,409,9,9,9,9,9,,,,,,,4,0,4,0,0,10,10,29,,,,,,,,,,,,,,3,0.8322264000307769,3,0.45,0.8000000000000003,28.83434,return,1.773664899985306,,,,,,,,,,,,,,,,,p310,22,female,up_down_width,2025-11-29_08h59.09.380,exp1,2023.1.0,60.01983056327316,
,,,,,,,,,,,,,,,,5,7.8,8.9,10,11.1,12.2,1.1,0.55,0.55,4.95,10,initial,36.05,281,321,361,400,440,9,9,9,9,9,,,,,,,4,0,4,0,0,11,11,34,,,,,,,,,,,,,,5,1.2720410999609157,5,0.4,0.7500000000000002,27.0322,return,1.5556333999847993,,,,,,,,,,,,,,,,,p310,22,female,up_down_width,2025-11-29_08h59.09.380,exp1,2023.1.0,60.01983056327316,
,,,,,,,,,,,,,,,,5,8.65,9.325,10,10.675,11.35,0.675,0.42500000000000004,0.25,2.95,10,match,36.05,312,336,361,385,409,9,9,9,9,9,,,,,,,4,0,4,0,0,12,12,31,,,,,,,,,,,,,,4,0.9346803999505937,4,0.25,0.25,9.01073,return,0.6070048999972641,,,,,,,,,,,,,,,,,p310,22,female,up_down_width,2025-11-29_08h59.09.380,exp1,2023.1.0,60.01983056327316,
,,,,,,,,,,,,,,,,4,8.35,9.45,10.55,11.65,0,1.1,0.55,0.55,3.8500000000000005,10,initial,36.05,301,341,380,420,0,9,9,9,9,0,,,,,,,4,0,4,0,0,13,13,17,,,,,,,,,,,,,,4,0.8775314000668004,4,0.35,0.65,23.4279,return,1.6430542999878526,,,,,,,,,,,,,,,,,p310,22,female,up_down_width,2025-11-29_08h59.09.380,exp1,2023.1.0,60.01983056327316,
,,,,,,,,,,,,,,,,4,9.1,9.7,10.3,10.9,0,0.6000000000000001,0.20000000000000004,0.4,2.2,10,match,36.05,328,350,371,393,0,9,9,9,9,0,,,,,,,4,0,4,0,0,14,14,16,,,,,,,,,,,,,,4,0.7036101999692619,4,0.2,0.49999999999999994,18.02146,return,2.9143519999925047,,,,,,,,,,,,,,,,,p310,22,female,up_down_width,2025-11-29_08h59.09.380,exp1,2023.1.0,60.01983056327316,
,,,,,,,,,,,,,,,,5,8.6,9.3,10,10.7,11.4,0.7,0.44999999999999996,0.25,3.05,10,initial,36.05,310,335,361,386,411,9,9,9,9,9,,,,,,,4,0,4,0,0,15,15,42,,,,,,,,,,,,,,4,0.6550524000776932,4,0.5,0.35000000000000003,12.61502,return,1.5555746998870745,,,,,,,,,,,,,,,,,p310,22,female,up_down_width,2025-11-29_08h59.09.380,exp1,2023.1.0,60.01983056327316,
,,,,,,,,,,,,,,,,3,7.8,10,12.2,0,0,2.2,1.9500000000000002,0.25,4.65,10,match,36.05,281,361,440,0,0,9,9,9,0,0,,,,,,,4,0,4,0,0,16,16,37,,,,,,,,,,,,,,3,0.6270973000209779,3,0.25,0.25,9.01073,return,0.8876169000286609,,,,,,,,,,,,,,,,,p310,22,female,up_down_width,2025-11-29_08h59.09.380,exp1,2023.1.0,60.01983056327316,
,,,,,,,,,,,,,,,,5,8.2,9.1,10,10.9,11.8,0.9,0.65,0.25,3.85,10,initial,36.05,296,328,361,393,425,9,9,9,9,9,,,,,,,4,0,4,0,0,17,17,48,,,,,,,,,,,,,,5,0.8530119999777526,5,0.35,0.2,7.20859,return,1.2993257000343874,,,,,,,,,,,,,,,,,p310,22,female,up_down_width,2025-11-29_08h59.09.380,exp1,2023.1.0,60.01983056327316,
,,,,,,,,,,,,,,,,3,7.800000000000001,10,12.2,0,0,2.1999999999999997,1.7999999999999998,0.4,4.8,10,match,36.05,281,361,440,0,0,9,9,9,0,0,,,,,,,4,0,4,0,0,18,18,39,,,,,,,,,,,,,,4,0.6138765000505373,4,0.45,0.30000000000000004,10.81288,return,1.8679273000452667,,,,,,,,,,,,,,,,,p310,22,female,up_down_width,2025-11-29_08h59.09.380,exp1,2023.1.0,60.01983056327316,
,,,,,,,,,,,,,,,,3,8.9,10,11.1,0,0,1.1,0.7000000000000001,0.4,2.6000000000000005,10,initial,36.05,321,361,400,0,0,9,9,9,0,0,,,,,,,4,0,4,0,0,19,19,4,,,,,,,,,,,,,,3,0.6116891000419855,3,0.3,0.44999999999999996,16.21932,return,1.0821045999182388,,,,,,,,,,,,,,,,,p310,22,female,up_down_width,2025-11-29_08h59.09.380,exp1,2023.1.0,60.01983056327316,
,,,,,,,,,,,,,,,,5,8.95,9.475,10,10.525,11.05,0.525,0.125,0.4,2.5,10,match,36.05,323,342,361,379,398,9,9,9,9,9,,,,,,,4,0,4,0,0,20,20,27,,,,,,,,,,,,,,4,0.7673246000194922,4,0.3,0.6,21.62576,return,1.280012400005944,,,,,,,,,,,,,,,,,p310,22,female,up_down_width,2025-11-29_08h59.09.380,exp1,2023.1.0,60.01983056327316,
,,,,,,,,,,,,,,,,4,8.35,9.45,10.55,11.65,0,1.1,0.7000000000000001,0.4,3.7,10,initial,36.05,301,341,380,420,0,9,9,9,9,0,,,,,,,4,0,4,0,0,21,21,21,,,,,,,,,,,,,,4,0.5758570999605581,4,0.55,0.25000000000000006,9.01073,return,3.5923005000222474,,,,,,,,,,,,,,,,,p310,22,female,up_down_width,2025-11-29_08h59.09.380,exp1,2023.1.0,60.01983056327316,
,,,,,,,,,,,,,,,,4,9.1,9.7,10.3,10.9,0,0.6,0.04999999999999997,0.55,2.35,10,match,36.05,328,350,371,393,0,9,9,9,9,0,,,,,,,4,0,4,0,0,22,22,12,,,,,,,,,,,,,,2,0.9369642999954522,2,0.5,0.7500000000000002,27.0322,return,1.282715699984692,,,,,,,,,,,,,,,,,p310,22,female,up_down_width,2025-11-29_08h59.09.380,exp1,2023.1.0,60.01983056327316,
,,,,,,,,,,,,,,,,3,9.3,10,10.7,0,0,0.7,0.29999999999999993,0.4,1.8,10,initial,36.05,335,361,386,0,0,9,9,9,0,0,,,,,,,4,0,4,0,0,23,23,9,,,,,,,,,,,,,,2,0.6265726999845356,2,0.45,0.6000000000000001,21.62576,return,1.0970171000808477,,,,,,,,,,,,,,,,,p310,22,female,up_down_width,2025-11-29_08h59.09.380,exp1,2023.1.0,60.01983056327316,
,,,,,,,,,,,,,,,,3,9.1,10,10.9,0,0,0.9,0.5,0.4,2.2,10,initial,36.05,328,361,393,0,0,9,9,9,0,0,,,,,,,4,0,4,0,0,24,24,15,,,,,,,,,,,,,,2,0.4993733000010252,2,0.4,0.55,19.82361,return,0.8797078999923542,,,,,,,,,,,,,,,,,p310,22,female,up_down_width,2025-11-29_08h59.09.380,exp1,2023.1.0,60.01983056327316,
,,,,,,,,,,,,,,,,5,8.2,9.1,10,10.9,11.8,0.9,0.5,0.4,4,10,initial,36.05,296,328,361,393,425,9,9,9,9,9,,,,,,,4,0,4,0,0,25,25,50,,,,,,,,,,,,,,4,0.6603676000377163,4,0.45,0.45,16.21932,return,0.6490700000431389,,,,,,,,,,,,,,,,,p310,22,female,up_down_width,2025-11-29_08h59.09.380,exp1,2023.1.0,60.01983056327316,
,,,,,,,,,,,,,,,,3,9.1,10,10.9,0,0,0.9,0.65,0.25,2.05,10,initial,36.05,328,361,393,0,0,9,9,9,0,0,,,,,,,4,0,4,0,0,26,26,13,,,,,,,,,,,,,,2,2.1828635999700055,2,0.45,0.35000000000000003,12.61502,return,1.8068810000550002,,,,,,,,,,,,,,,,,p310,22,female,up_down_width,2025-11-29_08h59.09.380,exp1,2023.1.0,60.01983056327316,
,,,,,,,,,,,,,,,,5,8.35,9.175,10,10.825,11.65,0.8250000000000001,0.275,0.55,3.85,10,match,36.05,301,331,361,390,420,9,9,9,9,9,,,,,,,4,0,4,0,0,27,27,18,,,,,,,,,,,,,,4,0.9064668000210077,4,0.55,0.7000000000000002,25.23005,return,1.1726774000562727,,,,,,,,,,,,,,,,,p310,22,female,up_down_width,2025-11-29_08h59.09.380,exp1,2023.1.0,60.01983056327316,
,,,,,,,,,,,,,,,,4,8.95,9.65,10.35,11.05,0,0.7,0.44999999999999996,0.25,2.3499999999999996,10,initial,36.05,323,348,373,398,0,9,9,9,9,0,,,,,,,4,0,4,0,0,28,28,24,,,,,,,,,,,,,,3,0.6787612999323756,3,0.5,0.30000000000000004,10.81288,return,2.985922700027004,,,,,,,,,,,,,,,,,p310,22,female,up_down_width,2025-11-29_08h59.09.380,exp1,2023.1.0,60.01983056327316,
,,,,,,,,,,,,,,,,3,8.525,10,11.475,0,0,1.475,1.225,0.25,3.2,10,match,36.05,307,361,414,0,0,9,9,9,0,0,,,,,,,4,0,4,0,0,29,29,45,,,,,,,,,,,,,,3,0.7940585999749601,3,0.35,0.2,7.20859,return,1.5614691999508068,,,,,,,,,,,,,,,,,p310,22,female,up_down_width,2025-11-29_08h59.09.380,exp1,2023.1.0,60.01983056327316,
,,,,,,,,,,,,,,,,4,8.65,9.55,10.45,11.35,0,0.9,0.65,0.25,2.95,10,initial,36.05,312,344,377,409,0,9,9,9,9,0,,,,,,,4,0,4,0,0,30,30,30,,,,,,,,,,,,,,4,0.5581804999383166,4,0.2,0.2,7.20859,return,0.582056500017643,,,,,,,,,,,,,,,,,p310,22,female,up_down_width,2025-11-29_08h59.09.380,exp1,2023.1.0,60.01983056327316,
,,,,,,,,,,,,,,,,4,8.825,9.608333333333333,10.391666666666667,11.175,0,0.7833333333333333,0.5333333333333333,0.25,2.6,10,match,36.05,318,346,375,403,0,9,9,9,9,0,,,,,,,4,0,4,0,0,31,31,5,,,,,,,,,,,,,,4,0.610159800038673,4,0.35,0.15000000000000002,5.40644,return,1.4008633000776172,,,,,,,,,,,,,,,,,p310,22,female,up_down_width,2025-11-29_08h59.09.380,exp1,2023.1.0,60.01983056327316,
,,,,,,,,,,,,,,,,3,7.8,10,12.2,0,0,2.2,1.65,0.55,4.95,10,match,36.05,281,361,440,0,0,9,9,9,0,0,,,,,,,4,0,4,0,0,32,32,35,,,,,,,,,,,,,,3,0.833908100030385,3,0.3,0.7500000000000001,27.0322,return,2.319722800049931,,,,,,,,,,,,,,,,,p310,22,female,up_down_width,2025-11-29_08h59.09.380,exp1,2023.1.0,60.01983056327316,
,,,,,,,,,,,,,,,,5,7.8,8.9,10,11.1,12.2,1.1,0.7000000000000001,0.4,4.800000000000001,10,initial,36.05,281,321,361,400,440,9,9,9,9,9,,,,,,,4,0,4,0,0,33,33,38,,,,,,,,,,,,,,4,0.8569640000350773,4,0.45,0.5,18.02146,return,0.950692699989304,,,,,,,,,,,,,,,,,p310,22,female,up_down_width,2025-11-29_08h59.09.380,exp1,2023.1.0,60.01983056327316,
,,,,,,,,,,,,,,,,3,8.6,10,11.4,0,0,1.4,1.15,0.25,3.05,10,match,36.05,310,361,411,0,0,9,9,9,0,0,,,,,,,4,0,4,0,0,34,34,43,,,,,,,,,,,,,,3,0.7777655000099912,3,0.55,0.35000000000000003,12.61502,return,1.7062602000078186,,,,,,,,,,,,,,,,,p310,22,female,up_down_width,2025-11-29_08h59.09.380,exp1,2023.1.0,60.01983056327316,
,,,,,,,,,,,,,,,,4,9.3,9.766666666666667,10.233333333333333,10.7,0,0.4666666666666667,0.06666666666666665,0.4,1.8,10,match,36.05,335,352,369,386,0,9,9,9,9,0,,,,,,,4,0,4,0,0,35,35,10,,,,,,,,,,,,,,2,1.340705299982801,2,0.55,0.8000000000000003,28.83434,return,1.5582124000648037,,,,,,,,,,,,,,,,,p310,22,female,up_down_width,2025-11-29_08h59.09.380,exp1,2023.1.0,60.01983056327316,
,,,,,,,,,,,,,,,,3,8.6,10,11.4,0,0,1.4,0.85,0.55,3.35,10,match,36.05,310,361,411,0,0,9,9,9,0,0,,,,,,,4,0,4,0,0,36,36,41,,,,,,,,,,,,,,3,0.7463810999179259,3,0.2,0.8500000000000002,30.63649,return,2.5722976000979543,,,,,,,,,,,,,,,,,p310,22,female,up_down_width,2025-11-29_08h59.09.380,exp1,2023.1.0,60.01983056327316,
,,,,,,,,,,,,,,,,4,8.9,9.633333333333333,10.366666666666667,11.1,0,0.7333333333333334,0.4833333333333334,0.25,2.45,10,match,36.05,321,347,374,400,0,9,9,9,9,0,,,,,,,4,0,4,0,0,37,37,3,,,,,,,,,,,,,,3,0.5895135001046583,3,0.4,0.5,18.02146,return,1.0287826000712812,,,,,,,,,,,,,,,,,p310,22,female,up_down_width,2025-11-29_08h59.09.380,exp1,2023.1.0,60.01983056327316,
,,,,,,,,,,,,,,,,4,8.65,9.55,10.45,11.35,0,0.9,0.5,0.4,3.1,10,initial,36.05,312,344,377,409,0,9,9,9,9,0,,,,,,,4,0,4,0,0,38,38,32,,,,,,,,,,,,,,4,1.1706658999901265,4,0.45,0.55,19.82361,return,0.8987554999766871,,,,,,,,,,,,,,,,,p310,22,female,up_down_width,2025-11-29_08h59.09.380,exp1,2023.1.0,60.01983056327316,
,,,,,,,,,,,,,,,,4,8.65,9.55,10.45,11.35,0,0.9,0.35,0.55,3.25,10,initial,36.05,312,344,377,409,0,9,9,9,9,0,,,,,,,4,0,4,0,0,39,39,28,,,,,,,,,,,,,,3,0.5922785999719054,3,0.5,0.6500000000000001,23.4279,return,0.7762649999931455,,,,,,,,,,,,,,,,,p310,22,female,up_down_width,2025-11-29_08h59.09.380,exp1,2023.1.0,60.01983056327316,
,,,,,,,,,,,,,,,,4,9.1,9.7,10.3,10.9,0,0.5999999999999999,0.3499999999999999,0.25,2.05,10,match,36.05,328,350,371,393,0,9,9,9,9,0,,,,,,,4,0,4,0,0,40,40,14,,,,,,,,,,,,,,3,0.39493189996574074,3,0.35,0.39999999999999997,14.41717,return,0.7788392000366002,,,,,,,,,,,,,,,,,p310,22,female,up_down_width,2025-11-29_08h59.09.380,exp1,2023.1.0,60.01983056327316,
,,,,,,,,,,,,,,,,3,9.3,10,10.7,0,0,0.7,0.44999999999999996,0.25,1.65,10,initial,36.05,335,361,386,0,0,9,9,9,0,0,,,,,,,4,0,4,0,0,41,41,7,,,,,,,,,,,,,,2,0.7715756000252441,2,0.2,0.39999999999999997,14.41717,return,1.1074074000352994,,,,,,,,,,,,,,,,,p310,22,female,up_down_width,2025-11-29_08h59.09.380,exp1,2023.1.0,60.01983056327316,
,,,,,,,,,,,,,,,,3,9.1,10,10.9,0,0,0.9,0.35,0.55,2.35,10,initial,36.05,328,361,393,0,0,9,9,9,0,0,,,,,,,4,0,4,0,0,42,42,11,,,,,,,,,,,,,,2,0.5904016999993473,2,0.45,0.7000000000000002,25.23005,return,1.1728747999295592,,,,,,,,,,,,,,,,,p310,22,female,up_down_width,2025-11-29_08h59.09.380,exp1,2023.1.0,60.01983056327316,
,,,,,,,,,,,,,,,,5,8.2,9.1,10,10.9,11.8,0.9,0.35,0.55,4.15,10,initial,36.05,296,328,361,393,425,9,9,9,9,9,,,,,,,4,0,4,0,0,43,43,46,,,,,,,,,,,,,,4,0.7433496000012383,4,0.45,0.6500000000000001,23.4279,return,0.7923899000743404,,,,,,,,,,,,,,,,,p310,22,female,up_down_width,2025-11-29_08h59.09.380,exp1,2023.1.0,60.01983056327316,
,,,,,,,,,,,,,,,,3,9.3,10,10.7,0,0,0.7,0.1499999999999999,0.55,1.95,10,initial,36.05,335,361,386,0,0,9,9,9,0,0,,,,,,,4,0,4,0,0,44,44,6,,,,,,,,,,,,,,2,0.53325209999457,2,0.25,0.7500000000000001,27.0322,return,1.967805599910207,,,,,,,,,,,,,,,,,p310,22,female,up_down_width,2025-11-29_08h59.09.380,exp1,2023.1.0,60.01983056327316,
,,,,,,,,,,,,,,,,5,7.8,8.9,10,11.1,12.2,1.1,0.8500000000000001,0.25,4.65,10,initial,36.05,281,321,361,400,440,9,9,9,9,9,,,,,,,4,0,4,0,0,45,45,36,,,,,,,,,,,,,,5,0.8986093999119475,5,0.3,0.35,12.61502,return,1.5824049999937415,,,,,,,,,,,,,,,,,p310,22,female,up_down_width,2025-11-29_08h59.09.380,exp1,2023.1.0,60.01983056327316,
,,,,,,,,,,,,,,,,3,8.2,10,11.8,0,0,1.8,1.25,0.55,4.15,10,match,36.05,296,361,425,0,0,9,9,9,0,0,,,,,,,4,0,4,0,0,46,46,47,,,,,,,,,,,,,,3,1.0769667000276968,3,0.3,0.7000000000000001,25.23005,return,1.6416153999743983,,,,,,,,,,,,,,,,,p310,22,female,up_down_width,2025-11-29_08h59.09.380,exp1,2023.1.0,60.01983056327316,
,,,,,,,,,,,,,,,,3,8.9,10,11.1,0,0,1.1,0.55,0.55,2.75,10,initial,36.05,321,361,400,0,0,9,9,9,0,0,,,,,,,4,0,4,0,0,47,47,0,,,,,,,,,,,,,,3,0.5362467999802902,3,0.45,0.6500000000000001,23.4279,return,0.8024929999373853,,,,,,,,,,,,,,,,,p310,22,female,up_down_width,2025-11-29_08h59.09.380,exp1,2023.1.0,60.01983056327316,
,,,,,,,,,,,,,,,,5,8.6,9.3,10,10.7,11.4,0.7,0.29999999999999993,0.4,3.1999999999999997,10,initial,36.05,310,335,361,386,411,9,9,9,9,9,,,,,,,4,0,4,0,0,48,48,44,,,,,,,,,,,,,,4,0.5715925999684259,4,0.2,0.39999999999999997,14.41717,return,1.1073314000386745,,,,,,,,,,,,,,,,,p310,22,female,up_down_width,2025-11-29_08h59.09.380,exp1,2023.1.0,60.01983056327316,
,,,,,,,,,,,,,,,,4,8.35,9.45,10.55,11.65,0,1.1,0.8500000000000001,0.25,3.5500000000000003,10,initial,36.05,301,341,380,420,0,9,9,9,9,0,,,,,,,4,0,4,0,0,49,49,19,,,,,,,,,,,,,,4,0.5120609999867156,4,0.3,0.3,10.81288,return,0.8900566000957042,,,,,,,,,,,,,,,,,p310,22,female,up_down_width,2025-11-29_08h59.09.380,exp1,2023.1.0,60.01983056327316,
,,,,,,,,,,,,,,,,5,8.6,9.3,10,10.7,11.4,0.7,0.1499999999999999,0.55,3.3499999999999996,10,initial,36.05,310,335,361,386,411,9,9,9,9,9,,,,,,,4,0,4,0,0,50,50,40,,,,,,,,,,,,,,4,0.8289441000670195,4,0.3,0.65,23.4279,return,1.4841035000281408,,,,,,,,,,,,,,,,,p310,22,female,up_down_width,2025-11-29_08h59.09.380,exp1,2023.1.0,60.01983056327316,
,,,,,,,,,,,,,,,,4,8.95,9.65,10.35,11.05,0,0.7,0.1499999999999999,0.55,2.65,10,initial,36.05,323,348,373,398,0,9,9,9,9,0,,,,,,,4,0,4,0,0,51,51,23,,,,,,,,,,,,,,2,0.9350181000772864,2,0.55,0.6500000000000001,23.4279,return,0.6575210000155494,,,,,,,,,,,,,,,,,p310,22,female,up_down_width,2025-11-29_08h59.09.380,exp1,2023.1.0,60.01983056327316,
,,,,,,,,,,,,,,,,,,,,,,,,,,,,,,,,,,,,,,,,,,,,,4,0,4,0,,,,,,,,,,,,,,,,,,,,,,,,,,,,1883.3906618999317,1883.3906618999317,1883.3906618999317,,,,,,,,,,,,p310,22,female,up_down_width,2025-11-29_08h59.09.380,exp1,2023.1.0,60.01983056327316,
,,,,,,,,,,,,,,,,5,8.95,9.475,10,10.525,11.05,0.525,0.125,0.4,2.5,10,match,36.05,323,342,361,379,398,9,9,9,9,9,,,,,,,5,0,5,0,0,0,0,27,,,,,,,,,,,,,,4,0.7575619999552146,4,0.4,0.4,14.41717,return,0.9344700999790803,,,,,,,,,,,,,,,,,p310,22,female,up_down_width,2025-11-29_08h59.09.380,exp1,2023.1.0,60.01983056327316,
,,,,,,,,,,,,,,,,3,8.2,10,11.8,0,0,1.7999999999999998,1.4,0.4,4,10,match,36.05,296,361,425,0,0,9,9,9,0,0,,,,,,,5,0,5,0,0,1,1,51,,,,,,,,,,,,,,3,0.5084203999722376,3,0.35,0.44999999999999996,16.21932,return,0.6961789999622852,,,,,,,,,,,,,,,,,p310,22,female,up_down_width,2025-11-29_08h59.09.380,exp1,2023.1.0,60.01983056327316,
,,,,,,,,,,,,,,,,5,8.65,9.325,10,10.675,11.35,0.675,0.42500000000000004,0.25,2.95,10,match,36.05,312,336,361,385,409,9,9,9,9,9,,,,,,,5,0,5,0,0,2,2,31,,,,,,,,,,,,,,4,0.573786300024949,4,0.35,0.3,10.81288,return,1.1730800999794155,,,,,,,,,,,,,,,,,p310,22,female,up_down_width,2025-11-29_08h59.09.380,exp1,2023.1.0,60.01983056327316,
,,,,,,,,,,,,,,,,4,8.9,9.633333333333333,10.366666666666667,11.1,0,0.7333333333333333,0.18333333333333326,0.55,2.75,10,match,36.05,321,347,374,400,0,9,9,9,9,0,,,,,,,5,0,5,0,0,3,3,1,,,,,,,,,,,,,,4,0.6111501000123098,4,0.2,0.5499999999999999,19.82361,return,1.4329800000414252,,,,,,,,,,,,,,,,,p310,22,female,up_down_width,2025-11-29_08h59.09.380,exp1,2023.1.0,60.01983056327316,
,,,,,,,,,,,,,,,,4,9.1,9.7,10.3,10.9,0,0.5999999999999999,0.3499999999999999,0.25,2.05,10,match,36.05,328,350,371,393,0,9,9,9,9,0,,,,,,,5,0,5,0,0,4,4,14,,,,,,,,,,,,,,4,0.6158546999795362,4,0.3,0.35,12.61502,return,0.8937849000794813,,,,,,,,,,,,,,,,,p310,22,female,up_down_width,2025-11-29_08h59.09.380,exp1,2023.1.0,60.01983056327316,
,,,,,,,,,,,,,,,,5,8.65,9.325,10,10.675,11.35,0.675,0.125,0.55,3.25,10,match,36.05,312,336,361,385,409,9,9,9,9,9,,,,,,,5,0,5,0,0,5,5,29,,,,,,,,,,,,,,4,0.5777782000368461,4,0.45,0.55,19.82361,return,0.5064549000235274,,,,,,,,,,,,,,,,,p310,22,female,up_down_width,2025-11-29_08h59.09.380,exp1,2023.1.0,60.01983056327316,
,,,,,,,,,,,,,,,,5,8.65,9.325,10,10.675,11.35,0.675,0.275,0.4,3.1,10,match,36.05,312,336,361,385,409,9,9,9,9,9,,,,,,,5,0,5,0,0,6,6,33,,,,,,,,,,,,,,4,0.5746122000273317,4,0.5,0.45,16.21932,return,1.3028343000914901,,,,,,,,,,,,,,,,,p310,22,female,up_down_width,2025-11-29_08h59.09.380,exp1,2023.1.0,60.01983056327316,
,,,,,,,,,,,,,,,,5,7.8,8.9,10,11.1,12.2,1.1,0.7000000000000001,0.4,4.800000000000001,10,initial,36.05,281,321,361,400,440,9,9,9,9,9,,,,,,,5,0,5,0,0,7,7,38,,,,,,,,,,,,,,5,0.46812030009459704,5,0.35,0.35,12.61502,return,0.9436159000033513,,,,,,,,,,,,,,,,,p310,22,female,up_down_width,2025-11-29_08h59.09.380,exp1,2023.1.0,60.01983056327316,
,,,,,,,,,,,,,,,,5,8.6,9.3,10,10.7,11.4,0.7,0.1499999999999999,0.55,3.3499999999999996,10,initial,36.05,310,335,361,386,411,9,9,9,9,9,,,,,,,5,0,5,0,0,8,8,40,,,,,,,,,,,,,,5,0.8965231999754906,5,0.2,0.5499999999999999,19.82361,return,1.4845700999721885,,,,,,,,,,,,,,,,,p310,22,female,up_down_width,2025-11-29_08h59.09.380,exp1,2023.1.0,60.01983056327316,
,,,,,,,,,,,,,,,,3,8.2,10,11.8,0,0,1.8,1.55,0.25,3.85,10,match,36.05,296,361,425,0,0,9,9,9,0,0,,,,,,,5,0,5,0,0,9,9,49,,,,,,,,,,,,,,4,0.6207291000755504,4,0.4,0.20000000000000007,7.20859,return,1.1865323999663815,,,,,,,,,,,,,,,,,p310,22,female,up_down_width,2025-11-29_08h59.09.380,exp1,2023.1.0,60.01983056327316,
,,,,,,,,,,,,,,,,4,8.95,9.65,10.35,11.05,0,0.7,0.44999999999999996,0.25,2.3499999999999996,10,initial,36.05,323,348,373,398,0,9,9,9,9,0,,,,,,,5,0,5,0,0,10,10,24,,,,,,,,,,,,,,4,0.6252171999076381,4,0.5,0.20000000000000007,7.20859,return,1.990910500055179,,,,,,,,,,,,,,,,,p310,22,female,up_down_width,2025-11-29_08h59.09.380,exp1,2023.1.0,60.01983056327316,
,,,,,,,,,,,,,,,,5,8.275,9.1375,10,10.8625,11.725,0.8625,0.6125,0.25,3.7,10,match,36.05,298,329,361,392,423,9,9,9,9,9,,,,,,,5,0,5,0,0,11,11,22,,,,,,,,,,,,,,4,2.20813350006938,4,0.4,0.20000000000000007,7.20859,return,1.5427773999981582,,,,,,,,,,,,,,,,,p310,22,female,up_down_width,2025-11-29_08h59.09.380,exp1,2023.1.0,60.01983056327316,
,,,,,,,,,,,,,,,,4,9.1,9.7,10.3,10.9,0,0.6,0.04999999999999997,0.55,2.35,10,match,36.05,328,350,371,393,0,9,9,9,9,0,,,,,,,5,0,5,0,0,12,12,12,,,,,,,,,,,,,,3,1.0461270000087097,3,0.35,0.7000000000000001,25.23005,return,2.1063871000660583,,,,,,,,,,,,,,,,,p310,22,female,up_down_width,2025-11-29_08h59.09.380,exp1,2023.1.0,60.01983056327316,
,,,,,,,,,,,,,,,,3,8.6,10,11.4,0,0,1.4,1.15,0.25,3.05,10,match,36.05,310,361,411,0,0,9,9,9,0,0,,,,,,,5,0,5,0,0,13,13,43,,,,,,,,,,,,,,3,0.5737611999502406,3,0.2,0.35,12.61502,return,1.3820678999181837,,,,,,,,,,,,,,,,,p310,22,female,up_down_width,2025-11-29_08h59.09.380,exp1,2023.1.0,60.01983056327316,
,,,,,,,,,,,,,,,,3,8.6,10,11.4,0,0,1.4,0.85,0.55,3.35,10,match,36.05,310,361,411,0,0,9,9,9,0,0,,,,,,,5,0,5,0,0,14,14,41,,,,,,,,,,,,,,3,0.7516825998900458,3,0.3,0.44999999999999996,16.21932,return,0.7516890000551939,,,,,,,,,,,,,,,,,p310,22,female,up_down_width,2025-11-29_08h59.09.380,exp1,2023.1.0,60.01983056327316,
,,,,,,,,,,,,,,,,3,7.8,10,12.2,0,0,2.2,1.65,0.55,4.95,10,match,36.05,281,361,440,0,0,9,9,9,0,0,,,,,,,5,0,5,0,0,15,15,35,,,,,,,,,,,,,,3,0.5346498000435531,3,0.4,0.55,19.82361,return,0.9432584999594837,,,,,,,,,,,,,,,,,p310,22,female,up_down_width,2025-11-29_08h59.09.380,exp1,2023.1.0,60.01983056327316,
,,,,,,,,,,,,,,,,4,8.9,9.633333333333333,10.366666666666667,11.1,0,0.7333333333333334,0.4833333333333334,0.25,2.45,10,match,36.05,321,347,374,400,0,9,9,9,9,0,,,,,,,5,0,5,0,0,16,16,3,,,,,,,,,,,,,,3,0.835053899907507,3,0.55,0.20000000000000007,7.20859,return,2.2556096999906003,,,,,,,,,,,,,,,,,p310,22,female,up_down_width,2025-11-29_08h59.09.380,exp1,2023.1.0,60.01983056327316,
,,,,,,,,,,,,,,,,3,9.1,10,10.9,0,0,0.9,0.35,0.55,2.35,10,initial,36.05,328,361,393,0,0,9,9,9,0,0,,,,,,,5,0,5,0,0,17,17,11,,,,,,,,,,,,,,2,0.89254210004583,2,0.4,0.55,19.82361,return,1.1437943000346422,,,,,,,,,,,,,,,,,p310,22,female,up_down_width,2025-11-29_08h59.09.380,exp1,2023.1.0,60.01983056327316,
,,,,,,,,,,,,,,,,3,9.1,10,10.9,0,0,0.9,0.5,0.4,2.2,10,initial,36.05,328,361,393,0,0,9,9,9,0,0,,,,,,,5,0,5,0,0,18,18,15,,,,,,,,,,,,,,3,0.8347263000905514,3,0.5,0.5,18.02146,return,0.5758038000203669,,,,,,,,,,,,,,,,,p310,22,female,up_down_width,2025-11-29_08h59.09.380,exp1,2023.1.0,60.01983056327316,
,,,,,,,,,,,,,,,,5,8.35,9.175,10,10.825,11.65,0.825,0.575,0.25,3.55,10,match,36.05,301,331,361,390,420,9,9,9,9,9,,,,,,,5,0,5,0,0,19,19,20,,,,,,,,,,,,,,4,0.9551881001098081,4,0.4,0.30000000000000004,10.81288,return,1.4430121999466792,,,,,,,,,,,,,,,,,p310,22,female,up_down_width,2025-11-29_08h59.09.380,exp1,2023.1.0,60.01983056327316,
,,,,,,,,,,,,,,,,3,8.9,10,11.1,0,0,1.1,0.8500000000000001,0.25,2.45,10,initial,36.05,321,361,400,0,0,9,9,9,0,0,,,,,,,5,0,5,0,0,20,20,2,,,,,,,,,,,,,,3,0.7972338000545278,3,0.45,0.20000000000000007,7.20859,return,1.8193292000796646,,,,,,,,,,,,,,,,,p310,22,female,up_down_width,2025-11-29_08h59.09.380,exp1,2023.1.0,60.01983056327316,
,,,,,,,,,,,,,,,,4,8.65,9.55,10.45,11.35,0,0.9,0.5,0.4,3.1,10,initial,36.05,312,344,377,409,0,9,9,9,9,0,,,,,,,5,0,5,0,0,21,21,32,,,,,,,,,,,,,,4,0.7487355000339448,4,0.4,0.4,14.41717,return,1.8208561000647023,,,,,,,,,,,,,,,,,p310,22,female,up_down_width,2025-11-29_08h59.09.380,exp1,2023.1.0,60.01983056327316,
,,,,,,,,,,,,,,,,5,8.2,9.1,10,10.9,11.8,0.9,0.65,0.25,3.85,10,initial,36.05,296,328,361,393,425,9,9,9,9,9,,,,,,,5,0,5,0,0,22,22,48,,,,,,,,,,,,,,4,1.6454840000951663,4,0.55,0.20000000000000007,7.20859,return,2.249570499989204,,,,,,,,,,,,,,,,,p310,22,female,up_down_width,2025-11-29_08h59.09.380,exp1,2023.1.0,60.01983056327316,
,,,,,,,,,,,,,,,,3,8.525,10,11.475,0,0,1.475,1.225,0.25,3.2,10,match,36.05,307,361,414,0,0,9,9,9,0,0,,,,,,,5,0,5,0,0,23,23,45,,,,,,,,,,,,,,3,1.0326640999410301,3,0.5,0.20000000000000007,7.20859,return,2.1101981000974774,,,,,,,,,,,,,,,,,p310,22,female,up_down_width,2025-11-29_08h59.09.380,exp1,2023.1.0,60.01983056327316,
,,,,,,,,,,,,,,,,5,8.35,9.175,10,10.825,11.65,0.8250000000000001,0.275,0.55,3.85,10,match,36.05,301,331,361,390,420,9,9,9,9,9,,,,,,,5,0,5,0,0,24,24,18,,,,,,,,,,,,,,5,1.095236000022851,5,0.3,0.6,21.62576,return,2.5698243998922408,,,,,,,,,,,,,,,,,p310,22,female,up_down_width,2025-11-29_08h59.09.380,exp1,2023.1.0,60.01983056327316,
,,,,,,,,,,,,,,,,3,9.3,10,10.7,0,0,0.7,0.29999999999999993,0.4,1.8,10,initial,36.05,335,361,386,0,0,9,9,9,0,0,,,,,,,5,0,5,0,0,25,25,9,,,,,,,,,,,,,,2,1.1462327999761328,2,0.2,0.49999999999999994,18.02146,return,1.3866684000240639,,,,,,,,,,,,,,,,,p310,22,female,up_down_width,2025-11-29_08h59.09.380,exp1,2023.1.0,60.01983056327316,
