amount_p,posx1_p,posx2_p,posx3_p,posx4_p,posx5_p,center_to_center_p,edge_to_edge_p,w_p,stim_lengt_p,eccentricity_p,line1_p,line2_p,line3_p,line4_p,line5_p,amount,posx1,posx2,posx3,posx4,posx5,center_to_center,edge_to_edge,w,stim_length,eccentricity,trial_type,deg_to_pix_index,posx1_in_pix,posx2_in_pix,posx3_in_pix,posx4_in_pix,posx5_in_pix,line1,line2,line3,line4,line5,posx,setsize_cobdi,trials.thisRepN,trials.thisTrialN,trials.thisN,trials.thisIndex,blocks.thisRepN,blocks.thisTrialN,blocks.thisN,blocks.thisIndex,loop.thisRepN,loop.thisTrialN,loop.thisN,loop.thisIndex,first.thisRepN,first.thisTrialN,first.thisN,first.thisIndex,second.thisRepN,second.thisTrialN,second.thisN,second.thisIndex,thisRow.t,notes,key_resp_3.started,key_resp_3.keys,key_resp_3.rt,key_resp.keys,key_resp.rt,response,starting_width_deg,response_width_degree,response_width_pixel,next_5.keys,next_5.rt,key_resp_4.keys,key_resp_4.rt,text_3.started,text_4.started,key_resp_2.started,text_2.started,key_resp_2.keys,key_resp_2.rt,adjusting.started,next.keys,next.rt,text_control2.started,key_resp.started,key_resp.corr,text_bye.started,text_bye.stopped,participant,age,gender,resp_group,date,expName,psychopyVersion,frameRate,
,,,,,,,,,,,,,,,,,,,,,,,,,,,,,,,,,,,,,,,,,,,,,,,,,,,,,,,,,,,,,,,815.1003026999533,c,129.11354289995506,,,,,,,,,,,,,,,,,,,,,,,,,p311,18,female,left_right_width,2025-11-30_09h03.58.747,exp1,2023.1.0,59.97724461373291,
3,9.5,10,10.5,0,0,0.5,0.4,0.1,1.1,10,9,9,9,0,0,,,,,,,,,,,,,,,,,,,,,,,,,,0,0,0,0,,,,,,,,,,,,,,,,,,,,,,3,4.043646000092849,3,0.2,0.10000000000000002,3.60429,return,5.993168800021522,,,,,,,,,,,,,,,,,p311,18,female,left_right_width,2025-11-30_09h03.58.747,exp1,2023.1.0,59.97724461373291,
5,9,9.5,10,10.5,11,0.5,0.09999999999999998,0.4,2.4,10,9,9,9,9,9,,,,,,,,,,,,,,,,,,,,,,,,,,0,1,1,8,,,,,,,,,,,,,,,,,,,,,,4,2.838933299994096,4,0.2,0.44999999999999996,16.21932,return,3.58787809999194,,,,,,,,,,,,,,,,,p311,18,female,left_right_width,2025-11-30_09h03.58.747,exp1,2023.1.0,59.97724461373291,
5,9.25,9.625,10,10.375,10.75,0.375,0.125,0.25,1.75,10,9,9,9,9,9,,,,,,,,,,,,,,,,,,,,,,,,,,0,2,2,6,,,,,,,,,,,,,,,,,,,,,,5,2.8235496999695897,5,0.4,0.35000000000000003,12.61502,return,4.436308900010772,,,,,,,,,,,,,,,,,p311,18,female,left_right_width,2025-11-30_09h03.58.747,exp1,2023.1.0,59.97724461373291,
4,8.65,9.55,10.45,11.35,0,0.9,0.5,0.4,3.1,10,9,9,9,9,0,,,,,,,,,,,,,,,,,,,,,,,,,,0,3,3,5,,,,,,,,,,,,,,,,,,,,,,5,2.8049783000024036,5,0.3,0.3,10.81288,return,2.2271982999518514,,,,,,,,,,,,,,,,,p311,18,female,left_right_width,2025-11-30_09h03.58.747,exp1,2023.1.0,59.97724461373291,
4,9.5,9.833333333333334,10.166666666666666,10.5,0,0.33333333333333337,0.23333333333333336,0.1,1.1,10,9,9,9,9,0,,,,,,,,,,,,,,,,,,,,,,,,,,0,4,4,3,,,,,,,,,,,,,,,,,,,,,,4,1.995103600085713,4,0.45,0.15000000000000008,5.40644,return,3.290272800019011,,,,,,,,,,,,,,,,,p311,18,female,left_right_width,2025-11-30_09h03.58.747,exp1,2023.1.0,59.97724461373291,
3,9,10,11,0,0,1,0.9,0.1,2.1,10,9,9,9,0,0,,,,,,,,,,,,,,,,,,,,,,,,,,0,5,5,1,,,,,,,,,,,,,,,,,,,,,,3,1.8370746000437066,3,0.3,0.10000000000000002,3.60429,return,3.954910699976608,,,,,,,,,,,,,,,,,p311,18,female,left_right_width,2025-11-30_09h03.58.747,exp1,2023.1.0,59.97724461373291,
3,8.2,10,11.8,0,0,1.7999999999999998,1.4,0.4,4,10,9,9,9,0,0,,,,,,,,,,,,,,,,,,,,,,,,,,0,6,6,2,,,,,,,,,,,,,,,,,,,,,,3,2.0136051999870688,3,0.35,0.3,10.81288,return,2.524595000082627,,,,,,,,,,,,,,,,,p311,18,female,left_right_width,2025-11-30_09h03.58.747,exp1,2023.1.0,59.97724461373291,
5,8.6,9.3,10,10.7,11.4,0.7,0.29999999999999993,0.4,3.1999999999999997,10,9,9,9,9,9,,,,,,,,,,,,,,,,,,,,,,,,,,0,7,7,7,,,,,,,,,,,,,,,,,,,,,,6,2.282241699984297,6,0.25,0.3,10.81288,return,2.494563600048423,,,,,,,,,,,,,,,,,p311,18,female,left_right_width,2025-11-30_09h03.58.747,exp1,2023.1.0,59.97724461373291,
4,9.25,9.75,10.25,10.75,0,0.5,0.25,0.25,1.75,10,9,9,9,9,0,,,,,,,,,,,,,,,,,,,,,,,,,,0,8,8,4,,,,,,,,,,,,,,,,,,,,,,4,2.567771599977277,4,0.2,0.25,9.01073,return,3.344004499958828,,,,,,,,,,,,,,,,,p311,18,female,left_right_width,2025-11-30_09h03.58.747,exp1,2023.1.0,59.97724461373291,
,,,,,,,,,,,,,,,,,,,,,,,,,,,,,,,,,,,,,,,,,,,,,,,,,,,,,,,,,,,,,,,,,,,,,,,,,,c,225.72021410008892,,,,,,,,,,,,,,,p311,18,female,left_right_width,2025-11-30_09h03.58.747,exp1,2023.1.0,59.97724461373291,
,,,,,,,,,,,,,,,,5,7.8,8.9,10,11.1,12.2,1.1,0.55,0.55,4.95,10,initial,36.05,281,321,361,400,440,9,9,9,9,9,,,,,,,0,0,0,0,0,0,0,34,,,,,,,,,,,,,,5,3.931414299993776,5,0.25,0.35,12.61502,return,2.4616625000489876,,,,,,,,,,,,,,,,,p311,18,female,left_right_width,2025-11-30_09h03.58.747,exp1,2023.1.0,59.97724461373291,
,,,,,,,,,,,,,,,,4,9.1,9.7,10.3,10.9,0,0.6000000000000001,0.20000000000000004,0.4,2.2,10,match,36.05,328,350,371,393,0,9,9,9,9,0,,,,,,,0,0,0,0,0,1,1,16,,,,,,,,,,,,,,4,2.354202099959366,4,0.3,0.35,12.61502,return,4.210189100005664,,,,,,,,,,,,,,,,,p311,18,female,left_right_width,2025-11-30_09h03.58.747,exp1,2023.1.0,59.97724461373291,
,,,,,,,,,,,,,,,,3,8.525,10,11.475,0,0,1.475,1.225,0.25,3.2,10,match,36.05,307,361,414,0,0,9,9,9,0,0,,,,,,,0,0,0,0,0,2,2,45,,,,,,,,,,,,,,3,1.3133612999226898,3,0.3,0.25,9.01073,return,2.171805000049062,,,,,,,,,,,,,,,,,p311,18,female,left_right_width,2025-11-30_09h03.58.747,exp1,2023.1.0,59.97724461373291,
,,,,,,,,,,,,,,,,3,8.9,10,11.1,0,0,1.1,0.55,0.55,2.75,10,initial,36.05,321,361,400,0,0,9,9,9,0,0,,,,,,,0,0,0,0,0,3,3,0,,,,,,,,,,,,,,4,1.4673219000687823,4,0.25,0.35,12.61502,return,5.00827750004828,,,,,,,,,,,,,,,,,p311,18,female,left_right_width,2025-11-30_09h03.58.747,exp1,2023.1.0,59.97724461373291,
,,,,,,,,,,,,,,,,5,8.65,9.325,10,10.675,11.35,0.675,0.275,0.4,3.1,10,match,36.05,312,336,361,385,409,9,9,9,9,9,,,,,,,0,0,0,0,0,4,4,33,,,,,,,,,,,,,,5,1.976552400039509,5,0.4,0.45,16.21932,return,2.3925497999880463,,,,,,,,,,,,,,,,,p311,18,female,left_right_width,2025-11-30_09h03.58.747,exp1,2023.1.0,59.97724461373291,
,,,,,,,,,,,,,,,,5,7.8,8.9,10,11.1,12.2,1.1,0.8500000000000001,0.25,4.65,10,initial,36.05,281,321,361,400,440,9,9,9,9,9,,,,,,,0,0,0,0,0,5,5,36,,,,,,,,,,,,,,6,4.6549812000012025,6,0.5,0.4,14.41717,return,3.1565021999413148,,,,,,,,,,,,,,,,,p311,18,female,left_right_width,2025-11-30_09h03.58.747,exp1,2023.1.0,59.97724461373291,
,,,,,,,,,,,,,,,,5,8.6,9.3,10,10.7,11.4,0.7,0.44999999999999996,0.25,3.05,10,initial,36.05,310,335,361,386,411,9,9,9,9,9,,,,,,,0,0,0,0,0,6,6,42,,,,,,,,,,,,,,6,2.975724200019613,6,0.2,0.3,10.81288,return,2.0543859999161214,,,,,,,,,,,,,,,,,p311,18,female,left_right_width,2025-11-30_09h03.58.747,exp1,2023.1.0,59.97724461373291,
,,,,,,,,,,,,,,,,5,8.275,9.1375,10,10.8625,11.725,0.8625,0.6125,0.25,3.7,10,match,36.05,298,329,361,392,423,9,9,9,9,9,,,,,,,0,0,0,0,0,7,7,22,,,,,,,,,,,,,,5,4.246358099975623,5,0.3,0.3,10.81288,return,6.138506899937056,,,,,,,,,,,,,,,,,p311,18,female,left_right_width,2025-11-30_09h03.58.747,exp1,2023.1.0,59.97724461373291,
,,,,,,,,,,,,,,,,4,8.35,9.45,10.55,11.65,0,1.1,0.7000000000000001,0.4,3.7,10,initial,36.05,301,341,380,420,0,9,9,9,9,0,,,,,,,0,0,0,0,0,8,8,21,,,,,,,,,,,,,,4,1.8262714000884444,4,0.35,0.35,12.61502,return,1.3356686000479385,,,,,,,,,,,,,,,,,p311,18,female,left_right_width,2025-11-30_09h03.58.747,exp1,2023.1.0,59.97724461373291,
,,,,,,,,,,,,,,,,3,9.3,10,10.7,0,0,0.7,0.29999999999999993,0.4,1.8,10,initial,36.05,335,361,386,0,0,9,9,9,0,0,,,,,,,0,0,0,0,0,9,9,9,,,,,,,,,,,,,,3,1.4303275999845937,3,0.55,0.45,16.21932,return,3.3083280998980626,,,,,,,,,,,,,,,,,p311,18,female,left_right_width,2025-11-30_09h03.58.747,exp1,2023.1.0,59.97724461373291,
,,,,,,,,,,,,,,,,4,9.1,9.7,10.3,10.9,0,0.5999999999999999,0.3499999999999999,0.25,2.05,10,match,36.05,328,350,371,393,0,9,9,9,9,0,,,,,,,0,0,0,0,0,10,10,14,,,,,,,,,,,,,,5,1.8025380000472069,5,0.3,0.25,9.01073,return,2.5444894999964163,,,,,,,,,,,,,,,,,p311,18,female,left_right_width,2025-11-30_09h03.58.747,exp1,2023.1.0,59.97724461373291,
,,,,,,,,,,,,,,,,4,8.35,9.45,10.55,11.65,0,1.1,0.55,0.55,3.8500000000000005,10,initial,36.05,301,341,380,420,0,9,9,9,9,0,,,,,,,0,0,0,0,0,11,11,17,,,,,,,,,,,,,,4,2.9361821999773383,4,0.35,0.39999999999999997,14.41717,return,2.3541166000068188,,,,,,,,,,,,,,,,,p311,18,female,left_right_width,2025-11-30_09h03.58.747,exp1,2023.1.0,59.97724461373291,
,,,,,,,,,,,,,,,,4,9.3,9.766666666666667,10.233333333333333,10.7,0,0.4666666666666667,0.06666666666666665,0.4,1.8,10,match,36.05,335,352,369,386,0,9,9,9,9,0,,,,,,,0,0,0,0,0,12,12,10,,,,,,,,,,,,,,4,2.304972500074655,4,0.5,0.45,16.21932,return,1.7475065999897197,,,,,,,,,,,,,,,,,p311,18,female,left_right_width,2025-11-30_09h03.58.747,exp1,2023.1.0,59.97724461373291,
,,,,,,,,,,,,,,,,4,8.65,9.55,10.45,11.35,0,0.9,0.65,0.25,2.95,10,initial,36.05,312,344,377,409,0,9,9,9,9,0,,,,,,,0,0,0,0,0,13,13,30,,,,,,,,,,,,,,5,3.2963127000257373,5,0.4,0.30000000000000004,10.81288,return,2.747645299998112,,,,,,,,,,,,,,,,,p311,18,female,left_right_width,2025-11-30_09h03.58.747,exp1,2023.1.0,59.97724461373291,
,,,,,,,,,,,,,,,,3,8.9,10,11.1,0,0,1.1,0.8500000000000001,0.25,2.45,10,initial,36.05,321,361,400,0,0,9,9,9,0,0,,,,,,,0,0,0,0,0,14,14,2,,,,,,,,,,,,,,4,2.961589799961075,4,0.2,0.2,7.20859,return,2.794126700027846,,,,,,,,,,,,,,,,,p311,18,female,left_right_width,2025-11-30_09h03.58.747,exp1,2023.1.0,59.97724461373291,
,,,,,,,,,,,,,,,,3,8.6,10,11.4,0,0,1.4,0.85,0.55,3.35,10,match,36.05,310,361,411,0,0,9,9,9,0,0,,,,,,,0,0,0,0,0,15,15,41,,,,,,,,,,,,,,3,1.7778013000497594,3,0.45,0.5,18.02146,return,3.352891299990006,,,,,,,,,,,,,,,,,p311,18,female,left_right_width,2025-11-30_09h03.58.747,exp1,2023.1.0,59.97724461373291,
,,,,,,,,,,,,,,,,3,7.8,10,12.2,0,0,2.2,1.65,0.55,4.95,10,match,36.05,281,361,440,0,0,9,9,9,0,0,,,,,,,0,0,0,0,0,16,16,35,,,,,,,,,,,,,,3,1.7805858999490738,3,0.2,0.39999999999999997,14.41717,return,4.412208899972029,,,,,,,,,,,,,,,,,p311,18,female,left_right_width,2025-11-30_09h03.58.747,exp1,2023.1.0,59.97724461373291,
,,,,,,,,,,,,,,,,5,8.6,9.3,10,10.7,11.4,0.7,0.29999999999999993,0.4,3.1999999999999997,10,initial,36.05,310,335,361,386,411,9,9,9,9,9,,,,,,,0,0,0,0,0,17,17,44,,,,,,,,,,,,,,6,3.5323868999257684,6,0.4,0.35000000000000003,12.61502,return,1.9345204000128433,,,,,,,,,,,,,,,,,p311,18,female,left_right_width,2025-11-30_09h03.58.747,exp1,2023.1.0,59.97724461373291,
,,,,,,,,,,,,,,,,3,8.2,10,11.8,0,0,1.7999999999999998,1.4,0.4,4,10,match,36.05,296,361,425,0,0,9,9,9,0,0,,,,,,,0,0,0,0,0,18,18,51,,,,,,,,,,,,,,3,2.06287899997551,3,0.5,0.4,14.41717,return,1.9791774998884648,,,,,,,,,,,,,,,,,p311,18,female,left_right_width,2025-11-30_09h03.58.747,exp1,2023.1.0,59.97724461373291,
,,,,,,,,,,,,,,,,3,9.1,10,10.9,0,0,0.9,0.35,0.55,2.35,10,initial,36.05,328,361,393,0,0,9,9,9,0,0,,,,,,,0,0,0,0,0,19,19,11,,,,,,,,,,,,,,4,1.5166625999845564,4,0.35,0.44999999999999996,16.21932,return,2.2085470999591053,,,,,,,,,,,,,,,,,p311,18,female,left_right_width,2025-11-30_09h03.58.747,exp1,2023.1.0,59.97724461373291,
,,,,,,,,,,,,,,,,5,8.65,9.325,10,10.675,11.35,0.675,0.125,0.55,3.25,10,match,36.05,312,336,361,385,409,9,9,9,9,9,,,,,,,0,0,0,0,0,20,20,29,,,,,,,,,,,,,,6,3.6493351000826806,6,0.55,0.45,16.21932,return,2.525449199951254,,,,,,,,,,,,,,,,,p311,18,female,left_right_width,2025-11-30_09h03.58.747,exp1,2023.1.0,59.97724461373291,
,,,,,,,,,,,,,,,,5,8.2,9.1,10,10.9,11.8,0.9,0.5,0.4,4,10,initial,36.05,296,328,361,393,425,9,9,9,9,9,,,,,,,0,0,0,0,0,21,21,50,,,,,,,,,,,,,,7,3.692580300034024,7,0.3,0.35,12.61502,return,2.8708419000031427,,,,,,,,,,,,,,,,,p311,18,female,left_right_width,2025-11-30_09h03.58.747,exp1,2023.1.0,59.97724461373291,
,,,,,,,,,,,,,,,,4,8.65,9.55,10.45,11.35,0,0.9,0.35,0.55,3.25,10,initial,36.05,312,344,377,409,0,9,9,9,9,0,,,,,,,0,0,0,0,0,22,22,28,,,,,,,,,,,,,,4,2.917217700043693,4,0.35,0.39999999999999997,14.41717,return,2.8955755999777466,,,,,,,,,,,,,,,,,p311,18,female,left_right_width,2025-11-30_09h03.58.747,exp1,2023.1.0,59.97724461373291,
,,,,,,,,,,,,,,,,3,8.6,10,11.4,0,0,1.4,1.15,0.25,3.05,10,match,36.05,310,361,411,0,0,9,9,9,0,0,,,,,,,0,0,0,0,0,23,23,43,,,,,,,,,,,,,,4,1.8655545000219718,4,0.5,0.20000000000000007,7.20859,return,3.8212572999764234,,,,,,,,,,,,,,,,,p311,18,female,left_right_width,2025-11-30_09h03.58.747,exp1,2023.1.0,59.97724461373291,
,,,,,,,,,,,,,,,,5,8.2,9.1,10,10.9,11.8,0.9,0.65,0.25,3.85,10,initial,36.05,296,328,361,393,425,9,9,9,9,9,,,,,,,0,0,0,0,0,24,24,48,,,,,,,,,,,,,,6,3.6235673000337556,6,0.4,0.20000000000000007,7.20859,return,1.8929105000570416,,,,,,,,,,,,,,,,,p311,18,female,left_right_width,2025-11-30_09h03.58.747,exp1,2023.1.0,59.97724461373291,
,,,,,,,,,,,,,,,,4,9.3,9.766666666666667,10.233333333333333,10.7,0,0.4666666666666667,0.21666666666666665,0.25,1.65,10,match,36.05,335,352,369,386,0,9,9,9,9,0,,,,,,,0,0,0,0,0,25,25,8,,,,,,,,,,,,,,4,2.762418699916452,4,0.4,0.25000000000000006,9.01073,return,1.898824599920772,,,,,,,,,,,,,,,,,p311,18,female,left_right_width,2025-11-30_09h03.58.747,exp1,2023.1.0,59.97724461373291,
,,,,,,,,,,,,,,,,5,8.95,9.475,10,10.525,11.05,0.525,0.275,0.25,2.35,10,match,36.05,323,342,361,379,398,9,9,9,9,9,,,,,,,0,0,0,0,0,26,26,25,,,,,,,,,,,,,,5,4.4768796999705955,5,0.25,0.25,9.01073,return,1.1931139000225812,,,,,,,,,,,,,,,,,p311,18,female,left_right_width,2025-11-30_09h03.58.747,exp1,2023.1.0,59.97724461373291,
,,,,,,,,,,,,,,,,3,8.2,10,11.8,0,0,1.8,1.55,0.25,3.85,10,match,36.05,296,361,425,0,0,9,9,9,0,0,,,,,,,0,0,0,0,0,27,27,49,,,,,,,,,,,,,,4,1.883967199944891,4,0.3,0.25,9.01073,return,1.4864348999690264,,,,,,,,,,,,,,,,,p311,18,female,left_right_width,2025-11-30_09h03.58.747,exp1,2023.1.0,59.97724461373291,
,,,,,,,,,,,,,,,,4,8.95,9.65,10.35,11.05,0,0.7,0.1499999999999999,0.55,2.65,10,initial,36.05,323,348,373,398,0,9,9,9,9,0,,,,,,,0,0,0,0,0,28,28,23,,,,,,,,,,,,,,4,2.246345699997619,4,0.5,0.4,14.41717,return,1.628046700032428,,,,,,,,,,,,,,,,,p311,18,female,left_right_width,2025-11-30_09h03.58.747,exp1,2023.1.0,59.97724461373291,
,,,,,,,,,,,,,,,,5,7.8,8.9,10,11.1,12.2,1.1,0.7000000000000001,0.4,4.800000000000001,10,initial,36.05,281,321,361,400,440,9,9,9,9,9,,,,,,,0,0,0,0,0,29,29,38,,,,,,,,,,,,,,6,3.1717675999971107,6,0.2,0.3,10.81288,return,1.6050096000544727,,,,,,,,,,,,,,,,,p311,18,female,left_right_width,2025-11-30_09h03.58.747,exp1,2023.1.0,59.97724461373291,
,,,,,,,,,,,,,,,,5,8.2,9.1,10,10.9,11.8,0.9,0.35,0.55,4.15,10,initial,36.05,296,328,361,393,425,9,9,9,9,9,,,,,,,0,0,0,0,0,30,30,46,,,,,,,,,,,,,,6,2.928586299996823,6,0.45,0.4,14.41717,return,1.8343162999954075,,,,,,,,,,,,,,,,,p311,18,female,left_right_width,2025-11-30_09h03.58.747,exp1,2023.1.0,59.97724461373291,
,,,,,,,,,,,,,,,,4,8.9,9.633333333333333,10.366666666666667,11.1,0,0.7333333333333334,0.4833333333333334,0.25,2.45,10,match,36.05,321,347,374,400,0,9,9,9,9,0,,,,,,,0,0,0,0,0,31,31,3,,,,,,,,,,,,,,5,2.4109307000180706,5,0.2,0.25,9.01073,return,1.3051850999472663,,,,,,,,,,,,,,,,,p311,18,female,left_right_width,2025-11-30_09h03.58.747,exp1,2023.1.0,59.97724461373291,
,,,,,,,,,,,,,,,,4,8.95,9.65,10.35,11.05,0,0.7,0.44999999999999996,0.25,2.3499999999999996,10,initial,36.05,323,348,373,398,0,9,9,9,9,0,,,,,,,0,0,0,0,0,32,32,24,,,,,,,,,,,,,,4,3.0936335999285802,4,0.35,0.25,9.01073,return,1.4326599999330938,,,,,,,,,,,,,,,,,p311,18,female,left_right_width,2025-11-30_09h03.58.747,exp1,2023.1.0,59.97724461373291,
,,,,,,,,,,,,,,,,3,9.3,10,10.7,0,0,0.7,0.44999999999999996,0.25,1.65,10,initial,36.05,335,361,386,0,0,9,9,9,0,0,,,,,,,0,0,0,0,0,33,33,7,,,,,,,,,,,,,,3,2.103679500054568,3,0.2,0.2,7.20859,return,0.946462000021711,,,,,,,,,,,,,,,,,p311,18,female,left_right_width,2025-11-30_09h03.58.747,exp1,2023.1.0,59.97724461373291,
,,,,,,,,,,,,,,,,4,8.95,9.65,10.35,11.05,0,0.7,0.29999999999999993,0.4,2.5,10,initial,36.05,323,348,373,398,0,9,9,9,9,0,,,,,,,0,0,0,0,0,34,34,26,,,,,,,,,,,,,,5,2.612925700028427,5,0.45,0.30000000000000004,10.81288,return,3.051415399997495,,,,,,,,,,,,,,,,,p311,18,female,left_right_width,2025-11-30_09h03.58.747,exp1,2023.1.0,59.97724461373291,
,,,,,,,,,,,,,,,,4,9.1,9.7,10.3,10.9,0,0.6,0.04999999999999997,0.55,2.35,10,match,36.05,328,350,371,393,0,9,9,9,9,0,,,,,,,0,0,0,0,0,35,35,12,,,,,,,,,,,,,,3,2.0363356999587268,3,0.4,0.5,18.02146,return,5.266363499918953,,,,,,,,,,,,,,,,,p311,18,female,left_right_width,2025-11-30_09h03.58.747,exp1,2023.1.0,59.97724461373291,
,,,,,,,,,,,,,,,,3,8.9,10,11.1,0,0,1.1,0.7000000000000001,0.4,2.6000000000000005,10,initial,36.05,321,361,400,0,0,9,9,9,0,0,,,,,,,0,0,0,0,0,36,36,4,,,,,,,,,,,,,,2,3.4326133000431582,2,0.55,0.45,16.21932,return,2.463672099984251,,,,,,,,,,,,,,,,,p311,18,female,left_right_width,2025-11-30_09h03.58.747,exp1,2023.1.0,59.97724461373291,
,,,,,,,,,,,,,,,,4,8.825,9.608333333333333,10.391666666666667,11.175,0,0.7833333333333333,0.5333333333333333,0.25,2.6,10,match,36.05,318,346,375,403,0,9,9,9,9,0,,,,,,,0,0,0,0,0,37,37,5,,,,,,,,,,,,,,4,3.7577510999981314,4,0.4,0.35000000000000003,12.61502,return,2.886228100047447,,,,,,,,,,,,,,,,,p311,18,female,left_right_width,2025-11-30_09h03.58.747,exp1,2023.1.0,59.97724461373291,
,,,,,,,,,,,,,,,,3,9.3,10,10.7,0,0,0.7,0.1499999999999999,0.55,1.95,10,initial,36.05,335,361,386,0,0,9,9,9,0,0,,,,,,,0,0,0,0,0,38,38,6,,,,,,,,,,,,,,2,1.350033099995926,2,0.55,0.5,18.02146,return,3.215349900070578,,,,,,,,,,,,,,,,,p311,18,female,left_right_width,2025-11-30_09h03.58.747,exp1,2023.1.0,59.97724461373291,
,,,,,,,,,,,,,,,,4,8.65,9.55,10.45,11.35,0,0.9,0.5,0.4,3.1,10,initial,36.05,312,344,377,409,0,9,9,9,9,0,,,,,,,0,0,0,0,0,39,39,32,,,,,,,,,,,,,,4,1.3517511000391096,4,0.25,0.35,12.61502,return,2.3743780000368133,,,,,,,,,,,,,,,,,p311,18,female,left_right_width,2025-11-30_09h03.58.747,exp1,2023.1.0,59.97724461373291,
,,,,,,,,,,,,,,,,5,8.6,9.3,10,10.7,11.4,0.7,0.1499999999999999,0.55,3.3499999999999996,10,initial,36.05,310,335,361,386,411,9,9,9,9,9,,,,,,,0,0,0,0,0,40,40,40,,,,,,,,,,,,,,6,2.1788216000422835,6,0.4,0.5,18.02146,return,4.746867400011979,,,,,,,,,,,,,,,,,p311,18,female,left_right_width,2025-11-30_09h03.58.747,exp1,2023.1.0,59.97724461373291,
,,,,,,,,,,,,,,,,5,8.95,9.475,10,10.525,11.05,0.525,0.125,0.4,2.5,10,match,36.05,323,342,361,379,398,9,9,9,9,9,,,,,,,0,0,0,0,0,41,41,27,,,,,,,,,,,,,,6,3.4825701999943703,6,0.25,0.35,12.61502,return,1.7585293999873102,,,,,,,,,,,,,,,,,p311,18,female,left_right_width,2025-11-30_09h03.58.747,exp1,2023.1.0,59.97724461373291,
,,,,,,,,,,,,,,,,3,7.8,10,12.2,0,0,2.2,1.9500000000000002,0.25,4.65,10,match,36.05,281,361,440,0,0,9,9,9,0,0,,,,,,,0,0,0,0,0,42,42,37,,,,,,,,,,,,,,3,1.5278007999295369,3,0.35,0.3,10.81288,return,1.6904291999526322,,,,,,,,,,,,,,,,,p311,18,female,left_right_width,2025-11-30_09h03.58.747,exp1,2023.1.0,59.97724461373291,
,,,,,,,,,,,,,,,,3,7.800000000000001,10,12.2,0,0,2.1999999999999997,1.7999999999999998,0.4,4.8,10,match,36.05,281,361,440,0,0,9,9,9,0,0,,,,,,,0,0,0,0,0,43,43,39,,,,,,,,,,,,,,3,1.427866099984385,3,0.2,0.3,10.81288,return,1.3063525999896228,,,,,,,,,,,,,,,,,p311,18,female,left_right_width,2025-11-30_09h03.58.747,exp1,2023.1.0,59.97724461373291,
,,,,,,,,,,,,,,,,3,9.1,10,10.9,0,0,0.9,0.65,0.25,2.05,10,initial,36.05,328,361,393,0,0,9,9,9,0,0,,,,,,,0,0,0,0,0,44,44,13,,,,,,,,,,,,,,3,1.9700334999943152,3,0.45,0.35000000000000003,12.61502,return,1.906382399960421,,,,,,,,,,,,,,,,,p311,18,female,left_right_width,2025-11-30_09h03.58.747,exp1,2023.1.0,59.97724461373291,
,,,,,,,,,,,,,,,,4,8.9,9.633333333333333,10.366666666666667,11.1,0,0.7333333333333333,0.18333333333333326,0.55,2.75,10,match,36.05,321,347,374,400,0,9,9,9,9,0,,,,,,,0,0,0,0,0,45,45,1,,,,,,,,,,,,,,4,2.134450600016862,4,0.35,0.39999999999999997,14.41717,return,1.7606207999633625,,,,,,,,,,,,,,,,,p311,18,female,left_right_width,2025-11-30_09h03.58.747,exp1,2023.1.0,59.97724461373291,
,,,,,,,,,,,,,,,,3,8.2,10,11.8,0,0,1.8,1.25,0.55,4.15,10,match,36.05,296,361,425,0,0,9,9,9,0,0,,,,,,,0,0,0,0,0,46,46,47,,,,,,,,,,,,,,4,2.1130374999484047,4,0.2,0.35,12.61502,return,4.667662000050768,,,,,,,,,,,,,,,,,p311,18,female,left_right_width,2025-11-30_09h03.58.747,exp1,2023.1.0,59.97724461373291,
,,,,,,,,,,,,,,,,3,9.1,10,10.9,0,0,0.9,0.5,0.4,2.2,10,initial,36.05,328,361,393,0,0,9,9,9,0,0,,,,,,,0,0,0,0,0,47,47,15,,,,,,,,,,,,,,3,2.711716700112447,3,0.2,0.35,12.61502,return,4.73103139991872,,,,,,,,,,,,,,,,,p311,18,female,left_right_width,2025-11-30_09h03.58.747,exp1,2023.1.0,59.97724461373291,
,,,,,,,,,,,,,,,,5,8.35,9.175,10,10.825,11.65,0.825,0.575,0.25,3.55,10,match,36.05,301,331,361,390,420,9,9,9,9,9,,,,,,,0,0,0,0,0,48,48,20,,,,,,,,,,,,,,5,1.8256709999404848,5,0.55,0.15000000000000008,5.40644,return,5.862932700081728,,,,,,,,,,,,,,,,,p311,18,female,left_right_width,2025-11-30_09h03.58.747,exp1,2023.1.0,59.97724461373291,
,,,,,,,,,,,,,,,,5,8.65,9.325,10,10.675,11.35,0.675,0.42500000000000004,0.25,2.95,10,match,36.05,312,336,361,385,409,9,9,9,9,9,,,,,,,0,0,0,0,0,49,49,31,,,,,,,,,,,,,,6,4.949802599963732,6,0.5,0.10000000000000007,3.60429,return,4.510526900063269,,,,,,,,,,,,,,,,,p311,18,female,left_right_width,2025-11-30_09h03.58.747,exp1,2023.1.0,59.97724461373291,
,,,,,,,,,,,,,,,,5,8.35,9.175,10,10.825,11.65,0.8250000000000001,0.275,0.55,3.85,10,match,36.05,301,331,361,390,420,9,9,9,9,9,,,,,,,0,0,0,0,0,50,50,18,,,,,,,,,,,,,,5,1.8123710000654683,5,0.3,0.39999999999999997,14.41717,return,1.4177097000647336,,,,,,,,,,,,,,,,,p311,18,female,left_right_width,2025-11-30_09h03.58.747,exp1,2023.1.0,59.97724461373291,
,,,,,,,,,,,,,,,,4,8.35,9.45,10.55,11.65,0,1.1,0.8500000000000001,0.25,3.5500000000000003,10,initial,36.05,301,341,380,420,0,9,9,9,9,0,,,,,,,0,0,0,0,0,51,51,19,,,,,,,,,,,,,,5,2.2753845000406727,5,0.25,0.2,7.20859,return,2.3428322999970987,,,,,,,,,,,,,,,,,p311,18,female,left_right_width,2025-11-30_09h03.58.747,exp1,2023.1.0,59.97724461373291,
,,,,,,,,,,,,,,,,,,,,,,,,,,,,,,,,,,,,,,,,,,,,,0,0,0,0,,,,,,,,,,,,,,,,,,,,,,,,,,,,1603.4687306999695,1603.4687306999695,1603.4687306999695,,,,,,,,,,,,p311,18,female,left_right_width,2025-11-30_09h03.58.747,exp1,2023.1.0,59.97724461373291,
,,,,,,,,,,,,,,,,5,8.6,9.3,10,10.7,11.4,0.7,0.1499999999999999,0.55,3.3499999999999996,10,initial,36.05,310,335,361,386,411,9,9,9,9,9,,,,,,,1,0,1,0,0,0,0,40,,,,,,,,,,,,,,5,1.8585027999943122,5,0.45,0.5,18.02146,return,1.8478742999723181,,,,,,,,,,,,,,,,,p311,18,female,left_right_width,2025-11-30_09h03.58.747,exp1,2023.1.0,59.97724461373291,
,,,,,,,,,,,,,,,,5,8.65,9.325,10,10.675,11.35,0.675,0.42500000000000004,0.25,2.95,10,match,36.05,312,336,361,385,409,9,9,9,9,9,,,,,,,1,0,1,0,0,1,1,31,,,,,,,,,,,,,,6,2.231040299986489,6,0.25,0.25,9.01073,return,1.6603478000033647,,,,,,,,,,,,,,,,,p311,18,female,left_right_width,2025-11-30_09h03.58.747,exp1,2023.1.0,59.97724461373291,
,,,,,,,,,,,,,,,,4,8.95,9.65,10.35,11.05,0,0.7,0.44999999999999996,0.25,2.3499999999999996,10,initial,36.05,323,348,373,398,0,9,9,9,9,0,,,,,,,1,0,1,0,0,2,2,24,,,,,,,,,,,,,,4,2.5776032999856398,4,0.25,0.2,7.20859,return,1.6405832999153063,,,,,,,,,,,,,,,,,p311,18,female,left_right_width,2025-11-30_09h03.58.747,exp1,2023.1.0,59.97724461373291,
,,,,,,,,,,,,,,,,5,8.275,9.1375,10,10.8625,11.725,0.8625,0.6125,0.25,3.7,10,match,36.05,298,329,361,392,423,9,9,9,9,9,,,,,,,1,0,1,0,0,3,3,22,,,,,,,,,,,,,,7,3.342546599917114,7,0.3,0.2,7.20859,return,2.279828400001861,,,,,,,,,,,,,,,,,p311,18,female,left_right_width,2025-11-30_09h03.58.747,exp1,2023.1.0,59.97724461373291,
,,,,,,,,,,,,,,,,5,8.65,9.325,10,10.675,11.35,0.675,0.275,0.4,3.1,10,match,36.05,312,336,361,385,409,9,9,9,9,9,,,,,,,1,0,1,0,0,4,4,33,,,,,,,,,,,,,,5,2.1797569000627846,5,0.5,0.35000000000000003,12.61502,return,2.9071081000147387,,,,,,,,,,,,,,,,,p311,18,female,left_right_width,2025-11-30_09h03.58.747,exp1,2023.1.0,59.97724461373291,
,,,,,,,,,,,,,,,,3,9.3,10,10.7,0,0,0.7,0.44999999999999996,0.25,1.65,10,initial,36.05,335,361,386,0,0,9,9,9,0,0,,,,,,,1,0,1,0,0,5,5,7,,,,,,,,,,,,,,3,1.6104249999625608,3,0.5,0.25000000000000006,9.01073,return,2.4728119999635965,,,,,,,,,,,,,,,,,p311,18,female,left_right_width,2025-11-30_09h03.58.747,exp1,2023.1.0,59.97724461373291,
,,,,,,,,,,,,,,,,4,8.65,9.55,10.45,11.35,0,0.9,0.65,0.25,2.95,10,initial,36.05,312,344,377,409,0,9,9,9,9,0,,,,,,,1,0,1,0,0,6,6,30,,,,,,,,,,,,,,4,1.1680435000453144,4,0.3,0.25,9.01073,return,1.455289600067772,,,,,,,,,,,,,,,,,p311,18,female,left_right_width,2025-11-30_09h03.58.747,exp1,2023.1.0,59.97724461373291,
,,,,,,,,,,,,,,,,4,8.35,9.45,10.55,11.65,0,1.1,0.7000000000000001,0.4,3.7,10,initial,36.05,301,341,380,420,0,9,9,9,9,0,,,,,,,1,0,1,0,0,7,7,21,,,,,,,,,,,,,,4,1.9338780000107363,4,0.3,0.25,9.01073,return,1.679178399965167,,,,,,,,,,,,,,,,,p311,18,female,left_right_width,2025-11-30_09h03.58.747,exp1,2023.1.0,59.97724461373291,
,,,,,,,,,,,,,,,,3,8.9,10,11.1,0,0,1.1,0.55,0.55,2.75,10,initial,36.05,321,361,400,0,0,9,9,9,0,0,,,,,,,1,0,1,0,0,8,8,0,,,,,,,,,,,,,,4,2.2660832999972627,4,0.55,0.30000000000000004,10.81288,return,3.7731630000052974,,,,,,,,,,,,,,,,,p311,18,female,left_right_width,2025-11-30_09h03.58.747,exp1,2023.1.0,59.97724461373291,
,,,,,,,,,,,,,,,,4,8.9,9.633333333333333,10.366666666666667,11.1,0,0.7333333333333333,0.18333333333333326,0.55,2.75,10,match,36.05,321,347,374,400,0,9,9,9,9,0,,,,,,,1,0,1,0,0,9,9,1,,,,,,,,,,,,,,5,2.3752136999974027,5,0.2,0.35,12.61502,return,2.824023599969223,,,,,,,,,,,,,,,,,p311,18,female,left_right_width,2025-11-30_09h03.58.747,exp1,2023.1.0,59.97724461373291,
,,,,,,,,,,,,,,,,5,8.6,9.3,10,10.7,11.4,0.7,0.29999999999999993,0.4,3.1999999999999997,10,initial,36.05,310,335,361,386,411,9,9,9,9,9,,,,,,,1,0,1,0,0,10,10,44,,,,,,,,,,,,,,7,5.52469089999795,7,0.25,0.35,12.61502,return,2.838365999981761,,,,,,,,,,,,,,,,,p311,18,female,left_right_width,2025-11-30_09h03.58.747,exp1,2023.1.0,59.97724461373291,
,,,,,,,,,,,,,,,,5,8.95,9.475,10,10.525,11.05,0.525,0.125,0.4,2.5,10,match,36.05,323,342,361,379,398,9,9,9,9,9,,,,,,,1,0,1,0,0,11,11,27,,,,,,,,,,,,,,5,2.7374616999877617,5,0.3,0.3,10.81288,return,1.1063539000460878,,,,,,,,,,,,,,,,,p311,18,female,left_right_width,2025-11-30_09h03.58.747,exp1,2023.1.0,59.97724461373291,
,,,,,,,,,,,,,,,,3,8.6,10,11.4,0,0,1.4,1.15,0.25,3.05,10,match,36.05,310,361,411,0,0,9,9,9,0,0,,,,,,,1,0,1,0,0,12,12,43,,,,,,,,,,,,,,3,1.7637465000152588,3,0.35,0.2,7.20859,return,2.315770599991083,,,,,,,,,,,,,,,,,p311,18,female,left_right_width,2025-11-30_09h03.58.747,exp1,2023.1.0,59.97724461373291,
,,,,,,,,,,,,,,,,5,8.35,9.175,10,10.825,11.65,0.8250000000000001,0.275,0.55,3.85,10,match,36.05,301,331,361,390,420,9,9,9,9,9,,,,,,,1,0,1,0,0,13,13,18,,,,,,,,,,,,,,7,2.7766283999662846,7,0.5,0.4,14.41717,return,1.897064600023441,,,,,,,,,,,,,,,,,p311,18,female,left_right_width,2025-11-30_09h03.58.747,exp1,2023.1.0,59.97724461373291,
,,,,,,,,,,,,,,,,3,8.9,10,11.1,0,0,1.1,0.8500000000000001,0.25,2.45,10,initial,36.05,321,361,400,0,0,9,9,9,0,0,,,,,,,1,0,1,0,0,14,14,2,,,,,,,,,,,,,,3,1.9935875000664964,3,0.25,0.25,9.01073,return,1.2572370000416413,,,,,,,,,,,,,,,,,p311,18,female,left_right_width,2025-11-30_09h03.58.747,exp1,2023.1.0,59.97724461373291,
,,,,,,,,,,,,,,,,3,8.2,10,11.8,0,0,1.8,1.25,0.55,4.15,10,match,36.05,296,361,425,0,0,9,9,9,0,0,,,,,,,1,0,1,0,0,15,15,47,,,,,,,,,,,,,,3,1.2156421000836417,3,0.2,0.35,12.61502,return,2.9258492999942973,,,,,,,,,,,,,,,,,p311,18,female,left_right_width,2025-11-30_09h03.58.747,exp1,2023.1.0,59.97724461373291,
,,,,,,,,,,,,,,,,4,9.1,9.7,10.3,10.9,0,0.6000000000000001,0.20000000000000004,0.4,2.2,10,match,36.05,328,350,371,393,0,9,9,9,9,0,,,,,,,1,0,1,0,0,16,16,16,,,,,,,,,,,,,,4,1.37036459997762,4,0.4,0.35000000000000003,12.61502,return,1.219085199991241,,,,,,,,,,,,,,,,,p311,18,female,left_right_width,2025-11-30_09h03.58.747,exp1,2023.1.0,59.97724461373291,
,,,,,,,,,,,,,,,,4,8.35,9.45,10.55,11.65,0,1.1,0.8500000000000001,0.25,3.5500000000000003,10,initial,36.05,301,341,380,420,0,9,9,9,9,0,,,,,,,1,0,1,0,0,17,17,19,,,,,,,,,,,,,,5,3.796381799969822,5,0.2,0.25,9.01073,return,1.7232303000055254,,,,,,,,,,,,,,,,,p311,18,female,left_right_width,2025-11-30_09h03.58.747,exp1,2023.1.0,59.97724461373291,
,,,,,,,,,,,,,,,,5,7.8,8.9,10,11.1,12.2,1.1,0.7000000000000001,0.4,4.800000000000001,10,initial,36.05,281,321,361,400,440,9,9,9,9,9,,,,,,,1,0,1,0,0,18,18,38,,,,,,,,,,,,,,6,5.140426400001161,6,0.45,0.30000000000000004,10.81288,return,3.397062800009735,,,,,,,,,,,,,,,,,p311,18,female,left_right_width,2025-11-30_09h03.58.747,exp1,2023.1.0,59.97724461373291,
,,,,,,,,,,,,,,,,3,9.1,10,10.9,0,0,0.9,0.5,0.4,2.2,10,initial,36.05,328,361,393,0,0,9,9,9,0,0,,,,,,,1,0,1,0,0,19,19,15,,,,,,,,,,,,,,3,1.1633820999413729,3,0.25,0.35,12.61502,return,2.8111493999604136,,,,,,,,,,,,,,,,,p311,18,female,left_right_width,2025-11-30_09h03.58.747,exp1,2023.1.0,59.97724461373291,
,,,,,,,,,,,,,,,,3,8.2,10,11.8,0,0,1.7999999999999998,1.4,0.4,4,10,match,36.05,296,361,425,0,0,9,9,9,0,0,,,,,,,1,0,1,0,0,20,20,51,,,,,,,,,,,,,,3,1.219908899976872,3,0.4,0.35000000000000003,12.61502,return,2.0341638000681996,,,,,,,,,,,,,,,,,p311,18,female,left_right_width,2025-11-30_09h03.58.747,exp1,2023.1.0,59.97724461373291,
,,,,,,,,,,,,,,,,3,9.3,10,10.7,0,0,0.7,0.1499999999999999,0.55,1.95,10,initial,36.05,335,361,386,0,0,9,9,9,0,0,,,,,,,1,0,1,0,0,21,21,6,,,,,,,,,,,,,,3,1.0951778000453487,3,0.4,0.45,16.21932,return,3.9471373999258503,,,,,,,,,,,,,,,,,p311,18,female,left_right_width,2025-11-30_09h03.58.747,exp1,2023.1.0,59.97724461373291,
,,,,,,,,,,,,,,,,4,8.9,9.633333333333333,10.366666666666667,11.1,0,0.7333333333333334,0.4833333333333334,0.25,2.45,10,match,36.05,321,347,374,400,0,9,9,9,9,0,,,,,,,1,0,1,0,0,22,22,3,,,,,,,,,,,,,,4,1.8709437000798061,4,0.55,0.25000000000000006,9.01073,return,3.425856600049883,,,,,,,,,,,,,,,,,p311,18,female,left_right_width,2025-11-30_09h03.58.747,exp1,2023.1.0,59.97724461373291,
,,,,,,,,,,,,,,,,3,9.1,10,10.9,0,0,0.9,0.35,0.55,2.35,10,initial,36.05,328,361,393,0,0,9,9,9,0,0,,,,,,,1,0,1,0,0,23,23,11,,,,,,,,,,,,,,2,2.3153458999004215,2,0.5,0.45,16.21932,return,2.396548500051722,,,,,,,,,,,,,,,,,p311,18,female,left_right_width,2025-11-30_09h03.58.747,exp1,2023.1.0,59.97724461373291,
,,,,,,,,,,,,,,,,5,7.8,8.9,10,11.1,12.2,1.1,0.8500000000000001,0.25,4.65,10,initial,36.05,281,321,361,400,440,9,9,9,9,9,,,,,,,1,0,1,0,0,24,24,36,,,,,,,,,,,,,,5,2.96038160007447,5,0.35,0.2,7.20859,return,2.0892041999613866,,,,,,,,,,,,,,,,,p311,18,female,left_right_width,2025-11-30_09h03.58.747,exp1,2023.1.0,59.97724461373291,
,,,,,,,,,,,,,,,,5,8.2,9.1,10,10.9,11.8,0.9,0.65,0.25,3.85,10,initial,36.05,296,328,361,393,425,9,9,9,9,9,,,,,,,1,0,1,0,0,25,25,48,,,,,,,,,,,,,,6,3.2698705999646336,6,0.3,0.2,7.20859,return,1.5551677000476047,,,,,,,,,,,,,,,,,p311,18,female,left_right_width,2025-11-30_09h03.58.747,exp1,2023.1.0,59.97724461373291,
,,,,,,,,,,,,,,,,3,9.1,10,10.9,0,0,0.9,0.65,0.25,2.05,10,initial,36.05,328,361,393,0,0,9,9,9,0,0,,,,,,,1,0,1,0,0,26,26,13,,,,,,,,,,,,,,4,1.5634429999627173,4,0.4,0.20000000000000007,7.20859,return,4.412424799986184,,,,,,,,,,,,,,,,,p311,18,female,left_right_width,2025-11-30_09h03.58.747,exp1,2023.1.0,59.97724461373291,
,,,,,,,,,,,,,,,,4,8.95,9.65,10.35,11.05,0,0.7,0.29999999999999993,0.4,2.5,10,initial,36.05,323,348,373,398,0,9,9,9,9,0,,,,,,,1,0,1,0,0,27,27,26,,,,,,,,,,,,,,4,1.7559172000037506,4,0.4,0.30000000000000004,10.81288,return,2.5804340000031516,,,,,,,,,,,,,,,,,p311,18,female,left_right_width,2025-11-30_09h03.58.747,exp1,2023.1.0,59.97724461373291,
,,,,,,,,,,,,,,,,4,9.3,9.766666666666667,10.233333333333333,10.7,0,0.4666666666666667,0.21666666666666665,0.25,1.65,10,match,36.05,335,352,369,386,0,9,9,9,9,0,,,,,,,1,0,1,0,0,28,28,8,,,,,,,,,,,,,,5,2.785153800039552,5,0.35,0.25,9.01073,return,1.3451124000130221,,,,,,,,,,,,,,,,,p311,18,female,left_right_width,2025-11-30_09h03.58.747,exp1,2023.1.0,59.97724461373291,
,,,,,,,,,,,,,,,,3,8.9,10,11.1,0,0,1.1,0.7000000000000001,0.4,2.6000000000000005,10,initial,36.05,321,361,400,0,0,9,9,9,0,0,,,,,,,1,0,1,0,0,29,29,4,,,,,,,,,,,,,,4,1.4442400000989437,4,0.45,0.30000000000000004,10.81288,return,3.786188800004311,,,,,,,,,,,,,,,,,p311,18,female,left_right_width,2025-11-30_09h03.58.747,exp1,2023.1.0,59.97724461373291,
,,,,,,,,,,,,,,,,3,7.800000000000001,10,12.2,0,0,2.1999999999999997,1.7999999999999998,0.4,4.8,10,match,36.05,281,361,440,0,0,9,9,9,0,0,,,,,,,1,0,1,0,0,30,30,39,,,,,,,,,,,,,,3,1.513344999984838,3,0.35,0.35,12.61502,return,1.3712977999821305,,,,,,,,,,,,,,,,,p311,18,female,left_right_width,2025-11-30_09h03.58.747,exp1,2023.1.0,59.97724461373291,
,,,,,,,,,,,,,,,,4,9.3,9.766666666666667,10.233333333333333,10.7,0,0.4666666666666667,0.06666666666666665,0.4,1.8,10,match,36.05,335,352,369,386,0,9,9,9,9,0,,,,,,,1,0,1,0,0,31,31,10,,,,,,,,,,,,,,4,1.9010317999636754,4,0.35,0.39999999999999997,14.41717,return,2.080313300015405,,,,,,,,,,,,,,,,,p311,18,female,left_right_width,2025-11-30_09h03.58.747,exp1,2023.1.0,59.97724461373291,
,,,,,,,,,,,,,,,,4,8.65,9.55,10.45,11.35,0,0.9,0.35,0.55,3.25,10,initial,36.05,312,344,377,409,0,9,9,9,9,0,,,,,,,1,0,1,0,0,32,32,28,,,,,,,,,,,,,,5,1.4403178999200463,5,0.2,0.39999999999999997,14.41717,return,3.540475499932654,,,,,,,,,,,,,,,,,p311,18,female,left_right_width,2025-11-30_09h03.58.747,exp1,2023.1.0,59.97724461373291,
,,,,,,,,,,,,,,,,4,9.1,9.7,10.3,10.9,0,0.6,0.04999999999999997,0.55,2.35,10,match,36.05,328,350,371,393,0,9,9,9,9,0,,,,,,,1,0,1,0,0,33,33,12,,,,,,,,,,,,,,3,1.7161044999957085,3,0.3,0.5499999999999999,19.82361,return,2.5591205999953672,,,,,,,,,,,,,,,,,p311,18,female,left_right_width,2025-11-30_09h03.58.747,exp1,2023.1.0,59.97724461373291,
,,,,,,,,,,,,,,,,4,8.35,9.45,10.55,11.65,0,1.1,0.55,0.55,3.8500000000000005,10,initial,36.05,301,341,380,420,0,9,9,9,9,0,,,,,,,1,0,1,0,0,34,34,17,,,,,,,,,,,,,,4,3.090574000030756,4,0.5,0.55,19.82361,return,2.469518099911511,,,,,,,,,,,,,,,,,p311,18,female,left_right_width,2025-11-30_09h03.58.747,exp1,2023.1.0,59.97724461373291,
,,,,,,,,,,,,,,,,5,8.6,9.3,10,10.7,11.4,0.7,0.44999999999999996,0.25,3.05,10,initial,36.05,310,335,361,386,411,9,9,9,9,9,,,,,,,1,0,1,0,0,35,35,42,,,,,,,,,,,,,,5,1.3237766999518499,5,0.45,0.25000000000000006,9.01073,return,2.484723100089468,,,,,,,,,,,,,,,,,p311,18,female,left_right_width,2025-11-30_09h03.58.747,exp1,2023.1.0,59.97724461373291,
,,,,,,,,,,,,,,,,5,7.8,8.9,10,11.1,12.2,1.1,0.55,0.55,4.95,10,initial,36.05,281,321,361,400,440,9,9,9,9,9,,,,,,,1,0,1,0,0,36,36,34,,,,,,,,,,,,,,5,1.5620735000120476,5,0.45,0.45,16.21932,return,2.185071900021285,,,,,,,,,,,,,,,,,p311,18,female,left_right_width,2025-11-30_09h03.58.747,exp1,2023.1.0,59.97724461373291,
,,,,,,,,,,,,,,,,5,8.95,9.475,10,10.525,11.05,0.525,0.275,0.25,2.35,10,match,36.05,323,342,361,379,398,9,9,9,9,9,,,,,,,1,0,1,0,0,37,37,25,,,,,,,,,,,,,,6,1.4752479000017047,6,0.55,0.25000000000000006,9.01073,return,2.759684099932201,,,,,,,,,,,,,,,,,p311,18,female,left_right_width,2025-11-30_09h03.58.747,exp1,2023.1.0,59.97724461373291,
,,,,,,,,,,,,,,,,3,8.6,10,11.4,0,0,1.4,0.85,0.55,3.35,10,match,36.05,310,361,411,0,0,9,9,9,0,0,,,,,,,1,0,1,0,0,38,38,41,,,,,,,,,,,,,,5,6.927921499940567,5,0.5,0.30000000000000004,10.81288,return,2.298793400055729,,,,,,,,,,,,,,,,,p311,18,female,left_right_width,2025-11-30_09h03.58.747,exp1,2023.1.0,59.97724461373291,
,,,,,,,,,,,,,,,,3,8.525,10,11.475,0,0,1.475,1.225,0.25,3.2,10,match,36.05,307,361,414,0,0,9,9,9,0,0,,,,,,,1,0,1,0,0,39,39,45,,,,,,,,,,,,,,3,1.679775300086476,3,0.25,0.2,7.20859,return,1.1792578999884427,,,,,,,,,,,,,,,,,p311,18,female,left_right_width,2025-11-30_09h03.58.747,exp1,2023.1.0,59.97724461373291,
,,,,,,,,,,,,,,,,3,9.3,10,10.7,0,0,0.7,0.29999999999999993,0.4,1.8,10,initial,36.05,335,361,386,0,0,9,9,9,0,0,,,,,,,1,0,1,0,0,40,40,9,,,,,,,,,,,,,,2,2.585018299985677,2,0.55,0.30000000000000004,10.81288,return,2.2887987999711186,,,,,,,,,,,,,,,,,p311,18,female,left_right_width,2025-11-30_09h03.58.747,exp1,2023.1.0,59.97724461373291,
,,,,,,,,,,,,,,,,5,8.35,9.175,10,10.825,11.65,0.825,0.575,0.25,3.55,10,match,36.05,301,331,361,390,420,9,9,9,9,9,,,,,,,1,0,1,0,0,41,41,20,,,,,,,,,,,,,,5,3.644146000035107,5,0.5,0.25000000000000006,9.01073,return,2.584686000016518,,,,,,,,,,,,,,,,,p311,18,female,left_right_width,2025-11-30_09h03.58.747,exp1,2023.1.0,59.97724461373291,
,,,,,,,,,,,,,,,,5,8.2,9.1,10,10.9,11.8,0.9,0.35,0.55,4.15,10,initial,36.05,296,328,361,393,425,9,9,9,9,9,,,,,,,1,0,1,0,0,42,42,46,,,,,,,,,,,,,,5,1.4493400000501424,5,0.2,0.39999999999999997,14.41717,return,2.3042439999990165,,,,,,,,,,,,,,,,,p311,18,female,left_right_width,2025-11-30_09h03.58.747,exp1,2023.1.0,59.97724461373291,
,,,,,,,,,,,,,,,,5,8.65,9.325,10,10.675,11.35,0.675,0.125,0.55,3.25,10,match,36.05,312,336,361,385,409,9,9,9,9,9,,,,,,,1,0,1,0,0,43,43,29,,,,,,,,,,,,,,6,2.426998399896547,6,0.55,0.55,19.82361,return,2.408502100035548,,,,,,,,,,,,,,,,,p311,18,female,left_right_width,2025-11-30_09h03.58.747,exp1,2023.1.0,59.97724461373291,
,,,,,,,,,,,,,,,,4,8.825,9.608333333333333,10.391666666666667,11.175,0,0.7833333333333333,0.5333333333333333,0.25,2.6,10,match,36.05,318,346,375,403,0,9,9,9,9,0,,,,,,,1,0,1,0,0,44,44,5,,,,,,,,,,,,,,4,1.2481713000452146,4,0.55,0.30000000000000004,10.81288,return,2.829829499940388,,,,,,,,,,,,,,,,,p311,18,female,left_right_width,2025-11-30_09h03.58.747,exp1,2023.1.0,59.97724461373291,
,,,,,,,,,,,,,,,,3,7.8,10,12.2,0,0,2.2,1.9500000000000002,0.25,4.65,10,match,36.05,281,361,440,0,0,9,9,9,0,0,,,,,,,1,0,1,0,0,45,45,37,,,,,,,,,,,,,,4,1.5829894000198692,4,0.4,0.25000000000000006,9.01073,return,2.0792244999902323,,,,,,,,,,,,,,,,,p311,18,female,left_right_width,2025-11-30_09h03.58.747,exp1,2023.1.0,59.97724461373291,
,,,,,,,,,,,,,,,,3,7.8,10,12.2,0,0,2.2,1.65,0.55,4.95,10,match,36.05,281,361,440,0,0,9,9,9,0,0,,,,,,,1,0,1,0,0,46,46,35,,,,,,,,,,,,,,3,1.08481190004386,3,0.25,0.44999999999999996,16.21932,return,3.009266500012018,,,,,,,,,,,,,,,,,p311,18,female,left_right_width,2025-11-30_09h03.58.747,exp1,2023.1.0,59.97724461373291,
,,,,,,,,,,,,,,,,4,9.1,9.7,10.3,10.9,0,0.5999999999999999,0.3499999999999999,0.25,2.05,10,match,36.05,328,350,371,393,0,9,9,9,9,0,,,,,,,1,0,1,0,0,47,47,14,,,,,,,,,,,,,,3,1.4297454999759793,3,0.5,0.20000000000000007,7.20859,return,2.443645799998194,,,,,,,,,,,,,,,,,p311,18,female,left_right_width,2025-11-30_09h03.58.747,exp1,2023.1.0,59.97724461373291,
,,,,,,,,,,,,,,,,4,8.65,9.55,10.45,11.35,0,0.9,0.5,0.4,3.1,10,initial,36.05,312,344,377,409,0,9,9,9,9,0,,,,,,,1,0,1,0,0,48,48,32,,,,,,,,,,,,,,5,2.99930210004095,5,0.55,0.25000000000000006,9.01073,return,3.934387799934484,,,,,,,,,,,,,,,,,p311,18,female,left_right_width,2025-11-30_09h03.58.747,exp1,2023.1.0,59.97724461373291,
,,,,,,,,,,,,,,,,3,8.2,10,11.8,0,0,1.8,1.55,0.25,3.85,10,match,36.05,296,361,425,0,0,9,9,9,0,0,,,,,,,1,0,1,0,0,49,49,49,,,,,,,,,,,,,,3,1.5371528998948634,3,0.4,0.20000000000000007,7.20859,return,10.322689600056037,,,,,,,,,,,,,,,,,p311,18,female,left_right_width,2025-11-30_09h03.58.747,exp1,2023.1.0,59.97724461373291,
,,,,,,,,,,,,,,,,4,8.95,9.65,10.35,11.05,0,0.7,0.1499999999999999,0.55,2.65,10,initial,36.05,323,348,373,398,0,9,9,9,9,0,,,,,,,1,0,1,0,0,50,50,23,,,,,,,,,,,,,,3,1.7350615999894217,3,0.5,0.5,18.02146,return,1.6798382999841124,,,,,,,,,,,,,,,,,p311,18,female,left_right_width,2025-11-30_09h03.58.747,exp1,2023.1.0,59.97724461373291,
,,,,,,,,,,,,,,,,5,8.2,9.1,10,10.9,11.8,0.9,0.5,0.4,4,10,initial,36.05,296,328,361,393,425,9,9,9,9,9,,,,,,,1,0,1,0,0,51,51,50,,,,,,,,,,,,,,7,3.017862799926661,7,0.35,0.39999999999999997,14.41717,return,5.616242800024338,,,,,,,,,,,,,,,,,p311,18,female,left_right_width,2025-11-30_09h03.58.747,exp1,2023.1.0,59.97724461373291,
,,,,,,,,,,,,,,,,,,,,,,,,,,,,,,,,,,,,,,,,,,,,,1,0,1,0,,,,,,,,,,,,,,,,,,,,,,,,,,,,2038.5187485000351,2038.5187485000351,2038.5187485000351,,,,,,,,,,,,p311,18,female,left_right_width,2025-11-30_09h03.58.747,exp1,2023.1.0,59.97724461373291,
,,,,,,,,,,,,,,,,3,8.9,10,11.1,0,0,1.1,0.8500000000000001,0.25,2.45,10,initial,36.05,321,361,400,0,0,9,9,9,0,0,,,,,,,2,0,2,0,0,0,0,2,,,,,,,,,,,,,,3,1.1246888999594375,3,0.35,0.25,9.01073,return,2.0219422000227496,,,,,,,,,,,,,,,,,p311,18,female,left_right_width,2025-11-30_09h03.58.747,exp1,2023.1.0,59.97724461373291,
,,,,,,,,,,,,,,,,3,9.3,10,10.7,0,0,0.7,0.1499999999999999,0.55,1.95,10,initial,36.05,335,361,386,0,0,9,9,9,0,0,,,,,,,2,0,2,0,0,1,1,6,,,,,,,,,,,,,,3,1.6453515999019146,3,0.35,0.44999999999999996,16.21932,return,1.450874499976635,,,,,,,,,,,,,,,,,p311,18,female,left_right_width,2025-11-30_09h03.58.747,exp1,2023.1.0,59.97724461373291,
,,,,,,,,,,,,,,,,3,8.2,10,11.8,0,0,1.8,1.25,0.55,4.15,10,match,36.05,296,361,425,0,0,9,9,9,0,0,,,,,,,2,0,2,0,0,2,2,47,,,,,,,,,,,,,,3,1.5557356999488547,3,0.35,0.39999999999999997,14.41717,return,1.9243718000361696,,,,,,,,,,,,,,,,,p311,18,female,left_right_width,2025-11-30_09h03.58.747,exp1,2023.1.0,59.97724461373291,
,,,,,,,,,,,,,,,,5,8.6,9.3,10,10.7,11.4,0.7,0.29999999999999993,0.4,3.1999999999999997,10,initial,36.05,310,335,361,386,411,9,9,9,9,9,,,,,,,2,0,2,0,0,3,3,44,,,,,,,,,,,,,,5,1.1944068999728188,5,0.3,0.35,12.61502,return,1.4660516999429092,,,,,,,,,,,,,,,,,p311,18,female,left_right_width,2025-11-30_09h03.58.747,exp1,2023.1.0,59.97724461373291,
,,,,,,,,,,,,,,,,5,8.65,9.325,10,10.675,11.35,0.675,0.125,0.55,3.25,10,match,36.05,312,336,361,385,409,9,9,9,9,9,,,,,,,2,0,2,0,0,4,4,29,,,,,,,,,,,,,,4,2.5787165999645367,4,0.5,0.5,18.02146,return,1.3374399000313133,,,,,,,,,,,,,,,,,p311,18,female,left_right_width,2025-11-30_09h03.58.747,exp1,2023.1.0,59.97724461373291,
,,,,,,,,,,,,,,,,4,9.1,9.7,10.3,10.9,0,0.5999999999999999,0.3499999999999999,0.25,2.05,10,match,36.05,328,350,371,393,0,9,9,9,9,0,,,,,,,2,0,2,0,0,5,5,14,,,,,,,,,,,,,,5,1.9213429000228643,5,0.2,0.25,9.01073,return,1.7473628000589088,,,,,,,,,,,,,,,,,p311,18,female,left_right_width,2025-11-30_09h03.58.747,exp1,2023.1.0,59.97724461373291,
,,,,,,,,,,,,,,,,4,9.1,9.7,10.3,10.9,0,0.6000000000000001,0.20000000000000004,0.4,2.2,10,match,36.05,328,350,371,393,0,9,9,9,9,0,,,,,,,2,0,2,0,0,6,6,16,,,,,,,,,,,,,,5,2.048824999947101,5,0.4,0.30000000000000004,10.81288,return,2.014616600004956,,,,,,,,,,,,,,,,,p311,18,female,left_right_width,2025-11-30_09h03.58.747,exp1,2023.1.0,59.97724461373291,
,,,,,,,,,,,,,,,,5,8.275,9.1375,10,10.8625,11.725,0.8625,0.6125,0.25,3.7,10,match,36.05,298,329,361,392,423,9,9,9,9,9,,,,,,,2,0,2,0,0,7,7,22,,,,,,,,,,,,,,6,1.6579424000810832,6,0.35,0.2,7.20859,return,2.3918325999984518,,,,,,,,,,,,,,,,,p311,18,female,left_right_width,2025-11-30_09h03.58.747,exp1,2023.1.0,59.97724461373291,
,,,,,,,,,,,,,,,,5,7.8,8.9,10,11.1,12.2,1.1,0.8500000000000001,0.25,4.65,10,initial,36.05,281,321,361,400,440,9,9,9,9,9,,,,,,,2,0,2,0,0,8,8,36,,,,,,,,,,,,,,5,3.0519163000863045,5,0.45,0.20000000000000007,7.20859,return,2.1748907000292093,,,,,,,,,,,,,,,,,p311,18,female,left_right_width,2025-11-30_09h03.58.747,exp1,2023.1.0,59.97724461373291,
,,,,,,,,,,,,,,,,5,8.6,9.3,10,10.7,11.4,0.7,0.1499999999999999,0.55,3.3499999999999996,10,initial,36.05,310,335,361,386,411,9,9,9,9,9,,,,,,,2,0,2,0,0,9,9,40,,,,,,,,,,,,,,5,2.504583299974911,5,0.25,0.39999999999999997,14.41717,return,1.7638881000457332,,,,,,,,,,,,,,,,,p311,18,female,left_right_width,2025-11-30_09h03.58.747,exp1,2023.1.0,59.97724461373291,
,,,,,,,,,,,,,,,,4,8.35,9.45,10.55,11.65,0,1.1,0.55,0.55,3.8500000000000005,10,initial,36.05,301,341,380,420,0,9,9,9,9,0,,,,,,,2,0,2,0,0,10,10,17,,,,,,,,,,,,,,5,1.5750615999568254,5,0.4,0.45,16.21932,return,1.590489499969408,,,,,,,,,,,,,,,,,p311,18,female,left_right_width,2025-11-30_09h03.58.747,exp1,2023.1.0,59.97724461373291,
,,,,,,,,,,,,,,,,3,9.1,10,10.9,0,0,0.9,0.5,0.4,2.2,10,initial,36.05,328,361,393,0,0,9,9,9,0,0,,,,,,,2,0,2,0,0,11,11,15,,,,,,,,,,,,,,3,1.6326610000105575,3,0.45,0.4,14.41717,return,1.6465724000008777,,,,,,,,,,,,,,,,,p311,18,female,left_right_width,2025-11-30_09h03.58.747,exp1,2023.1.0,59.97724461373291,
,,,,,,,,,,,,,,,,3,9.3,10,10.7,0,0,0.7,0.44999999999999996,0.25,1.65,10,initial,36.05,335,361,386,0,0,9,9,9,0,0,,,,,,,2,0,2,0,0,12,12,7,,,,,,,,,,,,,,3,1.426536799990572,3,0.5,0.30000000000000004,10.81288,return,1.9932041999418288,,,,,,,,,,,,,,,,,p311,18,female,left_right_width,2025-11-30_09h03.58.747,exp1,2023.1.0,59.97724461373291,
,,,,,,,,,,,,,,,,4,9.1,9.7,10.3,10.9,0,0.6,0.04999999999999997,0.55,2.35,10,match,36.05,328,350,371,393,0,9,9,9,9,0,,,,,,,2,0,2,0,0,13,13,12,,,,,,,,,,,,,,4,1.4183349999366328,4,0.5,0.6000000000000001,21.62576,return,2.7215415000682697,,,,,,,,,,,,,,,,,p311,18,female,left_right_width,2025-11-30_09h03.58.747,exp1,2023.1.0,59.97724461373291,
,,,,,,,,,,,,,,,,3,8.9,10,11.1,0,0,1.1,0.7000000000000001,0.4,2.6000000000000005,10,initial,36.05,321,361,400,0,0,9,9,9,0,0,,,,,,,2,0,2,0,0,14,14,4,,,,,,,,,,,,,,3,1.4564786000410095,3,0.25,0.39999999999999997,14.41717,return,2.693574500037357,,,,,,,,,,,,,,,,,p311,18,female,left_right_width,2025-11-30_09h03.58.747,exp1,2023.1.0,59.97724461373291,
,,,,,,,,,,,,,,,,5,8.6,9.3,10,10.7,11.4,0.7,0.44999999999999996,0.25,3.05,10,initial,36.05,310,335,361,386,411,9,9,9,9,9,,,,,,,2,0,2,0,0,15,15,42,,,,,,,,,,,,,,6,3.632522500003688,6,0.5,0.45,16.21932,return,2.4469853000482544,,,,,,,,,,,,,,,,,p311,18,female,left_right_width,2025-11-30_09h03.58.747,exp1,2023.1.0,59.97724461373291,
,,,,,,,,,,,,,,,,4,9.3,9.766666666666667,10.233333333333333,10.7,0,0.4666666666666667,0.06666666666666665,0.4,1.8,10,match,36.05,335,352,369,386,0,9,9,9,9,0,,,,,,,2,0,2,0,0,16,16,10,,,,,,,,,,,,,,4,1.54932969994843,4,0.45,0.45,16.21932,return,2.3186665000393987,,,,,,,,,,,,,,,,,p311,18,female,left_right_width,2025-11-30_09h03.58.747,exp1,2023.1.0,59.97724461373291,
,,,,,,,,,,,,,,,,5,8.2,9.1,10,10.9,11.8,0.9,0.65,0.25,3.85,10,initial,36.05,296,328,361,393,425,9,9,9,9,9,,,,,,,2,0,2,0,0,17,17,48,,,,,,,,,,,,,,7,3.627073200070299,7,0.35,0.25,9.01073,return,2.184745000093244,,,,,,,,,,,,,,,,,p311,18,female,left_right_width,2025-11-30_09h03.58.747,exp1,2023.1.0,59.97724461373291,
,,,,,,,,,,,,,,,,3,9.3,10,10.7,0,0,0.7,0.29999999999999993,0.4,1.8,10,initial,36.05,335,361,386,0,0,9,9,9,0,0,,,,,,,2,0,2,0,0,18,18,9,,,,,,,,,,,,,,4,2.0695081000449136,4,0.5,0.35000000000000003,12.61502,return,4.577789300004952,,,,,,,,,,,,,,,,,p311,18,female,left_right_width,2025-11-30_09h03.58.747,exp1,2023.1.0,59.97724461373291,
,,,,,,,,,,,,,,,,3,7.800000000000001,10,12.2,0,0,2.1999999999999997,1.7999999999999998,0.4,4.8,10,match,36.05,281,361,440,0,0,9,9,9,0,0,,,,,,,2,0,2,0,0,19,19,39,,,,,,,,,,,,,,3,1.645164499990642,3,0.2,0.35,12.61502,return,1.6424622999038547,,,,,,,,,,,,,,,,,p311,18,female,left_right_width,2025-11-30_09h03.58.747,exp1,2023.1.0,59.97724461373291,
,,,,,,,,,,,,,,,,4,8.95,9.65,10.35,11.05,0,0.7,0.1499999999999999,0.55,2.65,10,initial,36.05,323,348,373,398,0,9,9,9,9,0,,,,,,,2,0,2,0,0,20,20,23,,,,,,,,,,,,,,4,1.5157672999193892,4,0.3,0.39999999999999997,14.41717,return,2.4310354000190273,,,,,,,,,,,,,,,,,p311,18,female,left_right_width,2025-11-30_09h03.58.747,exp1,2023.1.0,59.97724461373291,
,,,,,,,,,,,,,,,,4,8.95,9.65,10.35,11.05,0,0.7,0.29999999999999993,0.4,2.5,10,initial,36.05,323,348,373,398,0,9,9,9,9,0,,,,,,,2,0,2,0,0,21,21,26,,,,,,,,,,,,,,4,1.63274580007419,4,0.25,0.39999999999999997,14.41717,return,2.6700047999620438,,,,,,,,,,,,,,,,,p311,18,female,left_right_width,2025-11-30_09h03.58.747,exp1,2023.1.0,59.97724461373291,
,,,,,,,,,,,,,,,,5,8.35,9.175,10,10.825,11.65,0.825,0.575,0.25,3.55,10,match,36.05,301,331,361,390,420,9,9,9,9,9,,,,,,,2,0,2,0,0,22,22,20,,,,,,,,,,,,,,5,1.677548100007698,5,0.3,0.25,9.01073,return,1.4652329999953508,,,,,,,,,,,,,,,,,p311,18,female,left_right_width,2025-11-30_09h03.58.747,exp1,2023.1.0,59.97724461373291,
,,,,,,,,,,,,,,,,5,8.2,9.1,10,10.9,11.8,0.9,0.35,0.55,4.15,10,initial,36.05,296,328,361,393,425,9,9,9,9,9,,,,,,,2,0,2,0,0,23,23,46,,,,,,,,,,,,,,5,2.1719898999435827,5,0.55,0.4,14.41717,return,2.211976799997501,,,,,,,,,,,,,,,,,p311,18,female,left_right_width,2025-11-30_09h03.58.747,exp1,2023.1.0,59.97724461373291,
,,,,,,,,,,,,,,,,3,7.8,10,12.2,0,0,2.2,1.9500000000000002,0.25,4.65,10,match,36.05,281,361,440,0,0,9,9,9,0,0,,,,,,,2,0,2,0,0,24,24,37,,,,,,,,,,,,,,4,1.7517493000486866,4,0.25,0.3,10.81288,return,1.6494628000073135,,,,,,,,,,,,,,,,,p311,18,female,left_right_width,2025-11-30_09h03.58.747,exp1,2023.1.0,59.97724461373291,
,,,,,,,,,,,,,,,,4,8.95,9.65,10.35,11.05,0,0.7,0.44999999999999996,0.25,2.3499999999999996,10,initial,36.05,323,348,373,398,0,9,9,9,9,0,,,,,,,2,0,2,0,0,25,25,24,,,,,,,,,,,,,,5,2.3841264999937266,5,0.5,0.25000000000000006,9.01073,return,4.639835299924016,,,,,,,,,,,,,,,,,p311,18,female,left_right_width,2025-11-30_09h03.58.747,exp1,2023.1.0,59.97724461373291,
,,,,,,,,,,,,,,,,3,8.2,10,11.8,0,0,1.8,1.55,0.25,3.85,10,match,36.05,296,361,425,0,0,9,9,9,0,0,,,,,,,2,0,2,0,0,26,26,49,,,,,,,,,,,,,,3,2.0945731999818236,3,0.5,0.20000000000000007,7.20859,return,3.6585154000204057,,,,,,,,,,,,,,,,,p311,18,female,left_right_width,2025-11-30_09h03.58.747,exp1,2023.1.0,59.97724461373291,
,,,,,,,,,,,,,,,,4,8.9,9.633333333333333,10.366666666666667,11.1,0,0.7333333333333334,0.4833333333333334,0.25,2.45,10,match,36.05,321,347,374,400,0,9,9,9,9,0,,,,,,,2,0,2,0,0,27,27,3,,,,,,,,,,,,,,4,4.313444700092077,4,0.4,0.25000000000000006,9.01073,return,2.1716584999812767,,,,,,,,,,,,,,,,,p311,18,female,left_right_width,2025-11-30_09h03.58.747,exp1,2023.1.0,59.97724461373291,
,,,,,,,,,,,,,,,,4,8.35,9.45,10.55,11.65,0,1.1,0.7000000000000001,0.4,3.7,10,initial,36.05,301,341,380,420,0,9,9,9,9,0,,,,,,,2,0,2,0,0,28,28,21,,,,,,,,,,,,,,4,1.3779060000088066,4,0.5,0.35000000000000003,12.61502,return,2.8256485000019893,,,,,,,,,,,,,,,,,p311,18,female,left_right_width,2025-11-30_09h03.58.747,exp1,2023.1.0,59.97724461373291,
,,,,,,,,,,,,,,,,3,8.9,10,11.1,0,0,1.1,0.55,0.55,2.75,10,initial,36.05,321,361,400,0,0,9,9,9,0,0,,,,,,,2,0,2,0,0,29,29,0,,,,,,,,,,,,,,3,1.5941684000426903,3,0.2,0.35,12.61502,return,2.4879796999739483,,,,,,,,,,,,,,,,,p311,18,female,left_right_width,2025-11-30_09h03.58.747,exp1,2023.1.0,59.97724461373291,
,,,,,,,,,,,,,,,,5,8.95,9.475,10,10.525,11.05,0.525,0.125,0.4,2.5,10,match,36.05,323,342,361,379,398,9,9,9,9,9,,,,,,,2,0,2,0,0,30,30,27,,,,,,,,,,,,,,5,2.1307548000477254,5,0.3,0.25,9.01073,return,1.627747599966824,,,,,,,,,,,,,,,,,p311,18,female,left_right_width,2025-11-30_09h03.58.747,exp1,2023.1.0,59.97724461373291,
,,,,,,,,,,,,,,,,5,8.95,9.475,10,10.525,11.05,0.525,0.275,0.25,2.35,10,match,36.05,323,342,361,379,398,9,9,9,9,9,,,,,,,2,0,2,0,0,31,31,25,,,,,,,,,,,,,,6,1.6839927000692114,6,0.45,0.20000000000000007,7.20859,return,2.6708141999552026,,,,,,,,,,,,,,,,,p311,18,female,left_right_width,2025-11-30_09h03.58.747,exp1,2023.1.0,59.97724461373291,
,,,,,,,,,,,,,,,,3,8.525,10,11.475,0,0,1.475,1.225,0.25,3.2,10,match,36.05,307,361,414,0,0,9,9,9,0,0,,,,,,,2,0,2,0,0,32,32,45,,,,,,,,,,,,,,2,1.2295763000147417,2,0.25,0.15000000000000002,5.40644,return,3.1470667000394315,,,,,,,,,,,,,,,,,p311,18,female,left_right_width,2025-11-30_09h03.58.747,exp1,2023.1.0,59.97724461373291,
,,,,,,,,,,,,,,,,5,8.2,9.1,10,10.9,11.8,0.9,0.5,0.4,4,10,initial,36.05,296,328,361,393,425,9,9,9,9,9,,,,,,,2,0,2,0,0,33,33,50,,,,,,,,,,,,,,6,2.0965091000543907,6,0.35,0.3,10.81288,return,1.88414089998696,,,,,,,,,,,,,,,,,p311,18,female,left_right_width,2025-11-30_09h03.58.747,exp1,2023.1.0,59.97724461373291,
,,,,,,,,,,,,,,,,3,9.1,10,10.9,0,0,0.9,0.35,0.55,2.35,10,initial,36.05,328,361,393,0,0,9,9,9,0,0,,,,,,,2,0,2,0,0,34,34,11,,,,,,,,,,,,,,3,1.2087198999943212,3,0.25,0.44999999999999996,16.21932,return,2.3424850000301376,,,,,,,,,,,,,,,,,p311,18,female,left_right_width,2025-11-30_09h03.58.747,exp1,2023.1.0,59.97724461373291,
,,,,,,,,,,,,,,,,4,8.9,9.633333333333333,10.366666666666667,11.1,0,0.7333333333333333,0.18333333333333326,0.55,2.75,10,match,36.05,321,347,374,400,0,9,9,9,9,0,,,,,,,2,0,2,0,0,35,35,1,,,,,,,,,,,,,,4,3.548484700033441,4,0.4,0.35000000000000003,12.61502,return,2.7814915000926703,,,,,,,,,,,,,,,,,p311,18,female,left_right_width,2025-11-30_09h03.58.747,exp1,2023.1.0,59.97724461373291,
,,,,,,,,,,,,,,,,3,8.6,10,11.4,0,0,1.4,0.85,0.55,3.35,10,match,36.05,310,361,411,0,0,9,9,9,0,0,,,,,,,2,0,2,0,0,36,36,41,,,,,,,,,,,,,,4,7.23924949998036,4,0.45,0.4,14.41717,return,1.8120581000111997,,,,,,,,,,,,,,,,,p311,18,female,left_right_width,2025-11-30_09h03.58.747,exp1,2023.1.0,59.97724461373291,
,,,,,,,,,,,,,,,,3,9.1,10,10.9,0,0,0.9,0.65,0.25,2.05,10,initial,36.05,328,361,393,0,0,9,9,9,0,0,,,,,,,2,0,2,0,0,37,37,13,,,,,,,,,,,,,,2,1.1131259000394493,2,0.25,0.3,10.81288,return,1.579331999993883,,,,,,,,,,,,,,,,,p311,18,female,left_right_width,2025-11-30_09h03.58.747,exp1,2023.1.0,59.97724461373291,
,,,,,,,,,,,,,,,,4,8.825,9.608333333333333,10.391666666666667,11.175,0,0.7833333333333333,0.5333333333333333,0.25,2.6,10,match,36.05,318,346,375,403,0,9,9,9,9,0,,,,,,,2,0,2,0,0,38,38,5,,,,,,,,,,,,,,4,1.136132900021039,4,0.55,0.20000000000000007,7.20859,return,2.5135364999296144,,,,,,,,,,,,,,,,,p311,18,female,left_right_width,2025-11-30_09h03.58.747,exp1,2023.1.0,59.97724461373291,
,,,,,,,,,,,,,,,,5,8.65,9.325,10,10.675,11.35,0.675,0.42500000000000004,0.25,2.95,10,match,36.05,312,336,361,385,409,9,9,9,9,9,,,,,,,2,0,2,0,0,39,39,31,,,,,,,,,,,,,,7,1.930002999957651,7,0.25,0.25,9.01073,return,2.1393556999973953,,,,,,,,,,,,,,,,,p311,18,female,left_right_width,2025-11-30_09h03.58.747,exp1,2023.1.0,59.97724461373291,
,,,,,,,,,,,,,,,,4,8.35,9.45,10.55,11.65,0,1.1,0.8500000000000001,0.25,3.5500000000000003,10,initial,36.05,301,341,380,420,0,9,9,9,9,0,,,,,,,2,0,2,0,0,40,40,19,,,,,,,,,,,,,,5,2.8989031000528485,5,0.35,0.25,9.01073,return,1.5659855999983847,,,,,,,,,,,,,,,,,p311,18,female,left_right_width,2025-11-30_09h03.58.747,exp1,2023.1.0,59.97724461373291,
,,,,,,,,,,,,,,,,5,8.35,9.175,10,10.825,11.65,0.8250000000000001,0.275,0.55,3.85,10,match,36.05,301,331,361,390,420,9,9,9,9,9,,,,,,,2,0,2,0,0,41,41,18,,,,,,,,,,,,,,5,4.978001700015739,5,0.55,0.35000000000000003,12.61502,return,2.217449299991131,,,,,,,,,,,,,,,,,p311,18,female,left_right_width,2025-11-30_09h03.58.747,exp1,2023.1.0,59.97724461373291,
,,,,,,,,,,,,,,,,3,7.8,10,12.2,0,0,2.2,1.65,0.55,4.95,10,match,36.05,281,361,440,0,0,9,9,9,0,0,,,,,,,2,0,2,0,0,42,42,35,,,,,,,,,,,,,,3,1.1625011999858543,3,0.55,0.5,18.02146,return,1.658709599985741,,,,,,,,,,,,,,,,,p311,18,female,left_right_width,2025-11-30_09h03.58.747,exp1,2023.1.0,59.97724461373291,
,,,,,,,,,,,,,,,,4,8.65,9.55,10.45,11.35,0,0.9,0.65,0.25,2.95,10,initial,36.05,312,344,377,409,0,9,9,9,9,0,,,,,,,2,0,2,0,0,43,43,30,,,,,,,,,,,,,,5,1.5630804999964312,5,0.45,0.20000000000000007,7.20859,return,2.1084420999977738,,,,,,,,,,,,,,,,,p311,18,female,left_right_width,2025-11-30_09h03.58.747,exp1,2023.1.0,59.97724461373291,
,,,,,,,,,,,,,,,,5,7.8,8.9,10,11.1,12.2,1.1,0.55,0.55,4.95,10,initial,36.05,281,321,361,400,440,9,9,9,9,9,,,,,,,2,0,2,0,0,44,44,34,,,,,,,,,,,,,,7,5.304754099925049,7,0.2,0.3,10.81288,return,3.7793007999425754,,,,,,,,,,,,,,,,,p311,18,female,left_right_width,2025-11-30_09h03.58.747,exp1,2023.1.0,59.97724461373291,
,,,,,,,,,,,,,,,,3,8.2,10,11.8,0,0,1.7999999999999998,1.4,0.4,4,10,match,36.05,296,361,425,0,0,9,9,9,0,0,,,,,,,2,0,2,0,0,45,45,51,,,,,,,,,,,,,,3,1.5825505999382585,3,0.2,0.35,12.61502,return,4.847727200016379,,,,,,,,,,,,,,,,,p311,18,female,left_right_width,2025-11-30_09h03.58.747,exp1,2023.1.0,59.97724461373291,
,,,,,,,,,,,,,,,,4,9.3,9.766666666666667,10.233333333333333,10.7,0,0.4666666666666667,0.21666666666666665,0.25,1.65,10,match,36.05,335,352,369,386,0,9,9,9,9,0,,,,,,,2,0,2,0,0,46,46,8,,,,,,,,,,,,,,4,1.8305873000063002,4,0.4,0.25000000000000006,9.01073,return,3.309385000029579,,,,,,,,,,,,,,,,,p311,18,female,left_right_width,2025-11-30_09h03.58.747,exp1,2023.1.0,59.97724461373291,
,,,,,,,,,,,,,,,,5,8.65,9.325,10,10.675,11.35,0.675,0.275,0.4,3.1,10,match,36.05,312,336,361,385,409,9,9,9,9,9,,,,,,,2,0,2,0,0,47,47,33,,,,,,,,,,,,,,6,1.6660102000460029,6,0.25,0.35,12.61502,return,2.653919899952598,,,,,,,,,,,,,,,,,p311,18,female,left_right_width,2025-11-30_09h03.58.747,exp1,2023.1.0,59.97724461373291,
,,,,,,,,,,,,,,,,4,8.65,9.55,10.45,11.35,0,0.9,0.35,0.55,3.25,10,initial,36.05,312,344,377,409,0,9,9,9,9,0,,,,,,,2,0,2,0,0,48,48,28,,,,,,,,,,,,,,4,2.7886444999603555,4,0.4,0.4,14.41717,return,7.668138900073245,,,,,,,,,,,,,,,,,p311,18,female,left_right_width,2025-11-30_09h03.58.747,exp1,2023.1.0,59.97724461373291,
,,,,,,,,,,,,,,,,3,8.6,10,11.4,0,0,1.4,1.15,0.25,3.05,10,match,36.05,310,361,411,0,0,9,9,9,0,0,,,,,,,2,0,2,0,0,49,49,43,,,,,,,,,,,,,,4,2.066087399958633,4,0.55,0.20000000000000007,7.20859,return,3.8865445000119507,,,,,,,,,,,,,,,,,p311,18,female,left_right_width,2025-11-30_09h03.58.747,exp1,2023.1.0,59.97724461373291,
,,,,,,,,,,,,,,,,5,7.8,8.9,10,11.1,12.2,1.1,0.7000000000000001,0.4,4.800000000000001,10,initial,36.05,281,321,361,400,440,9,9,9,9,9,,,,,,,2,0,2,0,0,50,50,38,,,,,,,,,,,,,,8,6.284591599949636,8,0.2,0.25,9.01073,return,2.238394799991511,,,,,,,,,,,,,,,,,p311,18,female,left_right_width,2025-11-30_09h03.58.747,exp1,2023.1.0,59.97724461373291,
,,,,,,,,,,,,,,,,4,8.65,9.55,10.45,11.35,0,0.9,0.5,0.4,3.1,10,initial,36.05,312,344,377,409,0,9,9,9,9,0,,,,,,,2,0,2,0,0,51,51,32,,,,,,,,,,,,,,6,1.6678741000359878,6,0.25,0.35,12.61502,return,1.9508857000619173,,,,,,,,,,,,,,,,,p311,18,female,left_right_width,2025-11-30_09h03.58.747,exp1,2023.1.0,59.97724461373291,
,,,,,,,,,,,,,,,,,,,,,,,,,,,,,,,,,,,,,,,,,,,,,2,0,2,0,,,,,,,,,,,,,,,,,,,,,,,,,,,,2609.285260600038,2609.285260600038,2609.285260600038,,,,,,,,,,,,p311,18,female,left_right_width,2025-11-30_09h03.58.747,exp1,2023.1.0,59.97724461373291,
,,,,,,,,,,,,,,,,5,7.8,8.9,10,11.1,12.2,1.1,0.55,0.55,4.95,10,initial,36.05,281,321,361,400,440,9,9,9,9,9,,,,,,,3,0,3,0,0,0,0,34,,,,,,,,,,,,,,5,1.4176422000164166,5,0.45,0.45,16.21932,return,0.9432921999832615,,,,,,,,,,,,,,,,,p311,18,female,left_right_width,2025-11-30_09h03.58.747,exp1,2023.1.0,59.97724461373291,
,,,,,,,,,,,,,,,,5,8.95,9.475,10,10.525,11.05,0.525,0.125,0.4,2.5,10,match,36.05,323,342,361,379,398,9,9,9,9,9,,,,,,,3,0,3,0,0,1,1,27,,,,,,,,,,,,,,5,1.8620185001054779,5,0.3,0.35,12.61502,return,1.5304381999885663,,,,,,,,,,,,,,,,,p311,18,female,left_right_width,2025-11-30_09h03.58.747,exp1,2023.1.0,59.97724461373291,
,,,,,,,,,,,,,,,,5,8.2,9.1,10,10.9,11.8,0.9,0.65,0.25,3.85,10,initial,36.05,296,328,361,393,425,9,9,9,9,9,,,,,,,3,0,3,0,0,2,2,48,,,,,,,,,,,,,,6,1.838628500001505,6,0.3,0.2,7.20859,return,1.460399099974893,,,,,,,,,,,,,,,,,p311,18,female,left_right_width,2025-11-30_09h03.58.747,exp1,2023.1.0,59.97724461373291,
,,,,,,,,,,,,,,,,4,8.35,9.45,10.55,11.65,0,1.1,0.8500000000000001,0.25,3.5500000000000003,10,initial,36.05,301,341,380,420,0,9,9,9,9,0,,,,,,,3,0,3,0,0,3,3,19,,,,,,,,,,,,,,4,1.4312271000817418,4,0.25,0.3,10.81288,return,1.3086958000203595,,,,,,,,,,,,,,,,,p311,18,female,left_right_width,2025-11-30_09h03.58.747,exp1,2023.1.0,59.97724461373291,
,,,,,,,,,,,,,,,,3,9.1,10,10.9,0,0,0.9,0.65,0.25,2.05,10,initial,36.05,328,361,393,0,0,9,9,9,0,0,,,,,,,3,0,3,0,0,4,4,13,,,,,,,,,,,,,,3,1.328558399924077,3,0.55,0.25000000000000006,9.01073,return,3.6425567000405863,,,,,,,,,,,,,,,,,p311,18,female,left_right_width,2025-11-30_09h03.58.747,exp1,2023.1.0,59.97724461373291,
,,,,,,,,,,,,,,,,3,8.525,10,11.475,0,0,1.475,1.225,0.25,3.2,10,match,36.05,307,361,414,0,0,9,9,9,0,0,,,,,,,3,0,3,0,0,5,5,45,,,,,,,,,,,,,,3,2.9226335999555886,3,0.55,0.20000000000000007,7.20859,return,3.077266300097108,,,,,,,,,,,,,,,,,p311,18,female,left_right_width,2025-11-30_09h03.58.747,exp1,2023.1.0,59.97724461373291,
,,,,,,,,,,,,,,,,4,8.9,9.633333333333333,10.366666666666667,11.1,0,0.7333333333333334,0.4833333333333334,0.25,2.45,10,match,36.05,321,347,374,400,0,9,9,9,9,0,,,,,,,3,0,3,0,0,6,6,3,,,,,,,,,,,,,,4,1.3072473999345675,4,0.55,0.20000000000000007,7.20859,return,2.805613199947402,,,,,,,,,,,,,,,,,p311,18,female,left_right_width,2025-11-30_09h03.58.747,exp1,2023.1.0,59.97724461373291,
,,,,,,,,,,,,,,,,4,8.95,9.65,10.35,11.05,0,0.7,0.1499999999999999,0.55,2.65,10,initial,36.05,323,348,373,398,0,9,9,9,9,0,,,,,,,3,0,3,0,0,7,7,23,,,,,,,,,,,,,,3,8.444205899955705,3,0.3,0.25,9.01073,return,1.8974766000173986,,,,,,,,,,,,,,,,,p311,18,female,left_right_width,2025-11-30_09h03.58.747,exp1,2023.1.0,59.97724461373291,
,,,,,,,,,,,,,,,,3,8.9,10,11.1,0,0,1.1,0.8500000000000001,0.25,2.45,10,initial,36.05,321,361,400,0,0,9,9,9,0,0,,,,,,,3,0,3,0,0,8,8,2,,,,,,,,,,,,,,3,1.207159399986267,3,0.35,0.25,9.01073,return,1.7824618000304326,,,,,,,,,,,,,,,,,p311,18,female,left_right_width,2025-11-30_09h03.58.747,exp1,2023.1.0,59.97724461373291,
,,,,,,,,,,,,,,,,3,9.3,10,10.7,0,0,0.7,0.29999999999999993,0.4,1.8,10,initial,36.05,335,361,386,0,0,9,9,9,0,0,,,,,,,3,0,3,0,0,9,9,9,,,,,,,,,,,,,,3,1.4325313000008464,3,0.3,0.35,12.61502,return,1.277860700036399,,,,,,,,,,,,,,,,,p311,18,female,left_right_width,2025-11-30_09h03.58.747,exp1,2023.1.0,59.97724461373291,
,,,,,,,,,,,,,,,,3,8.2,10,11.8,0,0,1.8,1.55,0.25,3.85,10,match,36.05,296,361,425,0,0,9,9,9,0,0,,,,,,,3,0,3,0,0,10,10,49,,,,,,,,,,,,,,3,1.1332169999368489,3,0.45,0.25000000000000006,9.01073,return,1.8080084999091923,,,,,,,,,,,,,,,,,p311,18,female,left_right_width,2025-11-30_09h03.58.747,exp1,2023.1.0,59.97724461373291,
,,,,,,,,,,,,,,,,3,7.8,10,12.2,0,0,2.2,1.9500000000000002,0.25,4.65,10,match,36.05,281,361,440,0,0,9,9,9,0,0,,,,,,,3,0,3,0,0,11,11,37,,,,,,,,,,,,,,3,1.251737599959597,3,0.4,0.30000000000000004,10.81288,return,3.2811076999641955,,,,,,,,,,,,,,,,,p311,18,female,left_right_width,2025-11-30_09h03.58.747,exp1,2023.1.0,59.97724461373291,
,,,,,,,,,,,,,,,,4,8.95,9.65,10.35,11.05,0,0.7,0.29999999999999993,0.4,2.5,10,initial,36.05,323,348,373,398,0,9,9,9,9,0,,,,,,,3,0,3,0,0,12,12,26,,,,,,,,,,,,,,4,1.7112934000324458,4,0.25,0.35,12.61502,return,1.7215183000080287,,,,,,,,,,,,,,,,,p311,18,female,left_right_width,2025-11-30_09h03.58.747,exp1,2023.1.0,59.97724461373291,
,,,,,,,,,,,,,,,,5,7.8,8.9,10,11.1,12.2,1.1,0.7000000000000001,0.4,4.800000000000001,10,initial,36.05,281,321,361,400,440,9,9,9,9,9,,,,,,,3,0,3,0,0,13,13,38,,,,,,,,,,,,,,5,6.939970900071785,5,0.3,0.44999999999999996,16.21932,return,3.4605119000189006,,,,,,,,,,,,,,,,,p311,18,female,left_right_width,2025-11-30_09h03.58.747,exp1,2023.1.0,59.97724461373291,
,,,,,,,,,,,,,,,,4,8.65,9.55,10.45,11.35,0,0.9,0.35,0.55,3.25,10,initial,36.05,312,344,377,409,0,9,9,9,9,0,,,,,,,3,0,3,0,0,14,14,28,,,,,,,,,,,,,,5,2.987571399891749,5,0.2,0.44999999999999996,16.21932,return,2.802058400004171,,,,,,,,,,,,,,,,,p311,18,female,left_right_width,2025-11-30_09h03.58.747,exp1,2023.1.0,59.97724461373291,
,,,,,,,,,,,,,,,,5,8.65,9.325,10,10.675,11.35,0.675,0.275,0.4,3.1,10,match,36.05,312,336,361,385,409,9,9,9,9,9,,,,,,,3,0,3,0,0,15,15,33,,,,,,,,,,,,,,5,5.147299700067379,5,0.55,0.4,14.41717,return,1.725260499981232,,,,,,,,,,,,,,,,,p311,18,female,left_right_width,2025-11-30_09h03.58.747,exp1,2023.1.0,59.97724461373291,
,,,,,,,,,,,,,,,,3,8.9,10,11.1,0,0,1.1,0.55,0.55,2.75,10,initial,36.05,321,361,400,0,0,9,9,9,0,0,,,,,,,3,0,3,0,0,16,16,0,,,,,,,,,,,,,,3,1.3105759000172839,3,0.25,0.44999999999999996,16.21932,return,2.714318999904208,,,,,,,,,,,,,,,,,p311,18,female,left_right_width,2025-11-30_09h03.58.747,exp1,2023.1.0,59.97724461373291,
,,,,,,,,,,,,,,,,5,8.2,9.1,10,10.9,11.8,0.9,0.35,0.55,4.15,10,initial,36.05,296,328,361,393,425,9,9,9,9,9,,,,,,,3,0,3,0,0,17,17,46,,,,,,,,,,,,,,5,1.6489304999122396,5,0.55,0.45,16.21932,return,1.9807134000584483,,,,,,,,,,,,,,,,,p311,18,female,left_right_width,2025-11-30_09h03.58.747,exp1,2023.1.0,59.97724461373291,
,,,,,,,,,,,,,,,,5,8.35,9.175,10,10.825,11.65,0.8250000000000001,0.275,0.55,3.85,10,match,36.05,301,331,361,390,420,9,9,9,9,9,,,,,,,3,0,3,0,0,18,18,18,,,,,,,,,,,,,,6,1.9374923000577837,6,0.4,0.5,18.02146,return,3.138028399902396,,,,,,,,,,,,,,,,,p311,18,female,left_right_width,2025-11-30_09h03.58.747,exp1,2023.1.0,59.97724461373291,
,,,,,,,,,,,,,,,,4,8.95,9.65,10.35,11.05,0,0.7,0.44999999999999996,0.25,2.3499999999999996,10,initial,36.05,323,348,373,398,0,9,9,9,9,0,,,,,,,3,0,3,0,0,19,19,24,,,,,,,,,,,,,,5,1.751678799977526,5,0.45,0.25000000000000006,9.01073,return,3.104713000007905,,,,,,,,,,,,,,,,,p311,18,female,left_right_width,2025-11-30_09h03.58.747,exp1,2023.1.0,59.97724461373291,
,,,,,,,,,,,,,,,,4,8.825,9.608333333333333,10.391666666666667,11.175,0,0.7833333333333333,0.5333333333333333,0.25,2.6,10,match,36.05,318,346,375,403,0,9,9,9,9,0,,,,,,,3,0,3,0,0,20,20,5,,,,,,,,,,,,,,5,1.869668799918145,5,0.4,0.20000000000000007,7.20859,return,1.6979636000469327,,,,,,,,,,,,,,,,,p311,18,female,left_right_width,2025-11-30_09h03.58.747,exp1,2023.1.0,59.97724461373291,
,,,,,,,,,,,,,,,,3,9.3,10,10.7,0,0,0.7,0.44999999999999996,0.25,1.65,10,initial,36.05,335,361,386,0,0,9,9,9,0,0,,,,,,,3,0,3,0,0,21,21,7,,,,,,,,,,,,,,3,1.1823643000097945,3,0.35,0.2,7.20859,return,1.2467862999765202,,,,,,,,,,,,,,,,,p311,18,female,left_right_width,2025-11-30_09h03.58.747,exp1,2023.1.0,59.97724461373291,
,,,,,,,,,,,,,,,,4,9.3,9.766666666666667,10.233333333333333,10.7,0,0.4666666666666667,0.21666666666666665,0.25,1.65,10,match,36.05,335,352,369,386,0,9,9,9,9,0,,,,,,,3,0,3,0,0,22,22,8,,,,,,,,,,,,,,4,1.0826556999236345,4,0.4,0.20000000000000007,7.20859,return,1.549316499964334,,,,,,,,,,,,,,,,,p311,18,female,left_right_width,2025-11-30_09h03.58.747,exp1,2023.1.0,59.97724461373291,
,,,,,,,,,,,,,,,,4,8.65,9.55,10.45,11.35,0,0.9,0.5,0.4,3.1,10,initial,36.05,312,344,377,409,0,9,9,9,9,0,,,,,,,3,0,3,0,0,23,23,32,,,,,,,,,,,,,,5,1.5394281999906525,5,0.25,0.35,12.61502,return,1.4278538000071421,,,,,,,,,,,,,,,,,p311,18,female,left_right_width,2025-11-30_09h03.58.747,exp1,2023.1.0,59.97724461373291,
,,,,,,,,,,,,,,,,4,8.35,9.45,10.55,11.65,0,1.1,0.7000000000000001,0.4,3.7,10,initial,36.05,301,341,380,420,0,9,9,9,9,0,,,,,,,3,0,3,0,0,24,24,21,,,,,,,,,,,,,,4,1.330900999950245,4,0.3,0.39999999999999997,14.41717,return,1.1655621998943388,,,,,,,,,,,,,,,,,p311,18,female,left_right_width,2025-11-30_09h03.58.747,exp1,2023.1.0,59.97724461373291,
,,,,,,,,,,,,,,,,4,8.35,9.45,10.55,11.65,0,1.1,0.55,0.55,3.8500000000000005,10,initial,36.05,301,341,380,420,0,9,9,9,9,0,,,,,,,3,0,3,0,0,25,25,17,,,,,,,,,,,,,,6,2.2098817999940366,6,0.5,0.4,14.41717,return,2.0560615999856964,,,,,,,,,,,,,,,,,p311,18,female,left_right_width,2025-11-30_09h03.58.747,exp1,2023.1.0,59.97724461373291,
,,,,,,,,,,,,,,,,3,7.800000000000001,10,12.2,0,0,2.1999999999999997,1.7999999999999998,0.4,4.8,10,match,36.05,281,361,440,0,0,9,9,9,0,0,,,,,,,3,0,3,0,0,26,26,39,,,,,,,,,,,,,,3,1.7432205999502912,3,0.25,0.35,12.61502,return,2.8724528999300674,,,,,,,,,,,,,,,,,p311,18,female,left_right_width,2025-11-30_09h03.58.747,exp1,2023.1.0,59.97724461373291,
,,,,,,,,,,,,,,,,3,8.6,10,11.4,0,0,1.4,1.15,0.25,3.05,10,match,36.05,310,361,411,0,0,9,9,9,0,0,,,,,,,3,0,3,0,0,27,27,43,,,,,,,,,,,,,,3,1.870331999962218,3,0.2,0.25,9.01073,return,1.3624860999407247,,,,,,,,,,,,,,,,,p311,18,female,left_right_width,2025-11-30_09h03.58.747,exp1,2023.1.0,59.97724461373291,
,,,,,,,,,,,,,,,,4,9.1,9.7,10.3,10.9,0,0.5999999999999999,0.3499999999999999,0.25,2.05,10,match,36.05,328,350,371,393,0,9,9,9,9,0,,,,,,,3,0,3,0,0,28,28,14,,,,,,,,,,,,,,4,2.37140589999035,4,0.25,0.2,7.20859,return,0.9945098999887705,,,,,,,,,,,,,,,,,p311,18,female,left_right_width,2025-11-30_09h03.58.747,exp1,2023.1.0,59.97724461373291,
,,,,,,,,,,,,,,,,3,7.8,10,12.2,0,0,2.2,1.65,0.55,4.95,10,match,36.05,281,361,440,0,0,9,9,9,0,0,,,,,,,3,0,3,0,0,29,29,35,,,,,,,,,,,,,,3,1.2947643999941647,3,0.55,0.35000000000000003,12.61502,return,1.801299100043252,,,,,,,,,,,,,,,,,p311,18,female,left_right_width,2025-11-30_09h03.58.747,exp1,2023.1.0,59.97724461373291,
,,,,,,,,,,,,,,,,5,8.65,9.325,10,10.675,11.35,0.675,0.42500000000000004,0.25,2.95,10,match,36.05,312,336,361,385,409,9,9,9,9,9,,,,,,,3,0,3,0,0,30,30,31,,,,,,,,,,,,,,6,1.991388599970378,6,0.45,0.20000000000000007,7.20859,return,3.2239859000546858,,,,,,,,,,,,,,,,,p311,18,female,left_right_width,2025-11-30_09h03.58.747,exp1,2023.1.0,59.97724461373291,
,,,,,,,,,,,,,,,,5,8.2,9.1,10,10.9,11.8,0.9,0.5,0.4,4,10,initial,36.05,296,328,361,393,425,9,9,9,9,9,,,,,,,3,0,3,0,0,31,31,50,,,,,,,,,,,,,,7,2.284867399954237,7,0.45,0.35000000000000003,12.61502,return,2.032613599905744,,,,,,,,,,,,,,,,,p311,18,female,left_right_width,2025-11-30_09h03.58.747,exp1,2023.1.0,59.97724461373291,
,,,,,,,,,,,,,,,,5,8.35,9.175,10,10.825,11.65,0.825,0.575,0.25,3.55,10,match,36.05,301,331,361,390,420,9,9,9,9,9,,,,,,,3,0,3,0,0,32,32,20,,,,,,,,,,,,,,7,2.888044900028035,7,0.4,0.30000000000000004,10.81288,return,1.5238661000039428,,,,,,,,,,,,,,,,,p311,18,female,left_right_width,2025-11-30_09h03.58.747,exp1,2023.1.0,59.97724461373291,
,,,,,,,,,,,,,,,,3,8.2,10,11.8,0,0,1.8,1.25,0.55,4.15,10,match,36.05,296,361,425,0,0,9,9,9,0,0,,,,,,,3,0,3,0,0,33,33,47,,,,,,,,,,,,,,4,1.9835549000417814,4,0.45,0.45,16.21932,return,1.0078985000727698,,,,,,,,,,,,,,,,,p311,18,female,left_right_width,2025-11-30_09h03.58.747,exp1,2023.1.0,59.97724461373291,
,,,,,,,,,,,,,,,,3,9.1,10,10.9,0,0,0.9,0.35,0.55,2.35,10,initial,36.05,328,361,393,0,0,9,9,9,0,0,,,,,,,3,0,3,0,0,34,34,11,,,,,,,,,,,,,,3,1.8812883999198675,3,0.25,0.39999999999999997,14.41717,return,2.4760935999220237,,,,,,,,,,,,,,,,,p311,18,female,left_right_width,2025-11-30_09h03.58.747,exp1,2023.1.0,59.97724461373291,
,,,,,,,,,,,,,,,,4,8.9,9.633333333333333,10.366666666666667,11.1,0,0.7333333333333333,0.18333333333333326,0.55,2.75,10,match,36.05,321,347,374,400,0,9,9,9,9,0,,,,,,,3,0,3,0,0,35,35,1,,,,,,,,,,,,,,3,1.6115400000708178,3,0.45,0.55,19.82361,return,1.4973935999441892,,,,,,,,,,,,,,,,,p311,18,female,left_right_width,2025-11-30_09h03.58.747,exp1,2023.1.0,59.97724461373291,
,,,,,,,,,,,,,,,,5,8.6,9.3,10,10.7,11.4,0.7,0.44999999999999996,0.25,3.05,10,initial,36.05,310,335,361,386,411,9,9,9,9,9,,,,,,,3,0,3,0,0,36,36,42,,,,,,,,,,,,,,6,1.7811504999408498,6,0.3,0.25,9.01073,return,1.5810705000767484,,,,,,,,,,,,,,,,,p311,18,female,left_right_width,2025-11-30_09h03.58.747,exp1,2023.1.0,59.97724461373291,
,,,,,,,,,,,,,,,,4,9.1,9.7,10.3,10.9,0,0.6,0.04999999999999997,0.55,2.35,10,match,36.05,328,350,371,393,0,9,9,9,9,0,,,,,,,3,0,3,0,0,37,37,12,,,,,,,,,,,,,,3,1.3755434999475256,3,0.4,0.6000000000000001,21.62576,return,3.8308545999461785,,,,,,,,,,,,,,,,,p311,18,female,left_right_width,2025-11-30_09h03.58.747,exp1,2023.1.0,59.97724461373291,
,,,,,,,,,,,,,,,,5,7.8,8.9,10,11.1,12.2,1.1,0.8500000000000001,0.25,4.65,10,initial,36.05,281,321,361,400,440,9,9,9,9,9,,,,,,,3,0,3,0,0,38,38,36,,,,,,,,,,,,,,5,3.418047499959357,5,0.2,0.25,9.01073,return,1.90419849997852,,,,,,,,,,,,,,,,,p311,18,female,left_right_width,2025-11-30_09h03.58.747,exp1,2023.1.0,59.97724461373291,
,,,,,,,,,,,,,,,,3,9.3,10,10.7,0,0,0.7,0.1499999999999999,0.55,1.95,10,initial,36.05,335,361,386,0,0,9,9,9,0,0,,,,,,,3,0,3,0,0,39,39,6,,,,,,,,,,,,,,2,1.3025643998989835,2,0.45,0.5,18.02146,return,0.9939621000085026,,,,,,,,,,,,,,,,,p311,18,female,left_right_width,2025-11-30_09h03.58.747,exp1,2023.1.0,59.97724461373291,
,,,,,,,,,,,,,,,,5,8.6,9.3,10,10.7,11.4,0.7,0.29999999999999993,0.4,3.1999999999999997,10,initial,36.05,310,335,361,386,411,9,9,9,9,9,,,,,,,3,0,3,0,0,40,40,44,,,,,,,,,,,,,,6,1.8280815000180155,6,0.4,0.5,18.02146,return,1.4663029999937862,,,,,,,,,,,,,,,,,p311,18,female,left_right_width,2025-11-30_09h03.58.747,exp1,2023.1.0,59.97724461373291,
,,,,,,,,,,,,,,,,3,8.6,10,11.4,0,0,1.4,0.85,0.55,3.35,10,match,36.05,310,361,411,0,0,9,9,9,0,0,,,,,,,3,0,3,0,0,41,41,41,,,,,,,,,,,,,,4,1.9644546000054106,4,0.4,0.5,18.02146,return,2.1889742000494152,,,,,,,,,,,,,,,,,p311,18,female,left_right_width,2025-11-30_09h03.58.747,exp1,2023.1.0,59.97724461373291,
,,,,,,,,,,,,,,,,4,9.1,9.7,10.3,10.9,0,0.6000000000000001,0.20000000000000004,0.4,2.2,10,match,36.05,328,350,371,393,0,9,9,9,9,0,,,,,,,3,0,3,0,0,42,42,16,,,,,,,,,,,,,,7,3.6866815000539646,7,0.2,0.25,9.01073,return,1.938490099972114,,,,,,,,,,,,,,,,,p311,18,female,left_right_width,2025-11-30_09h03.58.747,exp1,2023.1.0,59.97724461373291,
,,,,,,,,,,,,,,,,5,8.95,9.475,10,10.525,11.05,0.525,0.275,0.25,2.35,10,match,36.05,323,342,361,379,398,9,9,9,9,9,,,,,,,3,0,3,0,0,43,43,25,,,,,,,,,,,,,,5,1.7232014999026433,5,0.25,0.3,10.81288,return,1.349207799998112,,,,,,,,,,,,,,,,,p311,18,female,left_right_width,2025-11-30_09h03.58.747,exp1,2023.1.0,59.97724461373291,
,,,,,,,,,,,,,,,,3,9.1,10,10.9,0,0,0.9,0.5,0.4,2.2,10,initial,36.05,328,361,393,0,0,9,9,9,0,0,,,,,,,3,0,3,0,0,44,44,15,,,,,,,,,,,,,,3,1.3943034000694752,3,0.55,0.30000000000000004,10.81288,return,2.2820343000348657,,,,,,,,,,,,,,,,,p311,18,female,left_right_width,2025-11-30_09h03.58.747,exp1,2023.1.0,59.97724461373291,
,,,,,,,,,,,,,,,,3,8.2,10,11.8,0,0,1.7999999999999998,1.4,0.4,4,10,match,36.05,296,361,425,0,0,9,9,9,0,0,,,,,,,3,0,3,0,0,45,45,51,,,,,,,,,,,,,,4,1.5274270999943838,4,0.3,0.3,10.81288,return,1.4648661999963224,,,,,,,,,,,,,,,,,p311,18,female,left_right_width,2025-11-30_09h03.58.747,exp1,2023.1.0,59.97724461373291,
,,,,,,,,,,,,,,,,3,8.9,10,11.1,0,0,1.1,0.7000000000000001,0.4,2.6000000000000005,10,initial,36.05,321,361,400,0,0,9,9,9,0,0,,,,,,,3,0,3,0,0,46,46,4,,,,,,,,,,,,,,3,1.3353462000377476,3,0.55,0.4,14.41717,return,2.1921470999950543,,,,,,,,,,,,,,,,,p311,18,female,left_right_width,2025-11-30_09h03.58.747,exp1,2023.1.0,59.97724461373291,
,,,,,,,,,,,,,,,,4,8.65,9.55,10.45,11.35,0,0.9,0.65,0.25,2.95,10,initial,36.05,312,344,377,409,0,9,9,9,9,0,,,,,,,3,0,3,0,0,47,47,30,,,,,,,,,,,,,,4,1.3524552999297157,4,0.4,0.25000000000000006,9.01073,return,1.457510199979879,,,,,,,,,,,,,,,,,p311,18,female,left_right_width,2025-11-30_09h03.58.747,exp1,2023.1.0,59.97724461373291,
,,,,,,,,,,,,,,,,5,8.275,9.1375,10,10.8625,11.725,0.8625,0.6125,0.25,3.7,10,match,36.05,298,329,361,392,423,9,9,9,9,9,,,,,,,3,0,3,0,0,48,48,22,,,,,,,,,,,,,,4,2.4364794000284746,4,0.3,0.25,9.01073,return,0.8662775000557303,,,,,,,,,,,,,,,,,p311,18,female,left_right_width,2025-11-30_09h03.58.747,exp1,2023.1.0,59.97724461373291,
,,,,,,,,,,,,,,,,4,9.3,9.766666666666667,10.233333333333333,10.7,0,0.4666666666666667,0.06666666666666665,0.4,1.8,10,match,36.05,335,352,369,386,0,9,9,9,9,0,,,,,,,3,0,3,0,0,49,49,10,,,,,,,,,,,,,,3,1.3725490999640897,3,0.3,0.39999999999999997,14.41717,return,0.9330003999639302,,,,,,,,,,,,,,,,,p311,18,female,left_right_width,2025-11-30_09h03.58.747,exp1,2023.1.0,59.97724461373291,
,,,,,,,,,,,,,,,,5,8.65,9.325,10,10.675,11.35,0.675,0.125,0.55,3.25,10,match,36.05,312,336,361,385,409,9,9,9,9,9,,,,,,,3,0,3,0,0,50,50,29,,,,,,,,,,,,,,6,1.4260011999867857,6,0.45,0.5,18.02146,return,4.39146970002912,,,,,,,,,,,,,,,,,p311,18,female,left_right_width,2025-11-30_09h03.58.747,exp1,2023.1.0,59.97724461373291,
,,,,,,,,,,,,,,,,5,8.6,9.3,10,10.7,11.4,0.7,0.1499999999999999,0.55,3.3499999999999996,10,initial,36.05,310,335,361,386,411,9,9,9,9,9,,,,,,,3,0,3,0,0,51,51,40,,,,,,,,,,,,,,4,1.407065299921669,4,0.5,0.6000000000000001,21.62576,return,1.478209299966693,,,,,,,,,,,,,,,,,p311,18,female,left_right_width,2025-11-30_09h03.58.747,exp1,2023.1.0,59.97724461373291,
,,,,,,,,,,,,,,,,,,,,,,,,,,,,,,,,,,,,,,,,,,,,,3,0,3,0,,,,,,,,,,,,,,,,,,,,,,,,,,,,2984.235186500009,2984.235186500009,2984.235186500009,,,,,,,,,,,,p311,18,female,left_right_width,2025-11-30_09h03.58.747,exp1,2023.1.0,59.97724461373291,
,,,,,,,,,,,,,,,,5,8.95,9.475,10,10.525,11.05,0.525,0.275,0.25,2.35,10,match,36.05,323,342,361,379,398,9,9,9,9,9,,,,,,,4,0,4,0,0,0,0,25,,,,,,,,,,,,,,5,1.5755597000243142,5,0.5,0.20000000000000007,7.20859,return,14.326086000073701,,,,,,,,,,,,,,,,,p311,18,female,left_right_width,2025-11-30_09h03.58.747,exp1,2023.1.0,59.97724461373291,
,,,,,,,,,,,,,,,,5,8.95,9.475,10,10.525,11.05,0.525,0.125,0.4,2.5,10,match,36.05,323,342,361,379,398,9,9,9,9,9,,,,,,,4,0,4,0,0,1,1,27,,,,,,,,,,,,,,5,2.268866500002332,5,0.4,0.35000000000000003,12.61502,return,1.6807644999353215,,,,,,,,,,,,,,,,,p311,18,female,left_right_width,2025-11-30_09h03.58.747,exp1,2023.1.0,59.97724461373291,
,,,,,,,,,,,,,,,,3,7.8,10,12.2,0,0,2.2,1.65,0.55,4.95,10,match,36.05,281,361,440,0,0,9,9,9,0,0,,,,,,,4,0,4,0,0,2,2,35,,,,,,,,,,,,,,3,1.4886077999835834,3,0.35,0.44999999999999996,16.21932,return,1.8603433000389487,,,,,,,,,,,,,,,,,p311,18,female,left_right_width,2025-11-30_09h03.58.747,exp1,2023.1.0,59.97724461373291,
,,,,,,,,,,,,,,,,5,7.8,8.9,10,11.1,12.2,1.1,0.7000000000000001,0.4,4.800000000000001,10,initial,36.05,281,321,361,400,440,9,9,9,9,9,,,,,,,4,0,4,0,0,3,3,38,,,,,,,,,,,,,,6,1.6111867000581697,6,0.3,0.39999999999999997,14.41717,return,1.5451950000133365,,,,,,,,,,,,,,,,,p311,18,female,left_right_width,2025-11-30_09h03.58.747,exp1,2023.1.0,59.97724461373291,
,,,,,,,,,,,,,,,,5,7.8,8.9,10,11.1,12.2,1.1,0.55,0.55,4.95,10,initial,36.05,281,321,361,400,440,9,9,9,9,9,,,,,,,4,0,4,0,0,4,4,34,,,,,,,,,,,,,,5,1.941594099975191,5,0.25,0.39999999999999997,14.41717,return,4.069506200030446,,,,,,,,,,,,,,,,,p311,18,female,left_right_width,2025-11-30_09h03.58.747,exp1,2023.1.0,59.97724461373291,
,,,,,,,,,,,,,,,,4,9.3,9.766666666666667,10.233333333333333,10.7,0,0.4666666666666667,0.21666666666666665,0.25,1.65,10,match,36.05,335,352,369,386,0,9,9,9,9,0,,,,,,,4,0,4,0,0,5,5,8,,,,,,,,,,,,,,5,1.7015227999072522,5,0.5,0.25000000000000006,9.01073,return,3.8252315000863746,,,,,,,,,,,,,,,,,p311,18,female,left_right_width,2025-11-30_09h03.58.747,exp1,2023.1.0,59.97724461373291,
,,,,,,,,,,,,,,,,3,9.1,10,10.9,0,0,0.9,0.65,0.25,2.05,10,initial,36.05,328,361,393,0,0,9,9,9,0,0,,,,,,,4,0,4,0,0,6,6,13,,,,,,,,,,,,,,3,1.8167039999971166,3,0.45,0.25000000000000006,9.01073,return,2.2387209999142215,,,,,,,,,,,,,,,,,p311,18,female,left_right_width,2025-11-30_09h03.58.747,exp1,2023.1.0,59.97724461373291,
,,,,,,,,,,,,,,,,5,8.65,9.325,10,10.675,11.35,0.675,0.275,0.4,3.1,10,match,36.05,312,336,361,385,409,9,9,9,9,9,,,,,,,4,0,4,0,0,7,7,33,,,,,,,,,,,,,,5,1.6131300999550149,5,0.2,0.2,7.20859,return,0.6187063000397757,,,,,,,,,,,,,,,,,p311,18,female,left_right_width,2025-11-30_09h03.58.747,exp1,2023.1.0,59.97724461373291,
,,,,,,,,,,,,,,,,3,9.1,10,10.9,0,0,0.9,0.35,0.55,2.35,10,initial,36.05,328,361,393,0,0,9,9,9,0,0,,,,,,,4,0,4,0,0,8,8,11,,,,,,,,,,,,,,3,6.467638599919155,3,0.3,0.35,12.61502,return,2.0466781000141054,,,,,,,,,,,,,,,,,p311,18,female,left_right_width,2025-11-30_09h03.58.747,exp1,2023.1.0,59.97724461373291,
,,,,,,,,,,,,,,,,5,8.35,9.175,10,10.825,11.65,0.8250000000000001,0.275,0.55,3.85,10,match,36.05,301,331,361,390,420,9,9,9,9,9,,,,,,,4,0,4,0,0,9,9,18,,,,,,,,,,,,,,5,1.1747619000962004,5,0.5,0.5,18.02146,return,1.5428068999899551,,,,,,,,,,,,,,,,,p311,18,female,left_right_width,2025-11-30_09h03.58.747,exp1,2023.1.0,59.97724461373291,
,,,,,,,,,,,,,,,,4,8.65,9.55,10.45,11.35,0,0.9,0.35,0.55,3.25,10,initial,36.05,312,344,377,409,0,9,9,9,9,0,,,,,,,4,0,4,0,0,10,10,28,,,,,,,,,,,,,,5,1.9733156999573112,5,0.5,0.45,16.21932,return,2.2773585999384522,,,,,,,,,,,,,,,,,p311,18,female,left_right_width,2025-11-30_09h03.58.747,exp1,2023.1.0,59.97724461373291,
,,,,,,,,,,,,,,,,4,8.9,9.633333333333333,10.366666666666667,11.1,0,0.7333333333333334,0.4833333333333334,0.25,2.45,10,match,36.05,321,347,374,400,0,9,9,9,9,0,,,,,,,4,0,4,0,0,11,11,3,,,,,,,,,,,,,,5,1.84257500001695,5,0.45,0.20000000000000007,7.20859,return,3.0786424999823794,,,,,,,,,,,,,,,,,p311,18,female,left_right_width,2025-11-30_09h03.58.747,exp1,2023.1.0,59.97724461373291,
,,,,,,,,,,,,,,,,3,8.525,10,11.475,0,0,1.475,1.225,0.25,3.2,10,match,36.05,307,361,414,0,0,9,9,9,0,0,,,,,,,4,0,4,0,0,12,12,45,,,,,,,,,,,,,,3,1.332346500013955,3,0.5,0.25000000000000006,9.01073,return,3.773427699925378,,,,,,,,,,,,,,,,,p311,18,female,left_right_width,2025-11-30_09h03.58.747,exp1,2023.1.0,59.97724461373291,
,,,,,,,,,,,,,,,,5,8.6,9.3,10,10.7,11.4,0.7,0.29999999999999993,0.4,3.1999999999999997,10,initial,36.05,310,335,361,386,411,9,9,9,9,9,,,,,,,4,0,4,0,0,13,13,44,,,,,,,,,,,,,,6,1.7855251000728458,6,0.55,0.30000000000000004,10.81288,return,2.5934334999183193,,,,,,,,,,,,,,,,,p311,18,female,left_right_width,2025-11-30_09h03.58.747,exp1,2023.1.0,59.97724461373291,
,,,,,,,,,,,,,,,,4,8.35,9.45,10.55,11.65,0,1.1,0.55,0.55,3.8500000000000005,10,initial,36.05,301,341,380,420,0,9,9,9,9,0,,,,,,,4,0,4,0,0,14,14,17,,,,,,,,,,,,,,6,3.158784400089644,6,0.5,0.45,16.21932,return,3.798812299966812,,,,,,,,,,,,,,,,,p311,18,female,left_right_width,2025-11-30_09h03.58.747,exp1,2023.1.0,59.97724461373291,
,,,,,,,,,,,,,,,,5,8.65,9.325,10,10.675,11.35,0.675,0.125,0.55,3.25,10,match,36.05,312,336,361,385,409,9,9,9,9,9,,,,,,,4,0,4,0,0,15,15,29,,,,,,,,,,,,,,6,1.792176999966614,6,0.3,0.49999999999999994,18.02146,return,3.095603600027971,,,,,,,,,,,,,,,,,p311,18,female,left_right_width,2025-11-30_09h03.58.747,exp1,2023.1.0,59.97724461373291,
,,,,,,,,,,,,,,,,4,9.1,9.7,10.3,10.9,0,0.6000000000000001,0.20000000000000004,0.4,2.2,10,match,36.05,328,350,371,393,0,9,9,9,9,0,,,,,,,4,0,4,0,0,16,16,16,,,,,,,,,,,,,,5,1.1237142001045868,5,0.2,0.3,10.81288,return,3.2363460999913514,,,,,,,,,,,,,,,,,p311,18,female,left_right_width,2025-11-30_09h03.58.747,exp1,2023.1.0,59.97724461373291,
,,,,,,,,,,,,,,,,3,8.6,10,11.4,0,0,1.4,0.85,0.55,3.35,10,match,36.05,310,361,411,0,0,9,9,9,0,0,,,,,,,4,0,4,0,0,17,17,41,,,,,,,,,,,,,,3,1.2851126999594271,3,0.3,0.44999999999999996,16.21932,return,1.4235354999545962,,,,,,,,,,,,,,,,,p311,18,female,left_right_width,2025-11-30_09h03.58.747,exp1,2023.1.0,59.97724461373291,
,,,,,,,,,,,,,,,,4,8.825,9.608333333333333,10.391666666666667,11.175,0,0.7833333333333333,0.5333333333333333,0.25,2.6,10,match,36.05,318,346,375,403,0,9,9,9,9,0,,,,,,,4,0,4,0,0,18,18,5,,,,,,,,,,,,,,4,2.4796684999018908,4,0.25,0.3,10.81288,return,1.291668999940157,,,,,,,,,,,,,,,,,p311,18,female,left_right_width,2025-11-30_09h03.58.747,exp1,2023.1.0,59.97724461373291,
,,,,,,,,,,,,,,,,3,9.1,10,10.9,0,0,0.9,0.5,0.4,2.2,10,initial,36.05,328,361,393,0,0,9,9,9,0,0,,,,,,,4,0,4,0,0,19,19,15,,,,,,,,,,,,,,3,2.6663560000015423,3,0.4,0.30000000000000004,10.81288,return,1.775454599992372,,,,,,,,,,,,,,,,,p311,18,female,left_right_width,2025-11-30_09h03.58.747,exp1,2023.1.0,59.97724461373291,
,,,,,,,,,,,,,,,,4,8.35,9.45,10.55,11.65,0,1.1,0.7000000000000001,0.4,3.7,10,initial,36.05,301,341,380,420,0,9,9,9,9,0,,,,,,,4,0,4,0,0,20,20,21,,,,,,,,,,,,,,5,1.398067699978128,5,0.55,0.35000000000000003,12.61502,return,2.0291420000139624,,,,,,,,,,,,,,,,,p311,18,female,left_right_width,2025-11-30_09h03.58.747,exp1,2023.1.0,59.97724461373291,
,,,,,,,,,,,,,,,,4,8.95,9.65,10.35,11.05,0,0.7,0.44999999999999996,0.25,2.3499999999999996,10,initial,36.05,323,348,373,398,0,9,9,9,9,0,,,,,,,4,0,4,0,0,21,21,24,,,,,,,,,,,,,,5,1.1286521999863908,5,0.55,0.25000000000000006,9.01073,return,1.7540535000152886,,,,,,,,,,,,,,,,,p311,18,female,left_right_width,2025-11-30_09h03.58.747,exp1,2023.1.0,59.97724461373291,
,,,,,,,,,,,,,,,,3,8.2,10,11.8,0,0,1.8,1.25,0.55,4.15,10,match,36.05,296,361,425,0,0,9,9,9,0,0,,,,,,,4,0,4,0,0,22,22,47,,,,,,,,,,,,,,3,1.4319235000293702,3,0.25,0.5499999999999999,19.82361,return,3.3419629000127316,,,,,,,,,,,,,,,,,p311,18,female,left_right_width,2025-11-30_09h03.58.747,exp1,2023.1.0,59.97724461373291,
,,,,,,,,,,,,,,,,5,8.2,9.1,10,10.9,11.8,0.9,0.5,0.4,4,10,initial,36.05,296,328,361,393,425,9,9,9,9,9,,,,,,,4,0,4,0,0,23,23,50,,,,,,,,,,,,,,6,1.7274064000230283,6,0.55,0.4,14.41717,return,2.040779500035569,,,,,,,,,,,,,,,,,p311,18,female,left_right_width,2025-11-30_09h03.58.747,exp1,2023.1.0,59.97724461373291,
,,,,,,,,,,,,,,,,3,8.6,10,11.4,0,0,1.4,1.15,0.25,3.05,10,match,36.05,310,361,411,0,0,9,9,9,0,0,,,,,,,4,0,4,0,0,24,24,43,,,,,,,,,,,,,,3,3.1620627000229433,3,0.2,0.2,7.20859,return,1.7062433999963105,,,,,,,,,,,,,,,,,p311,18,female,left_right_width,2025-11-30_09h03.58.747,exp1,2023.1.0,59.97724461373291,
,,,,,,,,,,,,,,,,5,8.2,9.1,10,10.9,11.8,0.9,0.65,0.25,3.85,10,initial,36.05,296,328,361,393,425,9,9,9,9,9,,,,,,,4,0,4,0,0,25,25,48,,,,,,,,,,,,,,4,6.9350481000728905,4,0.55,0.20000000000000007,7.20859,return,2.1292428999440745,,,,,,,,,,,,,,,,,p311,18,female,left_right_width,2025-11-30_09h03.58.747,exp1,2023.1.0,59.97724461373291,
,,,,,,,,,,,,,,,,4,8.95,9.65,10.35,11.05,0,0.7,0.29999999999999993,0.4,2.5,10,initial,36.05,323,348,373,398,0,9,9,9,9,0,,,,,,,4,0,4,0,0,26,26,26,,,,,,,,,,,,,,4,1.5184445000486448,4,0.25,0.35,12.61502,return,1.2651370000094175,,,,,,,,,,,,,,,,,p311,18,female,left_right_width,2025-11-30_09h03.58.747,exp1,2023.1.0,59.97724461373291,
,,,,,,,,,,,,,,,,3,9.3,10,10.7,0,0,0.7,0.1499999999999999,0.55,1.95,10,initial,36.05,335,361,386,0,0,9,9,9,0,0,,,,,,,4,0,4,0,0,27,27,6,,,,,,,,,,,,,,2,1.4239633000688627,2,0.45,0.5,18.02146,return,1.6850686999969184,,,,,,,,,,,,,,,,,p311,18,female,left_right_width,2025-11-30_09h03.58.747,exp1,2023.1.0,59.97724461373291,
,,,,,,,,,,,,,,,,3,8.9,10,11.1,0,0,1.1,0.55,0.55,2.75,10,initial,36.05,321,361,400,0,0,9,9,9,0,0,,,,,,,4,0,4,0,0,28,28,0,,,,,,,,,,,,,,3,1.192830599960871,3,0.3,0.49999999999999994,18.02146,return,2.1999393000733107,,,,,,,,,,,,,,,,,p311,18,female,left_right_width,2025-11-30_09h03.58.747,exp1,2023.1.0,59.97724461373291,
,,,,,,,,,,,,,,,,5,7.8,8.9,10,11.1,12.2,1.1,0.8500000000000001,0.25,4.65,10,initial,36.05,281,321,361,400,440,9,9,9,9,9,,,,,,,4,0,4,0,0,29,29,36,,,,,,,,,,,,,,8,1.561766600003466,8,0.45,0.25000000000000006,9.01073,return,1.5948468999704346,,,,,,,,,,,,,,,,,p311,18,female,left_right_width,2025-11-30_09h03.58.747,exp1,2023.1.0,59.97724461373291,
,,,,,,,,,,,,,,,,4,8.95,9.65,10.35,11.05,0,0.7,0.1499999999999999,0.55,2.65,10,initial,36.05,323,348,373,398,0,9,9,9,9,0,,,,,,,4,0,4,0,0,30,30,23,,,,,,,,,,,,,,3,1.725383899989538,3,0.2,0.25,9.01073,return,6.615772100049071,,,,,,,,,,,,,,,,,p311,18,female,left_right_width,2025-11-30_09h03.58.747,exp1,2023.1.0,59.97724461373291,
,,,,,,,,,,,,,,,,3,8.9,10,11.1,0,0,1.1,0.7000000000000001,0.4,2.6000000000000005,10,initial,36.05,321,361,400,0,0,9,9,9,0,0,,,,,,,4,0,4,0,0,31,31,4,,,,,,,,,,,,,,3,1.1803436999907717,3,0.5,0.4,14.41717,return,1.5489027000730857,,,,,,,,,,,,,,,,,p311,18,female,left_right_width,2025-11-30_09h03.58.747,exp1,2023.1.0,59.97724461373291,
,,,,,,,,,,,,,,,,4,9.1,9.7,10.3,10.9,0,0.6,0.04999999999999997,0.55,2.35,10,match,36.05,328,350,371,393,0,9,9,9,9,0,,,,,,,4,0,4,0,0,32,32,12,,,,,,,,,,,,,,3,1.2819689000025392,3,0.35,0.5499999999999999,19.82361,return,1.678226500051096,,,,,,,,,,,,,,,,,p311,18,female,left_right_width,2025-11-30_09h03.58.747,exp1,2023.1.0,59.97724461373291,
,,,,,,,,,,,,,,,,5,8.65,9.325,10,10.675,11.35,0.675,0.42500000000000004,0.25,2.95,10,match,36.05,312,336,361,385,409,9,9,9,9,9,,,,,,,4,0,4,0,0,33,33,31,,,,,,,,,,,,,,5,3.7638363998848945,5,0.55,0.35000000000000003,12.61502,return,1.580019900109619,,,,,,,,,,,,,,,,,p311,18,female,left_right_width,2025-11-30_09h03.58.747,exp1,2023.1.0,59.97724461373291,
,,,,,,,,,,,,,,,,3,7.8,10,12.2,0,0,2.2,1.9500000000000002,0.25,4.65,10,match,36.05,281,361,440,0,0,9,9,9,0,0,,,,,,,4,0,4,0,0,34,34,37,,,,,,,,,,,,,,3,1.3698334000073373,3,0.45,0.20000000000000007,7.20859,return,2.434221600065939,,,,,,,,,,,,,,,,,p311,18,female,left_right_width,2025-11-30_09h03.58.747,exp1,2023.1.0,59.97724461373291,
,,,,,,,,,,,,,,,,4,8.65,9.55,10.45,11.35,0,0.9,0.65,0.25,2.95,10,initial,36.05,312,344,377,409,0,9,9,9,9,0,,,,,,,4,0,4,0,0,35,35,30,,,,,,,,,,,,,,4,1.3424997000256553,4,0.35,0.25,9.01073,return,1.2230823000427336,,,,,,,,,,,,,,,,,p311,18,female,left_right_width,2025-11-30_09h03.58.747,exp1,2023.1.0,59.97724461373291,
,,,,,,,,,,,,,,,,3,8.9,10,11.1,0,0,1.1,0.8500000000000001,0.25,2.45,10,initial,36.05,321,361,400,0,0,9,9,9,0,0,,,,,,,4,0,4,0,0,36,36,2,,,,,,,,,,,,,,3,1.4325194000266492,3,0.5,0.20000000000000007,7.20859,return,2.2696351000340655,,,,,,,,,,,,,,,,,p311,18,female,left_right_width,2025-11-30_09h03.58.747,exp1,2023.1.0,59.97724461373291,
,,,,,,,,,,,,,,,,3,9.3,10,10.7,0,0,0.7,0.44999999999999996,0.25,1.65,10,initial,36.05,335,361,386,0,0,9,9,9,0,0,,,,,,,4,0,4,0,0,37,37,7,,,,,,,,,,,,,,4,1.264058499946259,4,0.25,0.2,7.20859,return,1.6919089000439271,,,,,,,,,,,,,,,,,p311,18,female,left_right_width,2025-11-30_09h03.58.747,exp1,2023.1.0,59.97724461373291,
,,,,,,,,,,,,,,,,3,7.800000000000001,10,12.2,0,0,2.1999999999999997,1.7999999999999998,0.4,4.8,10,match,36.05,281,361,440,0,0,9,9,9,0,0,,,,,,,4,0,4,0,0,38,38,39,,,,,,,,,,,,,,3,1.6954767999704927,3,0.3,0.25,9.01073,return,6.810476600076072,,,,,,,,,,,,,,,,,p311,18,female,left_right_width,2025-11-30_09h03.58.747,exp1,2023.1.0,59.97724461373291,
,,,,,,,,,,,,,,,,4,9.3,9.766666666666667,10.233333333333333,10.7,0,0.4666666666666667,0.06666666666666665,0.4,1.8,10,match,36.05,335,352,369,386,0,9,9,9,9,0,,,,,,,4,0,4,0,0,39,39,10,,,,,,,,,,,,,,4,1.5009096999419853,4,0.5,0.35000000000000003,12.61502,return,3.6473713000304997,,,,,,,,,,,,,,,,,p311,18,female,left_right_width,2025-11-30_09h03.58.747,exp1,2023.1.0,59.97724461373291,
,,,,,,,,,,,,,,,,4,9.1,9.7,10.3,10.9,0,0.5999999999999999,0.3499999999999999,0.25,2.05,10,match,36.05,328,350,371,393,0,9,9,9,9,0,,,,,,,4,0,4,0,0,40,40,14,,,,,,,,,,,,,,4,1.3618192999856547,4,0.35,0.3,10.81288,return,1.1463467999128625,,,,,,,,,,,,,,,,,p311,18,female,left_right_width,2025-11-30_09h03.58.747,exp1,2023.1.0,59.97724461373291,
,,,,,,,,,,,,,,,,3,9.3,10,10.7,0,0,0.7,0.29999999999999993,0.4,1.8,10,initial,36.05,335,361,386,0,0,9,9,9,0,0,,,,,,,4,0,4,0,0,41,41,9,,,,,,,,,,,,,,3,1.366203899960965,3,0.3,0.39999999999999997,14.41717,return,2.174902300001122,,,,,,,,,,,,,,,,,p311,18,female,left_right_width,2025-11-30_09h03.58.747,exp1,2023.1.0,59.97724461373291,
,,,,,,,,,,,,,,,,3,8.2,10,11.8,0,0,1.7999999999999998,1.4,0.4,4,10,match,36.05,296,361,425,0,0,9,9,9,0,0,,,,,,,4,0,4,0,0,42,42,51,,,,,,,,,,,,,,3,1.5944821999873966,3,0.35,0.39999999999999997,14.41717,return,1.817632699967362,,,,,,,,,,,,,,,,,p311,18,female,left_right_width,2025-11-30_09h03.58.747,exp1,2023.1.0,59.97724461373291,
,,,,,,,,,,,,,,,,4,8.65,9.55,10.45,11.35,0,0.9,0.5,0.4,3.1,10,initial,36.05,312,344,377,409,0,9,9,9,9,0,,,,,,,4,0,4,0,0,43,43,32,,,,,,,,,,,,,,4,1.3101703999564052,4,0.35,0.39999999999999997,14.41717,return,1.1135295000858605,,,,,,,,,,,,,,,,,p311,18,female,left_right_width,2025-11-30_09h03.58.747,exp1,2023.1.0,59.97724461373291,
,,,,,,,,,,,,,,,,3,8.2,10,11.8,0,0,1.8,1.55,0.25,3.85,10,match,36.05,296,361,425,0,0,9,9,9,0,0,,,,,,,4,0,4,0,0,44,44,49,,,,,,,,,,,,,,3,1.140268399962224,3,0.25,0.3,10.81288,return,1.2207765999482945,,,,,,,,,,,,,,,,,p311,18,female,left_right_width,2025-11-30_09h03.58.747,exp1,2023.1.0,59.97724461373291,
,,,,,,,,,,,,,,,,5,8.6,9.3,10,10.7,11.4,0.7,0.44999999999999996,0.25,3.05,10,initial,36.05,310,335,361,386,411,9,9,9,9,9,,,,,,,4,0,4,0,0,45,45,42,,,,,,,,,,,,,,7,2.852255400037393,7,0.45,0.30000000000000004,10.81288,return,2.8010371000273153,,,,,,,,,,,,,,,,,p311,18,female,left_right_width,2025-11-30_09h03.58.747,exp1,2023.1.0,59.97724461373291,
,,,,,,,,,,,,,,,,5,8.35,9.175,10,10.825,11.65,0.825,0.575,0.25,3.55,10,match,36.05,301,331,361,390,420,9,9,9,9,9,,,,,,,4,0,4,0,0,46,46,20,,,,,,,,,,,,,,7,2.4529819999588653,7,0.5,0.30000000000000004,10.81288,return,2.4973731000209227,,,,,,,,,,,,,,,,,p311,18,female,left_right_width,2025-11-30_09h03.58.747,exp1,2023.1.0,59.97724461373291,
,,,,,,,,,,,,,,,,4,8.9,9.633333333333333,10.366666666666667,11.1,0,0.7333333333333333,0.18333333333333326,0.55,2.75,10,match,36.05,321,347,374,400,0,9,9,9,9,0,,,,,,,4,0,4,0,0,47,47,1,,,,,,,,,,,,,,3,1.2006395000498742,3,0.45,0.55,19.82361,return,2.3194671999663115,,,,,,,,,,,,,,,,,p311,18,female,left_right_width,2025-11-30_09h03.58.747,exp1,2023.1.0,59.97724461373291,
,,,,,,,,,,,,,,,,5,8.275,9.1375,10,10.8625,11.725,0.8625,0.6125,0.25,3.7,10,match,36.05,298,329,361,392,423,9,9,9,9,9,,,,,,,4,0,4,0,0,48,48,22,,,,,,,,,,,,,,4,2.7141051000216976,4,0.35,0.39999999999999997,14.41717,return,1.292063899920322,,,,,,,,,,,,,,,,,p311,18,female,left_right_width,2025-11-30_09h03.58.747,exp1,2023.1.0,59.97724461373291,
,,,,,,,,,,,,,,,,5,8.2,9.1,10,10.9,11.8,0.9,0.35,0.55,4.15,10,initial,36.05,296,328,361,393,425,9,9,9,9,9,,,,,,,4,0,4,0,0,49,49,46,,,,,,,,,,,,,,6,2.107621100032702,6,0.25,0.44999999999999996,16.21932,return,1.3658927000360563,,,,,,,,,,,,,,,,,p311,18,female,left_right_width,2025-11-30_09h03.58.747,exp1,2023.1.0,59.97724461373291,
,,,,,,,,,,,,,,,,4,8.35,9.45,10.55,11.65,0,1.1,0.8500000000000001,0.25,3.5500000000000003,10,initial,36.05,301,341,380,420,0,9,9,9,9,0,,,,,,,4,0,4,0,0,50,50,19,,,,,,,,,,,,,,6,3.132867900072597,6,0.4,0.35000000000000003,12.61502,return,1.247204800019972,,,,,,,,,,,,,,,,,p311,18,female,left_right_width,2025-11-30_09h03.58.747,exp1,2023.1.0,59.97724461373291,
,,,,,,,,,,,,,,,,5,8.6,9.3,10,10.7,11.4,0.7,0.1499999999999999,0.55,3.3499999999999996,10,initial,36.05,310,335,361,386,411,9,9,9,9,9,,,,,,,4,0,4,0,0,51,51,40,,,,,,,,,,,,,,5,3.168473399942741,5,0.25,0.39999999999999997,14.41717,return,2.1606304000597447,,,,,,,,,,,,,,,,,p311,18,female,left_right_width,2025-11-30_09h03.58.747,exp1,2023.1.0,59.97724461373291,
,,,,,,,,,,,,,,,,,,,,,,,,,,,,,,,,,,,,,,,,,,,,,4,0,4,0,,,,,,,,,,,,,,,,,,,,,,,,,,,,3405.4684614000143,3405.4684614000143,3405.4684614000143,,,,,,,,,,,,p311,18,female,left_right_width,2025-11-30_09h03.58.747,exp1,2023.1.0,59.97724461373291,
,,,,,,,,,,,,,,,,5,8.6,9.3,10,10.7,11.4,0.7,0.1499999999999999,0.55,3.3499999999999996,10,initial,36.05,310,335,361,386,411,9,9,9,9,9,,,,,,,5,0,5,0,0,0,0,40,,,,,,,,,,,,,,4,1.6989579999353737,4,0.5,0.5,18.02146,return,1.5677014999091625,,,,,,,,,,,,,,,,,p311,18,female,left_right_width,2025-11-30_09h03.58.747,exp1,2023.1.0,59.97724461373291,
,,,,,,,,,,,,,,,,3,8.9,10,11.1,0,0,1.1,0.8500000000000001,0.25,2.45,10,initial,36.05,321,361,400,0,0,9,9,9,0,0,,,,,,,5,0,5,0,0,1,1,2,,,,,,,,,,,,,,3,1.1392298000864685,3,0.45,0.30000000000000004,10.81288,return,2.2594410999445245,,,,,,,,,,,,,,,,,p311,18,female,left_right_width,2025-11-30_09h03.58.747,exp1,2023.1.0,59.97724461373291,
,,,,,,,,,,,,,,,,4,8.9,9.633333333333333,10.366666666666667,11.1,0,0.7333333333333334,0.4833333333333334,0.25,2.45,10,match,36.05,321,347,374,400,0,9,9,9,9,0,,,,,,,5,0,5,0,0,2,2,3,,,,,,,,,,,,,,4,1.5324030000483617,4,0.45,0.35000000000000003,12.61502,return,1.2791861000005156,,,,,,,,,,,,,,,,,p311,18,female,left_right_width,2025-11-30_09h03.58.747,exp1,2023.1.0,59.97724461373291,
,,,,,,,,,,,,,,,,3,8.2,10,11.8,0,0,1.8,1.55,0.25,3.85,10,match,36.05,296,361,425,0,0,9,9,9,0,0,,,,,,,5,0,5,0,0,3,3,49,,,,,,,,,,,,,,3,1.5095043999608606,3,0.5,0.25000000000000006,9.01073,return,2.3279108999995515,,,,,,,,,,,,,,,,,p311,18,female,left_right_width,2025-11-30_09h03.58.747,exp1,2023.1.0,59.97724461373291,
,,,,,,,,,,,,,,,,4,8.95,9.65,10.35,11.05,0,0.7,0.1499999999999999,0.55,2.65,10,initial,36.05,323,348,373,398,0,9,9,9,9,0,,,,,,,5,0,5,0,0,4,4,23,,,,,,,,,,,,,,5,1.5883170999586582,5,0.45,0.6000000000000001,21.62576,return,1.7311816000146791,,,,,,,,,,,,,,,,,p311,18,female,left_right_width,2025-11-30_09h03.58.747,exp1,2023.1.0,59.97724461373291,
,,,,,,,,,,,,,,,,4,8.65,9.55,10.45,11.35,0,0.9,0.5,0.4,3.1,10,initial,36.05,312,344,377,409,0,9,9,9,9,0,,,,,,,5,0,5,0,0,5,5,32,,,,,,,,,,,,,,5,1.7653870000503957,5,0.45,0.35000000000000003,12.61502,return,2.0448155000340194,,,,,,,,,,,,,,,,,p311,18,female,left_right_width,2025-11-30_09h03.58.747,exp1,2023.1.0,59.97724461373291,
,,,,,,,,,,,,,,,,4,8.95,9.65,10.35,11.05,0,0.7,0.29999999999999993,0.4,2.5,10,initial,36.05,323,348,373,398,0,9,9,9,9,0,,,,,,,5,0,5,0,0,6,6,26,,,,,,,,,,,,,,4,1.252979899989441,4,0.4,0.45,16.21932,return,2.497660900000483,,,,,,,,,,,,,,,,,p311,18,female,left_right_width,2025-11-30_09h03.58.747,exp1,2023.1.0,59.97724461373291,
,,,,,,,,,,,,,,,,3,9.1,10,10.9,0,0,0.9,0.35,0.55,2.35,10,initial,36.05,328,361,393,0,0,9,9,9,0,0,,,,,,,5,0,5,0,0,7,7,11,,,,,,,,,,,,,,3,1.461510100052692,3,0.4,0.5,18.02146,return,1.368722299928777,,,,,,,,,,,,,,,,,p311,18,female,left_right_width,2025-11-30_09h03.58.747,exp1,2023.1.0,59.97724461373291,
,,,,,,,,,,,,,,,,3,8.6,10,11.4,0,0,1.4,1.15,0.25,3.05,10,match,36.05,310,361,411,0,0,9,9,9,0,0,,,,,,,5,0,5,0,0,8,8,43,,,,,,,,,,,,,,3,2.1179841000121087,3,0.45,0.35000000000000003,12.61502,return,1.6979143000207841,,,,,,,,,,,,,,,,,p311,18,female,left_right_width,2025-11-30_09h03.58.747,exp1,2023.1.0,59.97724461373291,
,,,,,,,,,,,,,,,,5,8.65,9.325,10,10.675,11.35,0.675,0.42500000000000004,0.25,2.95,10,match,36.05,312,336,361,385,409,9,9,9,9,9,,,,,,,5,0,5,0,0,9,9,31,,,,,,,,,,,,,,6,4.370868100086227,6,0.25,0.3,10.81288,return,1.4755285000428557,,,,,,,,,,,,,,,,,p311,18,female,left_right_width,2025-11-30_09h03.58.747,exp1,2023.1.0,59.97724461373291,
,,,,,,,,,,,,,,,,4,8.65,9.55,10.45,11.35,0,0.9,0.65,0.25,2.95,10,initial,36.05,312,344,377,409,0,9,9,9,9,0,,,,,,,5,0,5,0,0,10,10,30,,,,,,,,,,,,,,4,1.8407090000109747,4,0.2,0.25,9.01073,return,2.358182099997066,,,,,,,,,,,,,,,,,p311,18,female,left_right_width,2025-11-30_09h03.58.747,exp1,2023.1.0,59.97724461373291,
,,,,,,,,,,,,,,,,3,8.525,10,11.475,0,0,1.475,1.225,0.25,3.2,10,match,36.05,307,361,414,0,0,9,9,9,0,0,,,,,,,5,0,5,0,0,11,11,45,,,,,,,,,,,,,,3,1.2528728999895975,3,0.25,0.2,7.20859,return,1.07415120000951,,,,,,,,,,,,,,,,,p311,18,female,left_right_width,2025-11-30_09h03.58.747,exp1,2023.1.0,59.97724461373291,
,,,,,,,,,,,,,,,,3,9.3,10,10.7,0,0,0.7,0.1499999999999999,0.55,1.95,10,initial,36.05,335,361,386,0,0,9,9,9,0,0,,,,,,,5,0,5,0,0,12,12,6,,,,,,,,,,,,,,3,1.4328130000503734,3,0.2,0.39999999999999997,14.41717,return,2.4478386000264436,,,,,,,,,,,,,,,,,p311,18,female,left_right_width,2025-11-30_09h03.58.747,exp1,2023.1.0,59.97724461373291,
,,,,,,,,,,,,,,,,5,8.35,9.175,10,10.825,11.65,0.8250000000000001,0.275,0.55,3.85,10,match,36.05,301,331,361,390,420,9,9,9,9,9,,,,,,,5,0,5,0,0,13,13,18,,,,,,,,,,,,,,4,4.212125699967146,4,0.4,0.45,16.21932,return,1.1791759000625461,,,,,,,,,,,,,,,,,p311,18,female,left_right_width,2025-11-30_09h03.58.747,exp1,2023.1.0,59.97724461373291,
,,,,,,,,,,,,,,,,5,8.65,9.325,10,10.675,11.35,0.675,0.125,0.55,3.25,10,match,36.05,312,336,361,385,409,9,9,9,9,9,,,,,,,5,0,5,0,0,14,14,29,,,,,,,,,,,,,,4,1.532856300007552,4,0.55,0.5,18.02146,return,3.551233600010164,,,,,,,,,,,,,,,,,p311,18,female,left_right_width,2025-11-30_09h03.58.747,exp1,2023.1.0,59.97724461373291,
,,,,,,,,,,,,,,,,4,8.35,9.45,10.55,11.65,0,1.1,0.55,0.55,3.8500000000000005,10,initial,36.05,301,341,380,420,0,9,9,9,9,0,,,,,,,5,0,5,0,0,15,15,17,,,,,,,,,,,,,,5,1.2626686999574304,5,0.5,0.5,18.02146,return,1.4667374000418931,,,,,,,,,,,,,,,,,p311,18,female,left_right_width,2025-11-30_09h03.58.747,exp1,2023.1.0,59.97724461373291,
,,,,,,,,,,,,,,,,3,8.2,10,11.8,0,0,1.8,1.25,0.55,4.15,10,match,36.05,296,361,425,0,0,9,9,9,0,0,,,,,,,5,0,5,0,0,16,16,47,,,,,,,,,,,,,,3,1.192780000041239,3,0.35,0.44999999999999996,16.21932,return,1.2549038999713957,,,,,,,,,,,,,,,,,p311,18,female,left_right_width,2025-11-30_09h03.58.747,exp1,2023.1.0,59.97724461373291,
,,,,,,,,,,,,,,,,5,7.8,8.9,10,11.1,12.2,1.1,0.8500000000000001,0.25,4.65,10,initial,36.05,281,321,361,400,440,9,9,9,9,9,,,,,,,5,0,5,0,0,17,17,36,,,,,,,,,,,,,,6,1.595952900010161,6,0.45,0.25000000000000006,9.01073,return,1.9478683000197634,,,,,,,,,,,,,,,,,p311,18,female,left_right_width,2025-11-30_09h03.58.747,exp1,2023.1.0,59.97724461373291,
,,,,,,,,,,,,,,,,3,7.800000000000001,10,12.2,0,0,2.1999999999999997,1.7999999999999998,0.4,4.8,10,match,36.05,281,361,440,0,0,9,9,9,0,0,,,,,,,5,0,5,0,0,18,18,39,,,,,,,,,,,,,,4,2.203075100085698,4,0.2,0.3,10.81288,return,1.3455913999350742,,,,,,,,,,,,,,,,,p311,18,female,left_right_width,2025-11-30_09h03.58.747,exp1,2023.1.0,59.97724461373291,
,,,,,,,,,,,,,,,,5,8.35,9.175,10,10.825,11.65,0.825,0.575,0.25,3.55,10,match,36.05,301,331,361,390,420,9,9,9,9,9,,,,,,,5,0,5,0,0,19,19,20,,,,,,,,,,,,,,5,4.41293309989851,5,0.55,0.30000000000000004,10.81288,return,2.1711374000879005,,,,,,,,,,,,,,,,,p311,18,female,left_right_width,2025-11-30_09h03.58.747,exp1,2023.1.0,59.97724461373291,
,,,,,,,,,,,,,,,,3,8.9,10,11.1,0,0,1.1,0.55,0.55,2.75,10,initial,36.05,321,361,400,0,0,9,9,9,0,0,,,,,,,5,0,5,0,0,20,20,0,,,,,,,,,,,,,,2,1.2293365999357775,2,0.3,0.44999999999999996,16.21932,return,1.8362454999005422,,,,,,,,,,,,,,,,,p311,18,female,left_right_width,2025-11-30_09h03.58.747,exp1,2023.1.0,59.97724461373291,
,,,,,,,,,,,,,,,,5,7.8,8.9,10,11.1,12.2,1.1,0.7000000000000001,0.4,4.800000000000001,10,initial,36.05,281,321,361,400,440,9,9,9,9,9,,,,,,,5,0,5,0,0,21,21,38,,,,,,,,,,,,,,6,1.5552463000640273,6,0.4,0.4,14.41717,return,2.034841899992898,,,,,,,,,,,,,,,,,p311,18,female,left_right_width,2025-11-30_09h03.58.747,exp1,2023.1.0,59.97724461373291,
,,,,,,,,,,,,,,,,5,8.65,9.325,10,10.675,11.35,0.675,0.275,0.4,3.1,10,match,36.05,312,336,361,385,409,9,9,9,9,9,,,,,,,5,0,5,0,0,22,22,33,,,,,,,,,,,,,,5,1.3320874000201002,5,0.2,0.39999999999999997,14.41717,return,1.6934635000070557,,,,,,,,,,,,,,,,,p311,18,female,left_right_width,2025-11-30_09h03.58.747,exp1,2023.1.0,59.97724461373291,
,,,,,,,,,,,,,,,,4,8.825,9.608333333333333,10.391666666666667,11.175,0,0.7833333333333333,0.5333333333333333,0.25,2.6,10,match,36.05,318,346,375,403,0,9,9,9,9,0,,,,,,,5,0,5,0,0,23,23,5,,,,,,,,,,,,,,3,2.049451300059445,3,0.2,0.25,9.01073,return,2.1266844000201672,,,,,,,,,,,,,,,,,p311,18,female,left_right_width,2025-11-30_09h03.58.747,exp1,2023.1.0,59.97724461373291,
