amount_p,posx1_p,posx2_p,posx3_p,posx4_p,posx5_p,center_to_center_p,edge_to_edge_p,w_p,stim_lengt_p,eccentricity_p,line1_p,line2_p,line3_p,line4_p,line5_p,amount,posx1,posx2,posx3,posx4,posx5,center_to_center,edge_to_edge,w,stim_length,eccentricity,trial_type,deg_to_pix_index,posx1_in_pix,posx2_in_pix,posx3_in_pix,posx4_in_pix,posx5_in_pix,line1,line2,line3,line4,line5,posx,setsize_cobdi,trials.thisRepN,trials.thisTrialN,trials.thisN,trials.thisIndex,blocks.thisRepN,blocks.thisTrialN,blocks.thisN,blocks.thisIndex,loop.thisRepN,loop.thisTrialN,loop.thisN,loop.thisIndex,first.thisRepN,first.thisTrialN,first.thisN,first.thisIndex,second.thisRepN,second.thisTrialN,second.thisN,second.thisIndex,thisRow.t,notes,key_resp_3.started,key_resp_3.keys,key_resp_3.rt,key_resp.keys,key_resp.rt,response,starting_width_deg,response_width_degree,response_width_pixel,next_5.keys,next_5.rt,key_resp_4.keys,key_resp_4.rt,text_3.started,text_4.started,key_resp_2.started,text_2.started,key_resp_2.keys,key_resp_2.rt,adjusting.started,next.keys,next.rt,text_control2.started,key_resp.started,key_resp.corr,text_bye.started,text_bye.stopped,participant,age,gender,resp_group,date,expName,psychopyVersion,frameRate,
,,,,,,,,,,,,,,,,,,,,,,,,,,,,,,,,,,,,,,,,,,,,,,,,,,,,,,,,,,,,,,,30.30833160004113,c,93.58770310005639,,,,,,,,,,,,,,,,,,,,,,,,,p312,21,female,up_down_width,2025-11-30_17h12.56.212,exp1,2023.1.0,60.006756756374436,
3,8.2,10,11.8,0,0,1.7999999999999998,1.4,0.4,4,10,9,9,9,0,0,,,,,,,,,,,,,,,,,,,,,,,,,,0,0,0,2,,,,,,,,,,,,,,,,,,,,,,3,1.035710099968128,3,0.55,0.25000000000000006,9.01073,return,7.953191199922003,,,,,,,,,,,,,,,,,p312,21,female,up_down_width,2025-11-30_17h12.56.212,exp1,2023.1.0,60.006756756374436,
5,8.6,9.3,10,10.7,11.4,0.7,0.29999999999999993,0.4,3.1999999999999997,10,9,9,9,9,9,,,,,,,,,,,,,,,,,,,,,,,,,,0,1,1,7,,,,,,,,,,,,,,,,,,,,,,5,1.2426322000101209,5,0.55,0.30000000000000004,10.81288,return,4.24850129999686,,,,,,,,,,,,,,,,,p312,21,female,up_down_width,2025-11-30_17h12.56.212,exp1,2023.1.0,60.006756756374436,
5,9,9.5,10,10.5,11,0.5,0.09999999999999998,0.4,2.4,10,9,9,9,9,9,,,,,,,,,,,,,,,,,,,,,,,,,,0,2,2,8,,,,,,,,,,,,,,,,,,,,,,4,1.002570700016804,4,0.5,0.45,16.21932,return,2.993779300013557,,,,,,,,,,,,,,,,,p312,21,female,up_down_width,2025-11-30_17h12.56.212,exp1,2023.1.0,60.006756756374436,
4,8.65,9.55,10.45,11.35,0,0.9,0.5,0.4,3.1,10,9,9,9,9,0,,,,,,,,,,,,,,,,,,,,,,,,,,0,3,3,5,,,,,,,,,,,,,,,,,,,,,,4,1.0748610000591725,4,0.35,0.3,10.81288,return,2.2318481999682263,,,,,,,,,,,,,,,,,p312,21,female,up_down_width,2025-11-30_17h12.56.212,exp1,2023.1.0,60.006756756374436,
4,9.25,9.75,10.25,10.75,0,0.5,0.25,0.25,1.75,10,9,9,9,9,0,,,,,,,,,,,,,,,,,,,,,,,,,,0,4,4,4,,,,,,,,,,,,,,,,,,,,,,4,1.0579557000892237,4,0.35,0.2,7.20859,return,2.294722400023602,,,,,,,,,,,,,,,,,p312,21,female,up_down_width,2025-11-30_17h12.56.212,exp1,2023.1.0,60.006756756374436,
3,9,10,11,0,0,1,0.9,0.1,2.1,10,9,9,9,0,0,,,,,,,,,,,,,,,,,,,,,,,,,,0,5,5,1,,,,,,,,,,,,,,,,,,,,,,3,1.0696412000106648,3,0.35,0.05,1.80215,return,4.94561719999183,,,,,,,,,,,,,,,,,p312,21,female,up_down_width,2025-11-30_17h12.56.212,exp1,2023.1.0,60.006756756374436,
5,9.25,9.625,10,10.375,10.75,0.375,0.125,0.25,1.75,10,9,9,9,9,9,,,,,,,,,,,,,,,,,,,,,,,,,,0,6,6,6,,,,,,,,,,,,,,,,,,,,,,4,1.1004044999135658,4,0.45,0.35000000000000003,12.61502,return,1.7594420000677928,,,,,,,,,,,,,,,,,p312,21,female,up_down_width,2025-11-30_17h12.56.212,exp1,2023.1.0,60.006756756374436,
3,9.5,10,10.5,0,0,0.5,0.4,0.1,1.1,10,9,9,9,0,0,,,,,,,,,,,,,,,,,,,,,,,,,,0,7,7,0,,,,,,,,,,,,,,,,,,,,,,3,0.7862710000481457,3,0.55,0.20000000000000007,7.20859,return,2.9291064999997616,,,,,,,,,,,,,,,,,p312,21,female,up_down_width,2025-11-30_17h12.56.212,exp1,2023.1.0,60.006756756374436,
4,9.5,9.833333333333334,10.166666666666666,10.5,0,0.33333333333333337,0.23333333333333336,0.1,1.1,10,9,9,9,9,0,,,,,,,,,,,,,,,,,,,,,,,,,,0,8,8,3,,,,,,,,,,,,,,,,,,,,,,3,1.7304339000256732,3,0.3,0.10000000000000002,3.60429,return,1.8209044000832364,,,,,,,,,,,,,,,,,p312,21,female,up_down_width,2025-11-30_17h12.56.212,exp1,2023.1.0,60.006756756374436,
,,,,,,,,,,,,,,,,,,,,,,,,,,,,,,,,,,,,,,,,,,,,,,,,,,,,,,,,,,,,,,,,,,,,,,,,,,c,390.05044869997073,,,,,,,,,,,,,,,p312,21,female,up_down_width,2025-11-30_17h12.56.212,exp1,2023.1.0,60.006756756374436,
,,,,,,,,,,,,,,,,5,8.2,9.1,10,10.9,11.8,0.9,0.65,0.25,3.85,10,initial,36.05,296,328,361,393,425,9,9,9,9,9,,,,,,,0,0,0,0,0,0,0,48,,,,,,,,,,,,,,4,0.9632733999751508,4,0.5,0.20000000000000007,7.20859,return,3.7886214000172913,,,,,,,,,,,,,,,,,p312,21,female,up_down_width,2025-11-30_17h12.56.212,exp1,2023.1.0,60.006756756374436,
,,,,,,,,,,,,,,,,3,8.9,10,11.1,0,0,1.1,0.7000000000000001,0.4,2.6000000000000005,10,initial,36.05,321,361,400,0,0,9,9,9,0,0,,,,,,,0,0,0,0,0,1,1,4,,,,,,,,,,,,,,3,0.9131636000238359,3,0.4,0.4,14.41717,return,2.075789100024849,,,,,,,,,,,,,,,,,p312,21,female,up_down_width,2025-11-30_17h12.56.212,exp1,2023.1.0,60.006756756374436,
,,,,,,,,,,,,,,,,3,9.3,10,10.7,0,0,0.7,0.1499999999999999,0.55,1.95,10,initial,36.05,335,361,386,0,0,9,9,9,0,0,,,,,,,0,0,0,0,0,2,2,6,,,,,,,,,,,,,,3,1.0138283000560477,3,0.45,0.7500000000000002,27.0322,return,2.316180400084704,,,,,,,,,,,,,,,,,p312,21,female,up_down_width,2025-11-30_17h12.56.212,exp1,2023.1.0,60.006756756374436,
,,,,,,,,,,,,,,,,4,8.35,9.45,10.55,11.65,0,1.1,0.55,0.55,3.8500000000000005,10,initial,36.05,301,341,380,420,0,9,9,9,9,0,,,,,,,0,0,0,0,0,3,3,17,,,,,,,,,,,,,,4,0.9784112999914214,4,0.25,0.5499999999999999,19.82361,return,1.818038500030525,,,,,,,,,,,,,,,,,p312,21,female,up_down_width,2025-11-30_17h12.56.212,exp1,2023.1.0,60.006756756374436,
,,,,,,,,,,,,,,,,5,8.6,9.3,10,10.7,11.4,0.7,0.1499999999999999,0.55,3.3499999999999996,10,initial,36.05,310,335,361,386,411,9,9,9,9,9,,,,,,,0,0,0,0,0,4,4,40,,,,,,,,,,,,,,5,0.923430300084874,5,0.35,0.6,21.62576,return,1.9256928999675438,,,,,,,,,,,,,,,,,p312,21,female,up_down_width,2025-11-30_17h12.56.212,exp1,2023.1.0,60.006756756374436,
,,,,,,,,,,,,,,,,3,8.6,10,11.4,0,0,1.4,1.15,0.25,3.05,10,match,36.05,310,361,411,0,0,9,9,9,0,0,,,,,,,0,0,0,0,0,5,5,43,,,,,,,,,,,,,,2,1.2896222000708804,2,0.25,0.2,7.20859,return,1.3325824999483302,,,,,,,,,,,,,,,,,p312,21,female,up_down_width,2025-11-30_17h12.56.212,exp1,2023.1.0,60.006756756374436,
,,,,,,,,,,,,,,,,5,8.2,9.1,10,10.9,11.8,0.9,0.35,0.55,4.15,10,initial,36.05,296,328,361,393,425,9,9,9,9,9,,,,,,,0,0,0,0,0,6,6,46,,,,,,,,,,,,,,5,1.068902299972251,5,0.3,0.3,10.81288,return,2.561326399911195,,,,,,,,,,,,,,,,,p312,21,female,up_down_width,2025-11-30_17h12.56.212,exp1,2023.1.0,60.006756756374436,
,,,,,,,,,,,,,,,,4,9.3,9.766666666666667,10.233333333333333,10.7,0,0.4666666666666667,0.21666666666666665,0.25,1.65,10,match,36.05,335,352,369,386,0,9,9,9,9,0,,,,,,,0,0,0,0,0,7,7,8,,,,,,,,,,,,,,3,0.942172099952586,3,0.5,0.30000000000000004,10.81288,return,1.4150274000130594,,,,,,,,,,,,,,,,,p312,21,female,up_down_width,2025-11-30_17h12.56.212,exp1,2023.1.0,60.006756756374436,
,,,,,,,,,,,,,,,,5,8.65,9.325,10,10.675,11.35,0.675,0.42500000000000004,0.25,2.95,10,match,36.05,312,336,361,385,409,9,9,9,9,9,,,,,,,0,0,0,0,0,8,8,31,,,,,,,,,,,,,,5,0.8795704999938607,5,0.25,0.25,9.01073,return,1.4675756000215188,,,,,,,,,,,,,,,,,p312,21,female,up_down_width,2025-11-30_17h12.56.212,exp1,2023.1.0,60.006756756374436,
,,,,,,,,,,,,,,,,5,8.275,9.1375,10,10.8625,11.725,0.8625,0.6125,0.25,3.7,10,match,36.05,298,329,361,392,423,9,9,9,9,9,,,,,,,0,0,0,0,0,9,9,22,,,,,,,,,,,,,,4,1.0339475000509992,4,0.3,0.2,7.20859,return,0.8640375999966636,,,,,,,,,,,,,,,,,p312,21,female,up_down_width,2025-11-30_17h12.56.212,exp1,2023.1.0,60.006756756374436,
,,,,,,,,,,,,,,,,3,8.2,10,11.8,0,0,1.8,1.25,0.55,4.15,10,match,36.05,296,361,425,0,0,9,9,9,0,0,,,,,,,0,0,0,0,0,10,10,47,,,,,,,,,,,,,,3,0.8488809000700712,3,0.25,0.35,12.61502,return,2.125145999947563,,,,,,,,,,,,,,,,,p312,21,female,up_down_width,2025-11-30_17h12.56.212,exp1,2023.1.0,60.006756756374436,
,,,,,,,,,,,,,,,,4,8.9,9.633333333333333,10.366666666666667,11.1,0,0.7333333333333334,0.4833333333333334,0.25,2.45,10,match,36.05,321,347,374,400,0,9,9,9,9,0,,,,,,,0,0,0,0,0,11,11,3,,,,,,,,,,,,,,4,0.9395958000095561,4,0.35,0.2,7.20859,return,1.188981999992393,,,,,,,,,,,,,,,,,p312,21,female,up_down_width,2025-11-30_17h12.56.212,exp1,2023.1.0,60.006756756374436,
,,,,,,,,,,,,,,,,4,8.65,9.55,10.45,11.35,0,0.9,0.35,0.55,3.25,10,initial,36.05,312,344,377,409,0,9,9,9,9,0,,,,,,,0,0,0,0,0,12,12,28,,,,,,,,,,,,,,4,1.1325633999658749,4,0.2,0.35,12.61502,return,1.3586076999781653,,,,,,,,,,,,,,,,,p312,21,female,up_down_width,2025-11-30_17h12.56.212,exp1,2023.1.0,60.006756756374436,
,,,,,,,,,,,,,,,,3,8.9,10,11.1,0,0,1.1,0.55,0.55,2.75,10,initial,36.05,321,361,400,0,0,9,9,9,0,0,,,,,,,0,0,0,0,0,13,13,0,,,,,,,,,,,,,,4,0.7619365000864491,4,0.45,0.45,16.21932,return,1.227985900011845,,,,,,,,,,,,,,,,,p312,21,female,up_down_width,2025-11-30_17h12.56.212,exp1,2023.1.0,60.006756756374436,
,,,,,,,,,,,,,,,,3,9.1,10,10.9,0,0,0.9,0.65,0.25,2.05,10,initial,36.05,328,361,393,0,0,9,9,9,0,0,,,,,,,0,0,0,0,0,14,14,13,,,,,,,,,,,,,,4,0.5420891999965534,4,0.55,0.20000000000000007,7.20859,return,2.1825939000118524,,,,,,,,,,,,,,,,,p312,21,female,up_down_width,2025-11-30_17h12.56.212,exp1,2023.1.0,60.006756756374436,
,,,,,,,,,,,,,,,,4,8.95,9.65,10.35,11.05,0,0.7,0.44999999999999996,0.25,2.3499999999999996,10,initial,36.05,323,348,373,398,0,9,9,9,9,0,,,,,,,0,0,0,0,0,15,15,24,,,,,,,,,,,,,,5,0.4991290000034496,5,0.4,0.25000000000000006,9.01073,return,1.8534308000234887,,,,,,,,,,,,,,,,,p312,21,female,up_down_width,2025-11-30_17h12.56.212,exp1,2023.1.0,60.006756756374436,
,,,,,,,,,,,,,,,,3,9.3,10,10.7,0,0,0.7,0.29999999999999993,0.4,1.8,10,initial,36.05,335,361,386,0,0,9,9,9,0,0,,,,,,,0,0,0,0,0,16,16,9,,,,,,,,,,,,,,4,0.8931562999496236,4,0.3,0.2,7.20859,return,1.623282799962908,,,,,,,,,,,,,,,,,p312,21,female,up_down_width,2025-11-30_17h12.56.212,exp1,2023.1.0,60.006756756374436,
,,,,,,,,,,,,,,,,4,8.9,9.633333333333333,10.366666666666667,11.1,0,0.7333333333333333,0.18333333333333326,0.55,2.75,10,match,36.05,321,347,374,400,0,9,9,9,9,0,,,,,,,0,0,0,0,0,17,17,1,,,,,,,,,,,,,,4,0.6184710999950767,4,0.25,0.49999999999999994,18.02146,return,2.4963179000187665,,,,,,,,,,,,,,,,,p312,21,female,up_down_width,2025-11-30_17h12.56.212,exp1,2023.1.0,60.006756756374436,
,,,,,,,,,,,,,,,,4,8.825,9.608333333333333,10.391666666666667,11.175,0,0.7833333333333333,0.5333333333333333,0.25,2.6,10,match,36.05,318,346,375,403,0,9,9,9,9,0,,,,,,,0,0,0,0,0,18,18,5,,,,,,,,,,,,,,4,0.5763592999428511,4,0.2,0.25,9.01073,return,2.0232127000344917,,,,,,,,,,,,,,,,,p312,21,female,up_down_width,2025-11-30_17h12.56.212,exp1,2023.1.0,60.006756756374436,
,,,,,,,,,,,,,,,,4,9.1,9.7,10.3,10.9,0,0.5999999999999999,0.3499999999999999,0.25,2.05,10,match,36.05,328,350,371,393,0,9,9,9,9,0,,,,,,,0,0,0,0,0,19,19,14,,,,,,,,,,,,,,4,0.505657900008373,4,0.3,0.25,9.01073,return,1.5394375000614673,,,,,,,,,,,,,,,,,p312,21,female,up_down_width,2025-11-30_17h12.56.212,exp1,2023.1.0,60.006756756374436,
,,,,,,,,,,,,,,,,3,9.1,10,10.9,0,0,0.9,0.35,0.55,2.35,10,initial,36.05,328,361,393,0,0,9,9,9,0,0,,,,,,,0,0,0,0,0,20,20,11,,,,,,,,,,,,,,4,0.8235852000070736,4,0.2,0.49999999999999994,18.02146,return,1.877980799996294,,,,,,,,,,,,,,,,,p312,21,female,up_down_width,2025-11-30_17h12.56.212,exp1,2023.1.0,60.006756756374436,
,,,,,,,,,,,,,,,,5,8.35,9.175,10,10.825,11.65,0.825,0.575,0.25,3.55,10,match,36.05,301,331,361,390,420,9,9,9,9,9,,,,,,,0,0,0,0,0,21,21,20,,,,,,,,,,,,,,4,0.8386336000403389,4,0.55,0.4,14.41717,return,1.3811241999501362,,,,,,,,,,,,,,,,,p312,21,female,up_down_width,2025-11-30_17h12.56.212,exp1,2023.1.0,60.006756756374436,
,,,,,,,,,,,,,,,,4,8.65,9.55,10.45,11.35,0,0.9,0.65,0.25,2.95,10,initial,36.05,312,344,377,409,0,9,9,9,9,0,,,,,,,0,0,0,0,0,22,22,30,,,,,,,,,,,,,,4,0.6130081999581307,4,0.3,0.25,9.01073,return,1.0826692999107763,,,,,,,,,,,,,,,,,p312,21,female,up_down_width,2025-11-30_17h12.56.212,exp1,2023.1.0,60.006756756374436,
,,,,,,,,,,,,,,,,5,7.8,8.9,10,11.1,12.2,1.1,0.55,0.55,4.95,10,initial,36.05,281,321,361,400,440,9,9,9,9,9,,,,,,,0,0,0,0,0,23,23,34,,,,,,,,,,,,,,3,0.007556000025942922,3,0.35,0.35,12.61502,return,0.8544045999879017,,,,,,,,,,,,,,,,,p312,21,female,up_down_width,2025-11-30_17h12.56.212,exp1,2023.1.0,60.006756756374436,
,,,,,,,,,,,,,,,,4,8.35,9.45,10.55,11.65,0,1.1,0.8500000000000001,0.25,3.5500000000000003,10,initial,36.05,301,341,380,420,0,9,9,9,9,0,,,,,,,0,0,0,0,0,24,24,19,,,,,,,,,,,,,,4,0.00371740001719445,4,0.4,0.35000000000000003,12.61502,return,0.11539000004995614,,,,,,,,,,,,,,,,,p312,21,female,up_down_width,2025-11-30_17h12.56.212,exp1,2023.1.0,60.006756756374436,
,,,,,,,,,,,,,,,,5,8.65,9.325,10,10.675,11.35,0.675,0.125,0.55,3.25,10,match,36.05,312,336,361,385,409,9,9,9,9,9,,,,,,,0,0,0,0,0,25,25,29,,,,,,,,,,,,,,6,0.18647029995918274,6,0.45,0.7000000000000002,25.23005,return,0.24202190001960844,,,,,,,,,,,,,,,,,p312,21,female,up_down_width,2025-11-30_17h12.56.212,exp1,2023.1.0,60.006756756374436,
,,,,,,,,,,,,,,,,4,9.1,9.7,10.3,10.9,0,0.6,0.04999999999999997,0.55,2.35,10,match,36.05,328,350,371,393,0,9,9,9,9,0,,,,,,,0,0,0,0,0,26,26,12,,,,,,,,,,,,,,3,0.008146599982865155,3,0.4,0.55,19.82361,return,0.6319358000764623,,,,,,,,,,,,,,,,,p312,21,female,up_down_width,2025-11-30_17h12.56.212,exp1,2023.1.0,60.006756756374436,
,,,,,,,,,,,,,,,,4,9.1,9.7,10.3,10.9,0,0.6000000000000001,0.20000000000000004,0.4,2.2,10,match,36.05,328,350,371,393,0,9,9,9,9,0,,,,,,,0,0,0,0,0,27,27,16,,,,,,,,,,,,,,4,0.06700599996838719,4,0.25,0.05,1.80215,return,0.687566600041464,,,,,,,,,,,,,,,,,p312,21,female,up_down_width,2025-11-30_17h12.56.212,exp1,2023.1.0,60.006756756374436,
,,,,,,,,,,,,,,,,3,9.1,10,10.9,0,0,0.9,0.5,0.4,2.2,10,initial,36.05,328,361,393,0,0,9,9,9,0,0,,,,,,,0,0,0,0,0,28,28,15,,,,,,,,,,,,,,4,0.0026643999153748155,4,0.55,0.45,16.21932,return,1.0103705000365153,,,,,,,,,,,,,,,,,p312,21,female,up_down_width,2025-11-30_17h12.56.212,exp1,2023.1.0,60.006756756374436,
,,,,,,,,,,,,,,,,5,8.6,9.3,10,10.7,11.4,0.7,0.29999999999999993,0.4,3.1999999999999997,10,initial,36.05,310,335,361,386,411,9,9,9,9,9,,,,,,,0,0,0,0,0,29,29,44,,,,,,,,,,,,,,4,0.8432970000430942,4,0.45,0.35000000000000003,12.61502,return,0.8395501000341028,,,,,,,,,,,,,,,,,p312,21,female,up_down_width,2025-11-30_17h12.56.212,exp1,2023.1.0,60.006756756374436,
,,,,,,,,,,,,,,,,3,8.6,10,11.4,0,0,1.4,0.85,0.55,3.35,10,match,36.05,310,361,411,0,0,9,9,9,0,0,,,,,,,0,0,0,0,0,30,30,41,,,,,,,,,,,,,,3,0.8078848000150174,3,0.35,0.49999999999999994,18.02146,return,1.222159400000237,,,,,,,,,,,,,,,,,p312,21,female,up_down_width,2025-11-30_17h12.56.212,exp1,2023.1.0,60.006756756374436,
,,,,,,,,,,,,,,,,5,7.8,8.9,10,11.1,12.2,1.1,0.7000000000000001,0.4,4.800000000000001,10,initial,36.05,281,321,361,400,440,9,9,9,9,9,,,,,,,0,0,0,0,0,31,31,38,,,,,,,,,,,,,,6,0.9046239000745118,6,0.5,0.4,14.41717,return,1.2021269999677315,,,,,,,,,,,,,,,,,p312,21,female,up_down_width,2025-11-30_17h12.56.212,exp1,2023.1.0,60.006756756374436,
,,,,,,,,,,,,,,,,5,8.95,9.475,10,10.525,11.05,0.525,0.125,0.4,2.5,10,match,36.05,323,342,361,379,398,9,9,9,9,9,,,,,,,0,0,0,0,0,32,32,27,,,,,,,,,,,,,,4,0.7883041000459343,4,0.45,0.5,18.02146,return,1.0744484000606462,,,,,,,,,,,,,,,,,p312,21,female,up_down_width,2025-11-30_17h12.56.212,exp1,2023.1.0,60.006756756374436,
,,,,,,,,,,,,,,,,5,8.2,9.1,10,10.9,11.8,0.9,0.5,0.4,4,10,initial,36.05,296,328,361,393,425,9,9,9,9,9,,,,,,,0,0,0,0,0,33,33,50,,,,,,,,,,,,,,5,0.9109342000447214,5,0.55,0.4,14.41717,return,0.9046730999834836,,,,,,,,,,,,,,,,,p312,21,female,up_down_width,2025-11-30_17h12.56.212,exp1,2023.1.0,60.006756756374436,
,,,,,,,,,,,,,,,,5,8.6,9.3,10,10.7,11.4,0.7,0.44999999999999996,0.25,3.05,10,initial,36.05,310,335,361,386,411,9,9,9,9,9,,,,,,,0,0,0,0,0,34,34,42,,,,,,,,,,,,,,4,2.6362626999616623,4,0.2,0.25,9.01073,return,1.1688691000454128,,,,,,,,,,,,,,,,,p312,21,female,up_down_width,2025-11-30_17h12.56.212,exp1,2023.1.0,60.006756756374436,
,,,,,,,,,,,,,,,,5,8.35,9.175,10,10.825,11.65,0.8250000000000001,0.275,0.55,3.85,10,match,36.05,301,331,361,390,420,9,9,9,9,9,,,,,,,0,0,0,0,0,35,35,18,,,,,,,,,,,,,,4,0.9490748000098392,4,0.55,0.6000000000000001,21.62576,return,1.3259935999521986,,,,,,,,,,,,,,,,,p312,21,female,up_down_width,2025-11-30_17h12.56.212,exp1,2023.1.0,60.006756756374436,
,,,,,,,,,,,,,,,,3,7.8,10,12.2,0,0,2.2,1.65,0.55,4.95,10,match,36.05,281,361,440,0,0,9,9,9,0,0,,,,,,,0,0,0,0,0,36,36,35,,,,,,,,,,,,,,3,1.0415218999842182,3,0.4,0.6500000000000001,23.4279,return,1.3984469000715762,,,,,,,,,,,,,,,,,p312,21,female,up_down_width,2025-11-30_17h12.56.212,exp1,2023.1.0,60.006756756374436,
,,,,,,,,,,,,,,,,5,8.95,9.475,10,10.525,11.05,0.525,0.275,0.25,2.35,10,match,36.05,323,342,361,379,398,9,9,9,9,9,,,,,,,0,0,0,0,0,37,37,25,,,,,,,,,,,,,,3,1.5191395999863744,3,0.4,0.5,18.02146,return,1.249325199984014,,,,,,,,,,,,,,,,,p312,21,female,up_down_width,2025-11-30_17h12.56.212,exp1,2023.1.0,60.006756756374436,
,,,,,,,,,,,,,,,,3,7.8,10,12.2,0,0,2.2,1.9500000000000002,0.25,4.65,10,match,36.05,281,361,440,0,0,9,9,9,0,0,,,,,,,0,0,0,0,0,38,38,37,,,,,,,,,,,,,,4,0.43511279998347163,4,0.3,0.3,10.81288,return,0.8960820999927819,,,,,,,,,,,,,,,,,p312,21,female,up_down_width,2025-11-30_17h12.56.212,exp1,2023.1.0,60.006756756374436,
,,,,,,,,,,,,,,,,4,9.3,9.766666666666667,10.233333333333333,10.7,0,0.4666666666666667,0.06666666666666665,0.4,1.8,10,match,36.05,335,352,369,386,0,9,9,9,9,0,,,,,,,0,0,0,0,0,39,39,10,,,,,,,,,,,,,,4,0.8690950000891462,4,0.45,0.6000000000000001,21.62576,return,0.7215245999395847,,,,,,,,,,,,,,,,,p312,21,female,up_down_width,2025-11-30_17h12.56.212,exp1,2023.1.0,60.006756756374436,
,,,,,,,,,,,,,,,,3,9.3,10,10.7,0,0,0.7,0.44999999999999996,0.25,1.65,10,initial,36.05,335,361,386,0,0,9,9,9,0,0,,,,,,,0,0,0,0,0,40,40,7,,,,,,,,,,,,,,4,0.5706380000337958,4,0.5,0.15000000000000008,5.40644,return,2.018596199923195,,,,,,,,,,,,,,,,,p312,21,female,up_down_width,2025-11-30_17h12.56.212,exp1,2023.1.0,60.006756756374436,
,,,,,,,,,,,,,,,,4,8.95,9.65,10.35,11.05,0,0.7,0.1499999999999999,0.55,2.65,10,initial,36.05,323,348,373,398,0,9,9,9,9,0,,,,,,,0,0,0,0,0,41,41,23,,,,,,,,,,,,,,4,1.385050900047645,4,0.35,0.9000000000000002,32.43864,return,2.9927944999653846,,,,,,,,,,,,,,,,,p312,21,female,up_down_width,2025-11-30_17h12.56.212,exp1,2023.1.0,60.006756756374436,
,,,,,,,,,,,,,,,,3,8.2,10,11.8,0,0,1.8,1.55,0.25,3.85,10,match,36.05,296,361,425,0,0,9,9,9,0,0,,,,,,,0,0,0,0,0,42,42,49,,,,,,,,,,,,,,3,0.8213382000103593,3,0.45,0.10000000000000007,3.60429,return,1.3952702999813482,,,,,,,,,,,,,,,,,p312,21,female,up_down_width,2025-11-30_17h12.56.212,exp1,2023.1.0,60.006756756374436,
,,,,,,,,,,,,,,,,5,7.8,8.9,10,11.1,12.2,1.1,0.8500000000000001,0.25,4.65,10,initial,36.05,281,321,361,400,440,9,9,9,9,9,,,,,,,0,0,0,0,0,43,43,36,,,,,,,,,,,,,,4,0.9530473999911919,4,0.25,0.15000000000000002,5.40644,return,0.9143021000782028,,,,,,,,,,,,,,,,,p312,21,female,up_down_width,2025-11-30_17h12.56.212,exp1,2023.1.0,60.006756756374436,
,,,,,,,,,,,,,,,,4,8.35,9.45,10.55,11.65,0,1.1,0.7000000000000001,0.4,3.7,10,initial,36.05,301,341,380,420,0,9,9,9,9,0,,,,,,,0,0,0,0,0,44,44,21,,,,,,,,,,,,,,4,0.6018934000749141,4,0.5,0.30000000000000004,10.81288,return,1.1059360000072047,,,,,,,,,,,,,,,,,p312,21,female,up_down_width,2025-11-30_17h12.56.212,exp1,2023.1.0,60.006756756374436,
,,,,,,,,,,,,,,,,4,8.65,9.55,10.45,11.35,0,0.9,0.5,0.4,3.1,10,initial,36.05,312,344,377,409,0,9,9,9,9,0,,,,,,,0,0,0,0,0,45,45,32,,,,,,,,,,,,,,4,0.5517474999651313,4,0.35,0.2,7.20859,return,0.8320683999918401,,,,,,,,,,,,,,,,,p312,21,female,up_down_width,2025-11-30_17h12.56.212,exp1,2023.1.0,60.006756756374436,
,,,,,,,,,,,,,,,,4,8.95,9.65,10.35,11.05,0,0.7,0.29999999999999993,0.4,2.5,10,initial,36.05,323,348,373,398,0,9,9,9,9,0,,,,,,,0,0,0,0,0,46,46,26,,,,,,,,,,,,,,3,1.2005328999366611,3,0.3,0.6,21.62576,return,1.1196742999600247,,,,,,,,,,,,,,,,,p312,21,female,up_down_width,2025-11-30_17h12.56.212,exp1,2023.1.0,60.006756756374436,
,,,,,,,,,,,,,,,,3,8.9,10,11.1,0,0,1.1,0.8500000000000001,0.25,2.45,10,initial,36.05,321,361,400,0,0,9,9,9,0,0,,,,,,,0,0,0,0,0,47,47,2,,,,,,,,,,,,,,4,0.7351355999708176,4,0.3,0.15000000000000002,5.40644,return,0.6890752000035718,,,,,,,,,,,,,,,,,p312,21,female,up_down_width,2025-11-30_17h12.56.212,exp1,2023.1.0,60.006756756374436,
,,,,,,,,,,,,,,,,3,8.2,10,11.8,0,0,1.7999999999999998,1.4,0.4,4,10,match,36.05,296,361,425,0,0,9,9,9,0,0,,,,,,,0,0,0,0,0,48,48,51,,,,,,,,,,,,,,3,0.606036200071685,3,0.4,0.20000000000000007,7.20859,return,1.3959722999716178,,,,,,,,,,,,,,,,,p312,21,female,up_down_width,2025-11-30_17h12.56.212,exp1,2023.1.0,60.006756756374436,
,,,,,,,,,,,,,,,,3,8.525,10,11.475,0,0,1.475,1.225,0.25,3.2,10,match,36.05,307,361,414,0,0,9,9,9,0,0,,,,,,,0,0,0,0,0,49,49,45,,,,,,,,,,,,,,4,0.6861659999703988,4,0.3,0.2,7.20859,return,0.6099702999927104,,,,,,,,,,,,,,,,,p312,21,female,up_down_width,2025-11-30_17h12.56.212,exp1,2023.1.0,60.006756756374436,
,,,,,,,,,,,,,,,,5,8.65,9.325,10,10.675,11.35,0.675,0.275,0.4,3.1,10,match,36.05,312,336,361,385,409,9,9,9,9,9,,,,,,,0,0,0,0,0,50,50,33,,,,,,,,,,,,,,5,0.793779999949038,5,0.55,0.30000000000000004,10.81288,return,1.1135226000333205,,,,,,,,,,,,,,,,,p312,21,female,up_down_width,2025-11-30_17h12.56.212,exp1,2023.1.0,60.006756756374436,
,,,,,,,,,,,,,,,,3,7.800000000000001,10,12.2,0,0,2.1999999999999997,1.7999999999999998,0.4,4.8,10,match,36.05,281,361,440,0,0,9,9,9,0,0,,,,,,,0,0,0,0,0,51,51,39,,,,,,,,,,,,,,2,1.4860621000407264,2,0.4,0.45,16.21932,return,0.9771022999193519,,,,,,,,,,,,,,,,,p312,21,female,up_down_width,2025-11-30_17h12.56.212,exp1,2023.1.0,60.006756756374436,
,,,,,,,,,,,,,,,,,,,,,,,,,,,,,,,,,,,,,,,,,,,,,0,0,0,0,,,,,,,,,,,,,,,,,,,,,,,,,,,,773.166112100007,773.166112100007,773.166112100007,,,,,,,,,,,,p312,21,female,up_down_width,2025-11-30_17h12.56.212,exp1,2023.1.0,60.006756756374436,
,,,,,,,,,,,,,,,,5,8.65,9.325,10,10.675,11.35,0.675,0.42500000000000004,0.25,2.95,10,match,36.05,312,336,361,385,409,9,9,9,9,9,,,,,,,1,0,1,0,0,0,0,31,,,,,,,,,,,,,,4,0.9851400000043213,4,0.5,0.20000000000000007,7.20859,return,1.7280572999734432,,,,,,,,,,,,,,,,,p312,21,female,up_down_width,2025-11-30_17h12.56.212,exp1,2023.1.0,60.006756756374436,
,,,,,,,,,,,,,,,,5,7.8,8.9,10,11.1,12.2,1.1,0.7000000000000001,0.4,4.800000000000001,10,initial,36.05,281,321,361,400,440,9,9,9,9,9,,,,,,,1,0,1,0,0,1,1,38,,,,,,,,,,,,,,5,0.7982774000847712,5,0.5,0.30000000000000004,10.81288,return,0.892602999927476,,,,,,,,,,,,,,,,,p312,21,female,up_down_width,2025-11-30_17h12.56.212,exp1,2023.1.0,60.006756756374436,
,,,,,,,,,,,,,,,,3,8.2,10,11.8,0,0,1.8,1.25,0.55,4.15,10,match,36.05,296,361,425,0,0,9,9,9,0,0,,,,,,,1,0,1,0,0,2,2,47,,,,,,,,,,,,,,3,0.86538820003625,3,0.25,0.35,12.61502,return,1.4369565000524744,,,,,,,,,,,,,,,,,p312,21,female,up_down_width,2025-11-30_17h12.56.212,exp1,2023.1.0,60.006756756374436,
,,,,,,,,,,,,,,,,5,8.6,9.3,10,10.7,11.4,0.7,0.29999999999999993,0.4,3.1999999999999997,10,initial,36.05,310,335,361,386,411,9,9,9,9,9,,,,,,,1,0,1,0,0,3,3,44,,,,,,,,,,,,,,5,0.9494887000182644,5,0.2,0.3,10.81288,return,0.8465287999715656,,,,,,,,,,,,,,,,,p312,21,female,up_down_width,2025-11-30_17h12.56.212,exp1,2023.1.0,60.006756756374436,
,,,,,,,,,,,,,,,,5,8.65,9.325,10,10.675,11.35,0.675,0.275,0.4,3.1,10,match,36.05,312,336,361,385,409,9,9,9,9,9,,,,,,,1,0,1,0,0,4,4,33,,,,,,,,,,,,,,6,1.5294819000409916,6,0.5,0.30000000000000004,10.81288,return,1.2438496999675408,,,,,,,,,,,,,,,,,p312,21,female,up_down_width,2025-11-30_17h12.56.212,exp1,2023.1.0,60.006756756374436,
,,,,,,,,,,,,,,,,5,8.2,9.1,10,10.9,11.8,0.9,0.35,0.55,4.15,10,initial,36.05,296,328,361,393,425,9,9,9,9,9,,,,,,,1,0,1,0,0,5,5,46,,,,,,,,,,,,,,5,1.0568106999853626,5,0.45,0.4,14.41717,return,1.189721400034614,,,,,,,,,,,,,,,,,p312,21,female,up_down_width,2025-11-30_17h12.56.212,exp1,2023.1.0,60.006756756374436,
,,,,,,,,,,,,,,,,3,8.9,10,11.1,0,0,1.1,0.8500000000000001,0.25,2.45,10,initial,36.05,321,361,400,0,0,9,9,9,0,0,,,,,,,1,0,1,0,0,6,6,2,,,,,,,,,,,,,,3,1.1972010999452323,3,0.35,0.15000000000000002,5.40644,return,1.0999141000211239,,,,,,,,,,,,,,,,,p312,21,female,up_down_width,2025-11-30_17h12.56.212,exp1,2023.1.0,60.006756756374436,
,,,,,,,,,,,,,,,,4,8.65,9.55,10.45,11.35,0,0.9,0.5,0.4,3.1,10,initial,36.05,312,344,377,409,0,9,9,9,9,0,,,,,,,1,0,1,0,0,7,7,32,,,,,,,,,,,,,,4,0.8411335999844596,4,0.5,0.30000000000000004,10.81288,return,1.3346421999158338,,,,,,,,,,,,,,,,,p312,21,female,up_down_width,2025-11-30_17h12.56.212,exp1,2023.1.0,60.006756756374436,
,,,,,,,,,,,,,,,,3,8.9,10,11.1,0,0,1.1,0.7000000000000001,0.4,2.6000000000000005,10,initial,36.05,321,361,400,0,0,9,9,9,0,0,,,,,,,1,0,1,0,0,8,8,4,,,,,,,,,,,,,,3,0.6603600999806076,3,0.45,0.30000000000000004,10.81288,return,1.0017012000316754,,,,,,,,,,,,,,,,,p312,21,female,up_down_width,2025-11-30_17h12.56.212,exp1,2023.1.0,60.006756756374436,
,,,,,,,,,,,,,,,,5,8.6,9.3,10,10.7,11.4,0.7,0.1499999999999999,0.55,3.3499999999999996,10,initial,36.05,310,335,361,386,411,9,9,9,9,9,,,,,,,1,0,1,0,0,9,9,40,,,,,,,,,,,,,,3,1.2621063999831676,3,0.3,0.5499999999999999,19.82361,return,1.0342854999471456,,,,,,,,,,,,,,,,,p312,21,female,up_down_width,2025-11-30_17h12.56.212,exp1,2023.1.0,60.006756756374436,
,,,,,,,,,,,,,,,,5,8.95,9.475,10,10.525,11.05,0.525,0.125,0.4,2.5,10,match,36.05,323,342,361,379,398,9,9,9,9,9,,,,,,,1,0,1,0,0,10,10,27,,,,,,,,,,,,,,4,0.7821805999847129,4,0.45,0.4,14.41717,return,0.7185523000080138,,,,,,,,,,,,,,,,,p312,21,female,up_down_width,2025-11-30_17h12.56.212,exp1,2023.1.0,60.006756756374436,
,,,,,,,,,,,,,,,,3,9.1,10,10.9,0,0,0.9,0.65,0.25,2.05,10,initial,36.05,328,361,393,0,0,9,9,9,0,0,,,,,,,1,0,1,0,0,11,11,13,,,,,,,,,,,,,,2,0.7882472999626771,2,0.5,0.25000000000000006,9.01073,return,1.1237481000134721,,,,,,,,,,,,,,,,,p312,21,female,up_down_width,2025-11-30_17h12.56.212,exp1,2023.1.0,60.006756756374436,
,,,,,,,,,,,,,,,,3,9.1,10,10.9,0,0,0.9,0.5,0.4,2.2,10,initial,36.05,328,361,393,0,0,9,9,9,0,0,,,,,,,1,0,1,0,0,12,12,15,,,,,,,,,,,,,,3,0.5517618000740185,3,0.25,0.35,12.61502,return,0.9761763999704272,,,,,,,,,,,,,,,,,p312,21,female,up_down_width,2025-11-30_17h12.56.212,exp1,2023.1.0,60.006756756374436,
,,,,,,,,,,,,,,,,3,7.8,10,12.2,0,0,2.2,1.65,0.55,4.95,10,match,36.05,281,361,440,0,0,9,9,9,0,0,,,,,,,1,0,1,0,0,13,13,35,,,,,,,,,,,,,,3,0.8067882000468671,3,0.25,0.6,21.62576,return,1.3016628000186756,,,,,,,,,,,,,,,,,p312,21,female,up_down_width,2025-11-30_17h12.56.212,exp1,2023.1.0,60.006756756374436,
,,,,,,,,,,,,,,,,4,9.3,9.766666666666667,10.233333333333333,10.7,0,0.4666666666666667,0.06666666666666665,0.4,1.8,10,match,36.05,335,352,369,386,0,9,9,9,9,0,,,,,,,1,0,1,0,0,14,14,10,,,,,,,,,,,,,,3,0.6884969000238925,3,0.4,0.55,19.82361,return,0.9323028000071645,,,,,,,,,,,,,,,,,p312,21,female,up_down_width,2025-11-30_17h12.56.212,exp1,2023.1.0,60.006756756374436,
,,,,,,,,,,,,,,,,3,8.9,10,11.1,0,0,1.1,0.55,0.55,2.75,10,initial,36.05,321,361,400,0,0,9,9,9,0,0,,,,,,,1,0,1,0,0,15,15,0,,,,,,,,,,,,,,3,0.43402589997276664,3,0.5,0.55,19.82361,return,1.3593061999417841,,,,,,,,,,,,,,,,,p312,21,female,up_down_width,2025-11-30_17h12.56.212,exp1,2023.1.0,60.006756756374436,
,,,,,,,,,,,,,,,,4,8.95,9.65,10.35,11.05,0,0.7,0.44999999999999996,0.25,2.3499999999999996,10,initial,36.05,323,348,373,398,0,9,9,9,9,0,,,,,,,1,0,1,0,0,16,16,24,,,,,,,,,,,,,,4,0.695432799984701,4,0.35,0.25,9.01073,return,0.6826872000237927,,,,,,,,,,,,,,,,,p312,21,female,up_down_width,2025-11-30_17h12.56.212,exp1,2023.1.0,60.006756756374436,
,,,,,,,,,,,,,,,,3,9.1,10,10.9,0,0,0.9,0.35,0.55,2.35,10,initial,36.05,328,361,393,0,0,9,9,9,0,0,,,,,,,1,0,1,0,0,17,17,11,,,,,,,,,,,,,,3,0.567244500038214,3,0.2,0.35,12.61502,return,1.5202131000114605,,,,,,,,,,,,,,,,,p312,21,female,up_down_width,2025-11-30_17h12.56.212,exp1,2023.1.0,60.006756756374436,
,,,,,,,,,,,,,,,,4,9.1,9.7,10.3,10.9,0,0.6000000000000001,0.20000000000000004,0.4,2.2,10,match,36.05,328,350,371,393,0,9,9,9,9,0,,,,,,,1,0,1,0,0,18,18,16,,,,,,,,,,,,,,5,0.9179585999809206,5,0.55,0.45,16.21932,return,1.1043916000053287,,,,,,,,,,,,,,,,,p312,21,female,up_down_width,2025-11-30_17h12.56.212,exp1,2023.1.0,60.006756756374436,
,,,,,,,,,,,,,,,,3,7.800000000000001,10,12.2,0,0,2.1999999999999997,1.7999999999999998,0.4,4.8,10,match,36.05,281,361,440,0,0,9,9,9,0,0,,,,,,,1,0,1,0,0,19,19,39,,,,,,,,,,,,,,2,0.7911382999736816,2,0.25,0.44999999999999996,16.21932,return,1.334168800036423,,,,,,,,,,,,,,,,,p312,21,female,up_down_width,2025-11-30_17h12.56.212,exp1,2023.1.0,60.006756756374436,
,,,,,,,,,,,,,,,,3,8.525,10,11.475,0,0,1.475,1.225,0.25,3.2,10,match,36.05,307,361,414,0,0,9,9,9,0,0,,,,,,,1,0,1,0,0,20,20,45,,,,,,,,,,,,,,2,0.7853942000074312,2,0.45,0.25000000000000006,9.01073,return,1.136690799961798,,,,,,,,,,,,,,,,,p312,21,female,up_down_width,2025-11-30_17h12.56.212,exp1,2023.1.0,60.006756756374436,
,,,,,,,,,,,,,,,,4,9.3,9.766666666666667,10.233333333333333,10.7,0,0.4666666666666667,0.21666666666666665,0.25,1.65,10,match,36.05,335,352,369,386,0,9,9,9,9,0,,,,,,,1,0,1,0,0,21,21,8,,,,,,,,,,,,,,4,0.839226600015536,4,0.55,0.25000000000000006,9.01073,return,1.0927889000158757,,,,,,,,,,,,,,,,,p312,21,female,up_down_width,2025-11-30_17h12.56.212,exp1,2023.1.0,60.006756756374436,
,,,,,,,,,,,,,,,,3,9.3,10,10.7,0,0,0.7,0.1499999999999999,0.55,1.95,10,initial,36.05,335,361,386,0,0,9,9,9,0,0,,,,,,,1,0,1,0,0,22,22,6,,,,,,,,,,,,,,3,0.7295353999361396,3,0.25,0.39999999999999997,14.41717,return,0.6827526000561193,,,,,,,,,,,,,,,,,p312,21,female,up_down_width,2025-11-30_17h12.56.212,exp1,2023.1.0,60.006756756374436,
,,,,,,,,,,,,,,,,5,8.35,9.175,10,10.825,11.65,0.8250000000000001,0.275,0.55,3.85,10,match,36.05,301,331,361,390,420,9,9,9,9,9,,,,,,,1,0,1,0,0,23,23,18,,,,,,,,,,,,,,5,0.8680203999392688,5,0.2,0.44999999999999996,16.21932,return,1.150787099963054,,,,,,,,,,,,,,,,,p312,21,female,up_down_width,2025-11-30_17h12.56.212,exp1,2023.1.0,60.006756756374436,
,,,,,,,,,,,,,,,,5,7.8,8.9,10,11.1,12.2,1.1,0.8500000000000001,0.25,4.65,10,initial,36.05,281,321,361,400,440,9,9,9,9,9,,,,,,,1,0,1,0,0,24,24,36,,,,,,,,,,,,,,4,0.7771451999433339,4,0.5,0.20000000000000007,7.20859,return,1.3366334999445826,,,,,,,,,,,,,,,,,p312,21,female,up_down_width,2025-11-30_17h12.56.212,exp1,2023.1.0,60.006756756374436,
,,,,,,,,,,,,,,,,5,8.2,9.1,10,10.9,11.8,0.9,0.65,0.25,3.85,10,initial,36.05,296,328,361,393,425,9,9,9,9,9,,,,,,,1,0,1,0,0,25,25,48,,,,,,,,,,,,,,5,0.8485547000309452,5,0.5,0.20000000000000007,7.20859,return,1.0377761999843642,,,,,,,,,,,,,,,,,p312,21,female,up_down_width,2025-11-30_17h12.56.212,exp1,2023.1.0,60.006756756374436,
,,,,,,,,,,,,,,,,3,8.2,10,11.8,0,0,1.7999999999999998,1.4,0.4,4,10,match,36.05,296,361,425,0,0,9,9,9,0,0,,,,,,,1,0,1,0,0,26,26,51,,,,,,,,,,,,,,2,1.1809323000488803,2,0.55,0.25000000000000006,9.01073,return,1.0844259000150487,,,,,,,,,,,,,,,,,p312,21,female,up_down_width,2025-11-30_17h12.56.212,exp1,2023.1.0,60.006756756374436,
,,,,,,,,,,,,,,,,4,9.1,9.7,10.3,10.9,0,0.5999999999999999,0.3499999999999999,0.25,2.05,10,match,36.05,328,350,371,393,0,9,9,9,9,0,,,,,,,1,0,1,0,0,27,27,14,,,,,,,,,,,,,,4,0.7386848999885842,4,0.5,0.25000000000000006,9.01073,return,0.9162783999927342,,,,,,,,,,,,,,,,,p312,21,female,up_down_width,2025-11-30_17h12.56.212,exp1,2023.1.0,60.006756756374436,
,,,,,,,,,,,,,,,,4,8.35,9.45,10.55,11.65,0,1.1,0.7000000000000001,0.4,3.7,10,initial,36.05,301,341,380,420,0,9,9,9,9,0,,,,,,,1,0,1,0,0,28,28,21,,,,,,,,,,,,,,4,0.9660322000272572,4,0.2,0.15000000000000002,5.40644,return,0.5918086000019684,,,,,,,,,,,,,,,,,p312,21,female,up_down_width,2025-11-30_17h12.56.212,exp1,2023.1.0,60.006756756374436,
,,,,,,,,,,,,,,,,5,8.6,9.3,10,10.7,11.4,0.7,0.44999999999999996,0.25,3.05,10,initial,36.05,310,335,361,386,411,9,9,9,9,9,,,,,,,1,0,1,0,0,29,29,42,,,,,,,,,,,,,,4,0.5265923000406474,4,0.2,0.15000000000000002,5.40644,return,0.5209386999486014,,,,,,,,,,,,,,,,,p312,21,female,up_down_width,2025-11-30_17h12.56.212,exp1,2023.1.0,60.006756756374436,
,,,,,,,,,,,,,,,,3,9.3,10,10.7,0,0,0.7,0.44999999999999996,0.25,1.65,10,initial,36.05,335,361,386,0,0,9,9,9,0,0,,,,,,,1,0,1,0,0,30,30,7,,,,,,,,,,,,,,3,0.5966112000169232,3,0.35,0.2,7.20859,return,1.195874100085348,,,,,,,,,,,,,,,,,p312,21,female,up_down_width,2025-11-30_17h12.56.212,exp1,2023.1.0,60.006756756374436,
,,,,,,,,,,,,,,,,4,8.65,9.55,10.45,11.35,0,0.9,0.65,0.25,2.95,10,initial,36.05,312,344,377,409,0,9,9,9,9,0,,,,,,,1,0,1,0,0,31,31,30,,,,,,,,,,,,,,4,0.7175764999119565,4,0.2,0.15000000000000002,5.40644,return,0.4626676000189036,,,,,,,,,,,,,,,,,p312,21,female,up_down_width,2025-11-30_17h12.56.212,exp1,2023.1.0,60.006756756374436,
,,,,,,,,,,,,,,,,4,8.825,9.608333333333333,10.391666666666667,11.175,0,0.7833333333333333,0.5333333333333333,0.25,2.6,10,match,36.05,318,346,375,403,0,9,9,9,9,0,,,,,,,1,0,1,0,0,32,32,5,,,,,,,,,,,,,,4,0.8802878999849781,4,0.4,0.20000000000000007,7.20859,return,1.5488253000658005,,,,,,,,,,,,,,,,,p312,21,female,up_down_width,2025-11-30_17h12.56.212,exp1,2023.1.0,60.006756756374436,
,,,,,,,,,,,,,,,,3,7.8,10,12.2,0,0,2.2,1.9500000000000002,0.25,4.65,10,match,36.05,281,361,440,0,0,9,9,9,0,0,,,,,,,1,0,1,0,0,33,33,37,,,,,,,,,,,,,,2,0.9196238000877202,2,0.45,0.20000000000000007,7.20859,return,1.8261384000070393,,,,,,,,,,,,,,,,,p312,21,female,up_down_width,2025-11-30_17h12.56.212,exp1,2023.1.0,60.006756756374436,
,,,,,,,,,,,,,,,,4,9.1,9.7,10.3,10.9,0,0.6,0.04999999999999997,0.55,2.35,10,match,36.05,328,350,371,393,0,9,9,9,9,0,,,,,,,1,0,1,0,0,34,34,12,,,,,,,,,,,,,,3,1.0422564999898896,3,0.35,0.5499999999999999,19.82361,return,1.431239900062792,,,,,,,,,,,,,,,,,p312,21,female,up_down_width,2025-11-30_17h12.56.212,exp1,2023.1.0,60.006756756374436,
,,,,,,,,,,,,,,,,4,8.9,9.633333333333333,10.366666666666667,11.1,0,0.7333333333333334,0.4833333333333334,0.25,2.45,10,match,36.05,321,347,374,400,0,9,9,9,9,0,,,,,,,1,0,1,0,0,35,35,3,,,,,,,,,,,,,,4,0.8008640999905765,4,0.2,0.2,7.20859,return,0.9752399999415502,,,,,,,,,,,,,,,,,p312,21,female,up_down_width,2025-11-30_17h12.56.212,exp1,2023.1.0,60.006756756374436,
,,,,,,,,,,,,,,,,4,8.35,9.45,10.55,11.65,0,1.1,0.55,0.55,3.8500000000000005,10,initial,36.05,301,341,380,420,0,9,9,9,9,0,,,,,,,1,0,1,0,0,36,36,17,,,,,,,,,,,,,,4,1.3592767000664026,4,0.45,0.5,18.02146,return,0.775902200024575,,,,,,,,,,,,,,,,,p312,21,female,up_down_width,2025-11-30_17h12.56.212,exp1,2023.1.0,60.006756756374436,
,,,,,,,,,,,,,,,,4,8.9,9.633333333333333,10.366666666666667,11.1,0,0.7333333333333333,0.18333333333333326,0.55,2.75,10,match,36.05,321,347,374,400,0,9,9,9,9,0,,,,,,,1,0,1,0,0,37,37,1,,,,,,,,,,,,,,4,0.8374728999333456,4,0.5,0.55,19.82361,return,0.7883873000973836,,,,,,,,,,,,,,,,,p312,21,female,up_down_width,2025-11-30_17h12.56.212,exp1,2023.1.0,60.006756756374436,
,,,,,,,,,,,,,,,,4,8.35,9.45,10.55,11.65,0,1.1,0.8500000000000001,0.25,3.5500000000000003,10,initial,36.05,301,341,380,420,0,9,9,9,9,0,,,,,,,1,0,1,0,0,38,38,19,,,,,,,,,,,,,,4,2.068143100012094,4,0.4,0.25000000000000006,9.01073,return,1.6163111000787467,,,,,,,,,,,,,,,,,p312,21,female,up_down_width,2025-11-30_17h12.56.212,exp1,2023.1.0,60.006756756374436,
,,,,,,,,,,,,,,,,4,8.95,9.65,10.35,11.05,0,0.7,0.29999999999999993,0.4,2.5,10,initial,36.05,323,348,373,398,0,9,9,9,9,0,,,,,,,1,0,1,0,0,39,39,26,,,,,,,,,,,,,,4,1.0060977999819443,4,0.2,0.39999999999999997,14.41717,return,1.0273303999565542,,,,,,,,,,,,,,,,,p312,21,female,up_down_width,2025-11-30_17h12.56.212,exp1,2023.1.0,60.006756756374436,
,,,,,,,,,,,,,,,,3,8.6,10,11.4,0,0,1.4,1.15,0.25,3.05,10,match,36.05,310,361,411,0,0,9,9,9,0,0,,,,,,,1,0,1,0,0,40,40,43,,,,,,,,,,,,,,4,1.0860701999627054,4,0.25,0.2,7.20859,return,1.3457423000363633,,,,,,,,,,,,,,,,,p312,21,female,up_down_width,2025-11-30_17h12.56.212,exp1,2023.1.0,60.006756756374436,
,,,,,,,,,,,,,,,,4,8.95,9.65,10.35,11.05,0,0.7,0.1499999999999999,0.55,2.65,10,initial,36.05,323,348,373,398,0,9,9,9,9,0,,,,,,,1,0,1,0,0,41,41,23,,,,,,,,,,,,,,3,0.8021502000046894,3,0.3,0.44999999999999996,16.21932,return,0.7209288000594825,,,,,,,,,,,,,,,,,p312,21,female,up_down_width,2025-11-30_17h12.56.212,exp1,2023.1.0,60.006756756374436,
,,,,,,,,,,,,,,,,3,8.2,10,11.8,0,0,1.8,1.55,0.25,3.85,10,match,36.05,296,361,425,0,0,9,9,9,0,0,,,,,,,1,0,1,0,0,42,42,49,,,,,,,,,,,,,,3,0.6850599000463262,3,0.45,0.20000000000000007,7.20859,return,1.0092458999715745,,,,,,,,,,,,,,,,,p312,21,female,up_down_width,2025-11-30_17h12.56.212,exp1,2023.1.0,60.006756756374436,
,,,,,,,,,,,,,,,,5,8.275,9.1375,10,10.8625,11.725,0.8625,0.6125,0.25,3.7,10,match,36.05,298,329,361,392,423,9,9,9,9,9,,,,,,,1,0,1,0,0,43,43,22,,,,,,,,,,,,,,4,0.7470406000502408,4,0.45,0.25000000000000006,9.01073,return,1.340996199985966,,,,,,,,,,,,,,,,,p312,21,female,up_down_width,2025-11-30_17h12.56.212,exp1,2023.1.0,60.006756756374436,
,,,,,,,,,,,,,,,,3,9.3,10,10.7,0,0,0.7,0.29999999999999993,0.4,1.8,10,initial,36.05,335,361,386,0,0,9,9,9,0,0,,,,,,,1,0,1,0,0,44,44,9,,,,,,,,,,,,,,4,0.573965199990198,4,0.4,0.4,14.41717,return,1.3021291999612004,,,,,,,,,,,,,,,,,p312,21,female,up_down_width,2025-11-30_17h12.56.212,exp1,2023.1.0,60.006756756374436,
,,,,,,,,,,,,,,,,5,7.8,8.9,10,11.1,12.2,1.1,0.55,0.55,4.95,10,initial,36.05,281,321,361,400,440,9,9,9,9,9,,,,,,,1,0,1,0,0,45,45,34,,,,,,,,,,,,,,6,1.0549233000492677,6,0.55,0.4,14.41717,return,0.9947581000160426,,,,,,,,,,,,,,,,,p312,21,female,up_down_width,2025-11-30_17h12.56.212,exp1,2023.1.0,60.006756756374436,
,,,,,,,,,,,,,,,,5,8.65,9.325,10,10.675,11.35,0.675,0.125,0.55,3.25,10,match,36.05,312,336,361,385,409,9,9,9,9,9,,,,,,,1,0,1,0,0,46,46,29,,,,,,,,,,,,,,5,1.150984299951233,5,0.2,0.35,12.61502,return,1.102948300074786,,,,,,,,,,,,,,,,,p312,21,female,up_down_width,2025-11-30_17h12.56.212,exp1,2023.1.0,60.006756756374436,
,,,,,,,,,,,,,,,,5,8.2,9.1,10,10.9,11.8,0.9,0.5,0.4,4,10,initial,36.05,296,328,361,393,425,9,9,9,9,9,,,,,,,1,0,1,0,0,47,47,50,,,,,,,,,,,,,,5,0.8745770999230444,5,0.3,0.35,12.61502,return,0.6302933000260964,,,,,,,,,,,,,,,,,p312,21,female,up_down_width,2025-11-30_17h12.56.212,exp1,2023.1.0,60.006756756374436,
,,,,,,,,,,,,,,,,3,8.6,10,11.4,0,0,1.4,0.85,0.55,3.35,10,match,36.05,310,361,411,0,0,9,9,9,0,0,,,,,,,1,0,1,0,0,48,48,41,,,,,,,,,,,,,,3,0.7108221999369562,3,0.3,0.44999999999999996,16.21932,return,1.1279589000623673,,,,,,,,,,,,,,,,,p312,21,female,up_down_width,2025-11-30_17h12.56.212,exp1,2023.1.0,60.006756756374436,
,,,,,,,,,,,,,,,,5,8.95,9.475,10,10.525,11.05,0.525,0.275,0.25,2.35,10,match,36.05,323,342,361,379,398,9,9,9,9,9,,,,,,,1,0,1,0,0,49,49,25,,,,,,,,,,,,,,5,1.004613200086169,5,0.55,0.35000000000000003,12.61502,return,1.2352935000089929,,,,,,,,,,,,,,,,,p312,21,female,up_down_width,2025-11-30_17h12.56.212,exp1,2023.1.0,60.006756756374436,
,,,,,,,,,,,,,,,,5,8.35,9.175,10,10.825,11.65,0.825,0.575,0.25,3.55,10,match,36.05,301,331,361,390,420,9,9,9,9,9,,,,,,,1,0,1,0,0,50,50,20,,,,,,,,,,,,,,5,0.8431317999493331,5,0.2,0.2,7.20859,return,0.8074298000428826,,,,,,,,,,,,,,,,,p312,21,female,up_down_width,2025-11-30_17h12.56.212,exp1,2023.1.0,60.006756756374436,
,,,,,,,,,,,,,,,,4,8.65,9.55,10.45,11.35,0,0.9,0.35,0.55,3.25,10,initial,36.05,312,344,377,409,0,9,9,9,9,0,,,,,,,1,0,1,0,0,51,51,28,,,,,,,,,,,,,,4,0.6093037000391632,4,0.25,0.39999999999999997,14.41717,return,0.7435983000323176,,,,,,,,,,,,,,,,,p312,21,female,up_down_width,2025-11-30_17h12.56.212,exp1,2023.1.0,60.006756756374436,
,,,,,,,,,,,,,,,,,,,,,,,,,,,,,,,,,,,,,,,,,,,,,1,0,1,0,,,,,,,,,,,,,,,,,,,,,,,,,,,,971.5828409999376,971.5828409999376,971.5828409999376,,,,,,,,,,,,p312,21,female,up_down_width,2025-11-30_17h12.56.212,exp1,2023.1.0,60.006756756374436,
,,,,,,,,,,,,,,,,3,9.1,10,10.9,0,0,0.9,0.35,0.55,2.35,10,initial,36.05,328,361,393,0,0,9,9,9,0,0,,,,,,,2,0,2,0,0,0,0,11,,,,,,,,,,,,,,3,0.7813616999192163,3,0.3,0.44999999999999996,16.21932,return,0.6844522000756115,,,,,,,,,,,,,,,,,p312,21,female,up_down_width,2025-11-30_17h12.56.212,exp1,2023.1.0,60.006756756374436,
,,,,,,,,,,,,,,,,5,8.2,9.1,10,10.9,11.8,0.9,0.35,0.55,4.15,10,initial,36.05,296,328,361,393,425,9,9,9,9,9,,,,,,,2,0,2,0,0,1,1,46,,,,,,,,,,,,,,5,0.8139208999928087,5,0.2,0.35,12.61502,return,1.1493818999733776,,,,,,,,,,,,,,,,,p312,21,female,up_down_width,2025-11-30_17h12.56.212,exp1,2023.1.0,60.006756756374436,
,,,,,,,,,,,,,,,,4,8.825,9.608333333333333,10.391666666666667,11.175,0,0.7833333333333333,0.5333333333333333,0.25,2.6,10,match,36.05,318,346,375,403,0,9,9,9,9,0,,,,,,,2,0,2,0,0,2,2,5,,,,,,,,,,,,,,4,0.7541737999999896,4,0.4,0.35000000000000003,12.61502,return,0.4345972998999059,,,,,,,,,,,,,,,,,p312,21,female,up_down_width,2025-11-30_17h12.56.212,exp1,2023.1.0,60.006756756374436,
,,,,,,,,,,,,,,,,3,8.6,10,11.4,0,0,1.4,0.85,0.55,3.35,10,match,36.05,310,361,411,0,0,9,9,9,0,0,,,,,,,2,0,2,0,0,3,3,41,,,,,,,,,,,,,,3,0.760534800007008,3,0.35,0.25,9.01073,return,0.7286539999768138,,,,,,,,,,,,,,,,,p312,21,female,up_down_width,2025-11-30_17h12.56.212,exp1,2023.1.0,60.006756756374436,
,,,,,,,,,,,,,,,,5,8.2,9.1,10,10.9,11.8,0.9,0.65,0.25,3.85,10,initial,36.05,296,328,361,393,425,9,9,9,9,9,,,,,,,2,0,2,0,0,4,4,48,,,,,,,,,,,,,,4,0.9918745000613853,4,0.2,0.2,7.20859,return,0.9349454999901354,,,,,,,,,,,,,,,,,p312,21,female,up_down_width,2025-11-30_17h12.56.212,exp1,2023.1.0,60.006756756374436,
,,,,,,,,,,,,,,,,3,8.2,10,11.8,0,0,1.8,1.25,0.55,4.15,10,match,36.05,296,361,425,0,0,9,9,9,0,0,,,,,,,2,0,2,0,0,5,5,47,,,,,,,,,,,,,,2,0.8853282000636682,2,0.3,0.49999999999999994,18.02146,return,0.7190738000208512,,,,,,,,,,,,,,,,,p312,21,female,up_down_width,2025-11-30_17h12.56.212,exp1,2023.1.0,60.006756756374436,
,,,,,,,,,,,,,,,,5,7.8,8.9,10,11.1,12.2,1.1,0.55,0.55,4.95,10,initial,36.05,281,321,361,400,440,9,9,9,9,9,,,,,,,2,0,2,0,0,6,6,34,,,,,,,,,,,,,,4,0.7233340999810025,4,0.5,0.55,19.82361,return,0.46888120006769896,,,,,,,,,,,,,,,,,p312,21,female,up_down_width,2025-11-30_17h12.56.212,exp1,2023.1.0,60.006756756374436,
,,,,,,,,,,,,,,,,5,8.6,9.3,10,10.7,11.4,0.7,0.1499999999999999,0.55,3.3499999999999996,10,initial,36.05,310,335,361,386,411,9,9,9,9,9,,,,,,,2,0,2,0,0,7,7,40,,,,,,,,,,,,,,5,0.9155240000691265,5,0.55,0.5,18.02146,return,0.6697753999615088,,,,,,,,,,,,,,,,,p312,21,female,up_down_width,2025-11-30_17h12.56.212,exp1,2023.1.0,60.006756756374436,
,,,,,,,,,,,,,,,,5,8.65,9.325,10,10.675,11.35,0.675,0.275,0.4,3.1,10,match,36.05,312,336,361,385,409,9,9,9,9,9,,,,,,,2,0,2,0,0,8,8,33,,,,,,,,,,,,,,5,0.7641912999097258,5,0.55,0.35000000000000003,12.61502,return,42.461308800033294,,,,,,,,,,,,,,,,,p312,21,female,up_down_width,2025-11-30_17h12.56.212,exp1,2023.1.0,60.006756756374436,
,,,,,,,,,,,,,,,,4,8.65,9.55,10.45,11.35,0,0.9,0.65,0.25,2.95,10,initial,36.05,312,344,377,409,0,9,9,9,9,0,,,,,,,2,0,2,0,0,9,9,30,,,,,,,,,,,,,,4,0.8117685000179335,4,0.5,0.30000000000000004,10.81288,return,0.8572334999917075,,,,,,,,,,,,,,,,,p312,21,female,up_down_width,2025-11-30_17h12.56.212,exp1,2023.1.0,60.006756756374436,
,,,,,,,,,,,,,,,,4,8.95,9.65,10.35,11.05,0,0.7,0.44999999999999996,0.25,2.3499999999999996,10,initial,36.05,323,348,373,398,0,9,9,9,9,0,,,,,,,2,0,2,0,0,10,10,24,,,,,,,,,,,,,,4,1.6087187000084668,4,0.45,0.20000000000000007,7.20859,return,1.0155344000086188,,,,,,,,,,,,,,,,,p312,21,female,up_down_width,2025-11-30_17h12.56.212,exp1,2023.1.0,60.006756756374436,
,,,,,,,,,,,,,,,,4,8.65,9.55,10.45,11.35,0,0.9,0.35,0.55,3.25,10,initial,36.05,312,344,377,409,0,9,9,9,9,0,,,,,,,2,0,2,0,0,11,11,28,,,,,,,,,,,,,,4,0.6893551999237388,4,0.4,0.4,14.41717,return,1.062289600027725,,,,,,,,,,,,,,,,,p312,21,female,up_down_width,2025-11-30_17h12.56.212,exp1,2023.1.0,60.006756756374436,
,,,,,,,,,,,,,,,,3,9.1,10,10.9,0,0,0.9,0.65,0.25,2.05,10,initial,36.05,328,361,393,0,0,9,9,9,0,0,,,,,,,2,0,2,0,0,12,12,13,,,,,,,,,,,,,,3,0.7728076999774203,3,0.45,0.20000000000000007,7.20859,return,1.2835229000775144,,,,,,,,,,,,,,,,,p312,21,female,up_down_width,2025-11-30_17h12.56.212,exp1,2023.1.0,60.006756756374436,
,,,,,,,,,,,,,,,,3,7.8,10,12.2,0,0,2.2,1.9500000000000002,0.25,4.65,10,match,36.05,281,361,440,0,0,9,9,9,0,0,,,,,,,2,0,2,0,0,13,13,37,,,,,,,,,,,,,,2,1.4918944999808446,2,0.5,0.20000000000000007,7.20859,return,1.3353131000185385,,,,,,,,,,,,,,,,,p312,21,female,up_down_width,2025-11-30_17h12.56.212,exp1,2023.1.0,60.006756756374436,
,,,,,,,,,,,,,,,,4,9.1,9.7,10.3,10.9,0,0.6000000000000001,0.20000000000000004,0.4,2.2,10,match,36.05,328,350,371,393,0,9,9,9,9,0,,,,,,,2,0,2,0,0,14,14,16,,,,,,,,,,,,,,3,0.8795796000631526,3,0.55,0.5,18.02146,return,1.0030836999649182,,,,,,,,,,,,,,,,,p312,21,female,up_down_width,2025-11-30_17h12.56.212,exp1,2023.1.0,60.006756756374436,
,,,,,,,,,,,,,,,,4,9.3,9.766666666666667,10.233333333333333,10.7,0,0.4666666666666667,0.21666666666666665,0.25,1.65,10,match,36.05,335,352,369,386,0,9,9,9,9,0,,,,,,,2,0,2,0,0,15,15,8,,,,,,,,,,,,,,4,0.7421292000217363,4,0.55,0.35000000000000003,12.61502,return,0.823389699915424,,,,,,,,,,,,,,,,,p312,21,female,up_down_width,2025-11-30_17h12.56.212,exp1,2023.1.0,60.006756756374436,
,,,,,,,,,,,,,,,,3,8.6,10,11.4,0,0,1.4,1.15,0.25,3.05,10,match,36.05,310,361,411,0,0,9,9,9,0,0,,,,,,,2,0,2,0,0,16,16,43,,,,,,,,,,,,,,3,0.556835199939087,3,0.5,0.20000000000000007,7.20859,return,1.0936705999774858,,,,,,,,,,,,,,,,,p312,21,female,up_down_width,2025-11-30_17h12.56.212,exp1,2023.1.0,60.006756756374436,
,,,,,,,,,,,,,,,,4,8.65,9.55,10.45,11.35,0,0.9,0.5,0.4,3.1,10,initial,36.05,312,344,377,409,0,9,9,9,9,0,,,,,,,2,0,2,0,0,17,17,32,,,,,,,,,,,,,,4,0.6305217000190169,4,0.25,0.3,10.81288,return,1.1321322000585496,,,,,,,,,,,,,,,,,p312,21,female,up_down_width,2025-11-30_17h12.56.212,exp1,2023.1.0,60.006756756374436,
,,,,,,,,,,,,,,,,3,9.3,10,10.7,0,0,0.7,0.29999999999999993,0.4,1.8,10,initial,36.05,335,361,386,0,0,9,9,9,0,0,,,,,,,2,0,2,0,0,18,18,9,,,,,,,,,,,,,,3,0.5793834000360221,3,0.5,0.5,18.02146,return,0.9230498999822885,,,,,,,,,,,,,,,,,p312,21,female,up_down_width,2025-11-30_17h12.56.212,exp1,2023.1.0,60.006756756374436,
,,,,,,,,,,,,,,,,4,8.9,9.633333333333333,10.366666666666667,11.1,0,0.7333333333333333,0.18333333333333326,0.55,2.75,10,match,36.05,321,347,374,400,0,9,9,9,9,0,,,,,,,2,0,2,0,0,19,19,1,,,,,,,,,,,,,,4,0.6005013000685722,4,0.4,0.45,16.21932,return,0.9438228999497369,,,,,,,,,,,,,,,,,p312,21,female,up_down_width,2025-11-30_17h12.56.212,exp1,2023.1.0,60.006756756374436,
,,,,,,,,,,,,,,,,4,8.35,9.45,10.55,11.65,0,1.1,0.7000000000000001,0.4,3.7,10,initial,36.05,301,341,380,420,0,9,9,9,9,0,,,,,,,2,0,2,0,0,20,20,21,,,,,,,,,,,,,,4,0.42731840000487864,4,0.2,0.3,10.81288,return,1.0016248000320047,,,,,,,,,,,,,,,,,p312,21,female,up_down_width,2025-11-30_17h12.56.212,exp1,2023.1.0,60.006756756374436,
,,,,,,,,,,,,,,,,4,9.3,9.766666666666667,10.233333333333333,10.7,0,0.4666666666666667,0.06666666666666665,0.4,1.8,10,match,36.05,335,352,369,386,0,9,9,9,9,0,,,,,,,2,0,2,0,0,21,21,10,,,,,,,,,,,,,,4,0.5030848999740556,4,0.4,0.55,19.82361,return,0.6101124999113381,,,,,,,,,,,,,,,,,p312,21,female,up_down_width,2025-11-30_17h12.56.212,exp1,2023.1.0,60.006756756374436,
,,,,,,,,,,,,,,,,5,8.35,9.175,10,10.825,11.65,0.825,0.575,0.25,3.55,10,match,36.05,301,331,361,390,420,9,9,9,9,9,,,,,,,2,0,2,0,0,22,22,20,,,,,,,,,,,,,,5,1.0100911000045016,5,0.55,0.35000000000000003,12.61502,return,1.2252193000167608,,,,,,,,,,,,,,,,,p312,21,female,up_down_width,2025-11-30_17h12.56.212,exp1,2023.1.0,60.006756756374436,
,,,,,,,,,,,,,,,,4,9.1,9.7,10.3,10.9,0,0.5999999999999999,0.3499999999999999,0.25,2.05,10,match,36.05,328,350,371,393,0,9,9,9,9,0,,,,,,,2,0,2,0,0,23,23,14,,,,,,,,,,,,,,4,0.8599569000070915,4,0.3,0.2,7.20859,return,1.144112900015898,,,,,,,,,,,,,,,,,p312,21,female,up_down_width,2025-11-30_17h12.56.212,exp1,2023.1.0,60.006756756374436,
,,,,,,,,,,,,,,,,5,8.65,9.325,10,10.675,11.35,0.675,0.42500000000000004,0.25,2.95,10,match,36.05,312,336,361,385,409,9,9,9,9,9,,,,,,,2,0,2,0,0,24,24,31,,,,,,,,,,,,,,4,1.255556899937801,4,0.25,0.15000000000000002,5.40644,return,0.6440408999333158,,,,,,,,,,,,,,,,,p312,21,female,up_down_width,2025-11-30_17h12.56.212,exp1,2023.1.0,60.006756756374436,
,,,,,,,,,,,,,,,,4,8.95,9.65,10.35,11.05,0,0.7,0.1499999999999999,0.55,2.65,10,initial,36.05,323,348,373,398,0,9,9,9,9,0,,,,,,,2,0,2,0,0,25,25,23,,,,,,,,,,,,,,3,0.791329599916935,3,0.2,0.5499999999999999,19.82361,return,1.6222062999149784,,,,,,,,,,,,,,,,,p312,21,female,up_down_width,2025-11-30_17h12.56.212,exp1,2023.1.0,60.006756756374436,
,,,,,,,,,,,,,,,,3,9.3,10,10.7,0,0,0.7,0.1499999999999999,0.55,1.95,10,initial,36.05,335,361,386,0,0,9,9,9,0,0,,,,,,,2,0,2,0,0,26,26,6,,,,,,,,,,,,,,3,0.6013960000127554,3,0.35,0.6,21.62576,return,0.9594823000952601,,,,,,,,,,,,,,,,,p312,21,female,up_down_width,2025-11-30_17h12.56.212,exp1,2023.1.0,60.006756756374436,
,,,,,,,,,,,,,,,,5,7.8,8.9,10,11.1,12.2,1.1,0.8500000000000001,0.25,4.65,10,initial,36.05,281,321,361,400,440,9,9,9,9,9,,,,,,,2,0,2,0,0,27,27,36,,,,,,,,,,,,,,5,0.880575199960731,5,0.5,0.25000000000000006,9.01073,return,0.9721446000039577,,,,,,,,,,,,,,,,,p312,21,female,up_down_width,2025-11-30_17h12.56.212,exp1,2023.1.0,60.006756756374436,
,,,,,,,,,,,,,,,,3,8.9,10,11.1,0,0,1.1,0.7000000000000001,0.4,2.6000000000000005,10,initial,36.05,321,361,400,0,0,9,9,9,0,0,,,,,,,2,0,2,0,0,28,28,4,,,,,,,,,,,,,,3,0.7753740000771359,3,0.25,0.25,9.01073,return,1.2087067000102252,,,,,,,,,,,,,,,,,p312,21,female,up_down_width,2025-11-30_17h12.56.212,exp1,2023.1.0,60.006756756374436,
,,,,,,,,,,,,,,,,3,8.9,10,11.1,0,0,1.1,0.8500000000000001,0.25,2.45,10,initial,36.05,321,361,400,0,0,9,9,9,0,0,,,,,,,2,0,2,0,0,29,29,2,,,,,,,,,,,,,,3,0.8160583000862971,3,0.4,0.35000000000000003,12.61502,return,0.5760413000825793,,,,,,,,,,,,,,,,,p312,21,female,up_down_width,2025-11-30_17h12.56.212,exp1,2023.1.0,60.006756756374436,
,,,,,,,,,,,,,,,,4,8.9,9.633333333333333,10.366666666666667,11.1,0,0.7333333333333334,0.4833333333333334,0.25,2.45,10,match,36.05,321,347,374,400,0,9,9,9,9,0,,,,,,,2,0,2,0,0,30,30,3,,,,,,,,,,,,,,5,1.3179467000300065,5,0.55,0.30000000000000004,10.81288,return,1.2955816000467166,,,,,,,,,,,,,,,,,p312,21,female,up_down_width,2025-11-30_17h12.56.212,exp1,2023.1.0,60.006756756374436,
,,,,,,,,,,,,,,,,3,9.1,10,10.9,0,0,0.9,0.5,0.4,2.2,10,initial,36.05,328,361,393,0,0,9,9,9,0,0,,,,,,,2,0,2,0,0,31,31,15,,,,,,,,,,,,,,3,0.6915108999237418,3,0.35,0.3,10.81288,return,0.9343086000299081,,,,,,,,,,,,,,,,,p312,21,female,up_down_width,2025-11-30_17h12.56.212,exp1,2023.1.0,60.006756756374436,
,,,,,,,,,,,,,,,,3,8.2,10,11.8,0,0,1.8,1.55,0.25,3.85,10,match,36.05,296,361,425,0,0,9,9,9,0,0,,,,,,,2,0,2,0,0,32,32,49,,,,,,,,,,,,,,3,0.7352433999767527,3,0.3,0.2,7.20859,return,0.8477942999452353,,,,,,,,,,,,,,,,,p312,21,female,up_down_width,2025-11-30_17h12.56.212,exp1,2023.1.0,60.006756756374436,
,,,,,,,,,,,,,,,,5,8.95,9.475,10,10.525,11.05,0.525,0.125,0.4,2.5,10,match,36.05,323,342,361,379,398,9,9,9,9,9,,,,,,,2,0,2,0,0,33,33,27,,,,,,,,,,,,,,4,0.8071966000134125,4,0.2,0.25,9.01073,return,0.8533755999524146,,,,,,,,,,,,,,,,,p312,21,female,up_down_width,2025-11-30_17h12.56.212,exp1,2023.1.0,60.006756756374436,
,,,,,,,,,,,,,,,,5,7.8,8.9,10,11.1,12.2,1.1,0.7000000000000001,0.4,4.800000000000001,10,initial,36.05,281,321,361,400,440,9,9,9,9,9,,,,,,,2,0,2,0,0,34,34,38,,,,,,,,,,,,,,5,0.8194832000881433,5,0.55,0.35000000000000003,12.61502,return,1.0253840000368655,,,,,,,,,,,,,,,,,p312,21,female,up_down_width,2025-11-30_17h12.56.212,exp1,2023.1.0,60.006756756374436,
,,,,,,,,,,,,,,,,4,8.35,9.45,10.55,11.65,0,1.1,0.55,0.55,3.8500000000000005,10,initial,36.05,301,341,380,420,0,9,9,9,9,0,,,,,,,2,0,2,0,0,35,35,17,,,,,,,,,,,,,,4,0.7619281000224873,4,0.2,0.25,9.01073,return,1.1300353999249637,,,,,,,,,,,,,,,,,p312,21,female,up_down_width,2025-11-30_17h12.56.212,exp1,2023.1.0,60.006756756374436,
,,,,,,,,,,,,,,,,3,8.9,10,11.1,0,0,1.1,0.55,0.55,2.75,10,initial,36.05,321,361,400,0,0,9,9,9,0,0,,,,,,,2,0,2,0,0,36,36,0,,,,,,,,,,,,,,3,0.766138199949637,3,0.25,0.35,12.61502,return,1.087694099987857,,,,,,,,,,,,,,,,,p312,21,female,up_down_width,2025-11-30_17h12.56.212,exp1,2023.1.0,60.006756756374436,
,,,,,,,,,,,,,,,,5,8.275,9.1375,10,10.8625,11.725,0.8625,0.6125,0.25,3.7,10,match,36.05,298,329,361,392,423,9,9,9,9,9,,,,,,,2,0,2,0,0,37,37,22,,,,,,,,,,,,,,5,0.7652523999568075,5,0.3,0.25,9.01073,return,0.8457614999497309,,,,,,,,,,,,,,,,,p312,21,female,up_down_width,2025-11-30_17h12.56.212,exp1,2023.1.0,60.006756756374436,
,,,,,,,,,,,,,,,,5,8.95,9.475,10,10.525,11.05,0.525,0.275,0.25,2.35,10,match,36.05,323,342,361,379,398,9,9,9,9,9,,,,,,,2,0,2,0,0,38,38,25,,,,,,,,,,,,,,5,0.7964794000145048,5,0.3,0.25,9.01073,return,0.79661139997188,,,,,,,,,,,,,,,,,p312,21,female,up_down_width,2025-11-30_17h12.56.212,exp1,2023.1.0,60.006756756374436,
,,,,,,,,,,,,,,,,3,8.525,10,11.475,0,0,1.475,1.225,0.25,3.2,10,match,36.05,307,361,414,0,0,9,9,9,0,0,,,,,,,2,0,2,0,0,39,39,45,,,,,,,,,,,,,,3,0.7898673000745475,3,0.5,0.25000000000000006,9.01073,return,1.0292128999717534,,,,,,,,,,,,,,,,,p312,21,female,up_down_width,2025-11-30_17h12.56.212,exp1,2023.1.0,60.006756756374436,
,,,,,,,,,,,,,,,,4,8.95,9.65,10.35,11.05,0,0.7,0.29999999999999993,0.4,2.5,10,initial,36.05,323,348,373,398,0,9,9,9,9,0,,,,,,,2,0,2,0,0,40,40,26,,,,,,,,,,,,,,4,0.6913389000110328,4,0.55,0.25000000000000006,9.01073,return,0.9829218999948353,,,,,,,,,,,,,,,,,p312,21,female,up_down_width,2025-11-30_17h12.56.212,exp1,2023.1.0,60.006756756374436,
,,,,,,,,,,,,,,,,5,8.65,9.325,10,10.675,11.35,0.675,0.125,0.55,3.25,10,match,36.05,312,336,361,385,409,9,9,9,9,9,,,,,,,2,0,2,0,0,41,41,29,,,,,,,,,,,,,,4,0.7193928000051528,4,0.2,0.35,12.61502,return,0.9307537999702618,,,,,,,,,,,,,,,,,p312,21,female,up_down_width,2025-11-30_17h12.56.212,exp1,2023.1.0,60.006756756374436,
,,,,,,,,,,,,,,,,4,8.35,9.45,10.55,11.65,0,1.1,0.8500000000000001,0.25,3.5500000000000003,10,initial,36.05,301,341,380,420,0,9,9,9,9,0,,,,,,,2,0,2,0,0,42,42,19,,,,,,,,,,,,,,4,0.7873277000617236,4,0.35,0.3,10.81288,return,0.9626301999669522,,,,,,,,,,,,,,,,,p312,21,female,up_down_width,2025-11-30_17h12.56.212,exp1,2023.1.0,60.006756756374436,
,,,,,,,,,,,,,,,,4,9.1,9.7,10.3,10.9,0,0.6,0.04999999999999997,0.55,2.35,10,match,36.05,328,350,371,393,0,9,9,9,9,0,,,,,,,2,0,2,0,0,43,43,12,,,,,,,,,,,,,,4,0.7413444999838248,4,0.55,0.5,18.02146,return,1.160120900021866,,,,,,,,,,,,,,,,,p312,21,female,up_down_width,2025-11-30_17h12.56.212,exp1,2023.1.0,60.006756756374436,
,,,,,,,,,,,,,,,,3,7.800000000000001,10,12.2,0,0,2.1999999999999997,1.7999999999999998,0.4,4.8,10,match,36.05,281,361,440,0,0,9,9,9,0,0,,,,,,,2,0,2,0,0,44,44,39,,,,,,,,,,,,,,2,0.9788945000618696,2,0.35,0.39999999999999997,14.41717,return,1.3709542999276891,,,,,,,,,,,,,,,,,p312,21,female,up_down_width,2025-11-30_17h12.56.212,exp1,2023.1.0,60.006756756374436,
,,,,,,,,,,,,,,,,5,8.6,9.3,10,10.7,11.4,0.7,0.29999999999999993,0.4,3.1999999999999997,10,initial,36.05,310,335,361,386,411,9,9,9,9,9,,,,,,,2,0,2,0,0,45,45,44,,,,,,,,,,,,,,5,1.115777000086382,5,0.55,0.4,14.41717,return,1.18253259989433,,,,,,,,,,,,,,,,,p312,21,female,up_down_width,2025-11-30_17h12.56.212,exp1,2023.1.0,60.006756756374436,
,,,,,,,,,,,,,,,,5,8.35,9.175,10,10.825,11.65,0.8250000000000001,0.275,0.55,3.85,10,match,36.05,301,331,361,390,420,9,9,9,9,9,,,,,,,2,0,2,0,0,46,46,18,,,,,,,,,,,,,,5,0.8929407999385148,5,0.2,0.35,12.61502,return,1.0645731999538839,,,,,,,,,,,,,,,,,p312,21,female,up_down_width,2025-11-30_17h12.56.212,exp1,2023.1.0,60.006756756374436,
,,,,,,,,,,,,,,,,5,8.6,9.3,10,10.7,11.4,0.7,0.44999999999999996,0.25,3.05,10,initial,36.05,310,335,361,386,411,9,9,9,9,9,,,,,,,2,0,2,0,0,47,47,42,,,,,,,,,,,,,,4,0.7823266999330372,4,0.45,0.30000000000000004,10.81288,return,0.7508023000555113,,,,,,,,,,,,,,,,,p312,21,female,up_down_width,2025-11-30_17h12.56.212,exp1,2023.1.0,60.006756756374436,
,,,,,,,,,,,,,,,,3,9.3,10,10.7,0,0,0.7,0.44999999999999996,0.25,1.65,10,initial,36.05,335,361,386,0,0,9,9,9,0,0,,,,,,,2,0,2,0,0,48,48,7,,,,,,,,,,,,,,3,0.7068873000098392,3,0.35,0.25,9.01073,return,0.5160399000160396,,,,,,,,,,,,,,,,,p312,21,female,up_down_width,2025-11-30_17h12.56.212,exp1,2023.1.0,60.006756756374436,
,,,,,,,,,,,,,,,,3,8.2,10,11.8,0,0,1.7999999999999998,1.4,0.4,4,10,match,36.05,296,361,425,0,0,9,9,9,0,0,,,,,,,2,0,2,0,0,49,49,51,,,,,,,,,,,,,,3,0.9135113999946043,3,0.45,0.4,14.41717,return,0.7325366999721155,,,,,,,,,,,,,,,,,p312,21,female,up_down_width,2025-11-30_17h12.56.212,exp1,2023.1.0,60.006756756374436,
,,,,,,,,,,,,,,,,5,8.2,9.1,10,10.9,11.8,0.9,0.5,0.4,4,10,initial,36.05,296,328,361,393,425,9,9,9,9,9,,,,,,,2,0,2,0,0,50,50,50,,,,,,,,,,,,,,5,0.8988067999016494,5,0.3,0.25,9.01073,return,0.5415650000795722,,,,,,,,,,,,,,,,,p312,21,female,up_down_width,2025-11-30_17h12.56.212,exp1,2023.1.0,60.006756756374436,
,,,,,,,,,,,,,,,,3,7.8,10,12.2,0,0,2.2,1.65,0.55,4.95,10,match,36.05,281,361,440,0,0,9,9,9,0,0,,,,,,,2,0,2,0,0,51,51,35,,,,,,,,,,,,,,3,0.6892912000184879,3,0.35,0.35,12.61502,return,0.9160133000696078,,,,,,,,,,,,,,,,,p312,21,female,up_down_width,2025-11-30_17h12.56.212,exp1,2023.1.0,60.006756756374436,
,,,,,,,,,,,,,,,,,,,,,,,,,,,,,,,,,,,,,,,,,,,,,2,0,2,0,,,,,,,,,,,,,,,,,,,,,,,,,,,,1199.0327229000395,1199.0327229000395,1199.0327229000395,,,,,,,,,,,,p312,21,female,up_down_width,2025-11-30_17h12.56.212,exp1,2023.1.0,60.006756756374436,
,,,,,,,,,,,,,,,,5,8.2,9.1,10,10.9,11.8,0.9,0.65,0.25,3.85,10,initial,36.05,296,328,361,393,425,9,9,9,9,9,,,,,,,3,0,3,0,0,0,0,48,,,,,,,,,,,,,,3,2.9402255000313744,3,0.4,0.45,16.21932,return,1.0455198000418022,,,,,,,,,,,,,,,,,p312,21,female,up_down_width,2025-11-30_17h12.56.212,exp1,2023.1.0,60.006756756374436,
,,,,,,,,,,,,,,,,4,9.3,9.766666666666667,10.233333333333333,10.7,0,0.4666666666666667,0.21666666666666665,0.25,1.65,10,match,36.05,335,352,369,386,0,9,9,9,9,0,,,,,,,3,0,3,0,0,1,1,8,,,,,,,,,,,,,,4,0.9520045999670401,4,0.5,0.30000000000000004,10.81288,return,1.0417588000418618,,,,,,,,,,,,,,,,,p312,21,female,up_down_width,2025-11-30_17h12.56.212,exp1,2023.1.0,60.006756756374436,
,,,,,,,,,,,,,,,,4,8.95,9.65,10.35,11.05,0,0.7,0.44999999999999996,0.25,2.3499999999999996,10,initial,36.05,323,348,373,398,0,9,9,9,9,0,,,,,,,3,0,3,0,0,2,2,24,,,,,,,,,,,,,,4,0.8158772999886423,4,0.25,0.3,10.81288,return,1.0850526000140235,,,,,,,,,,,,,,,,,p312,21,female,up_down_width,2025-11-30_17h12.56.212,exp1,2023.1.0,60.006756756374436,
,,,,,,,,,,,,,,,,5,7.8,8.9,10,11.1,12.2,1.1,0.55,0.55,4.95,10,initial,36.05,281,321,361,400,440,9,9,9,9,9,,,,,,,3,0,3,0,0,3,3,34,,,,,,,,,,,,,,5,1.0020390000427142,5,0.35,0.44999999999999996,16.21932,return,0.5126689999597147,,,,,,,,,,,,,,,,,p312,21,female,up_down_width,2025-11-30_17h12.56.212,exp1,2023.1.0,60.006756756374436,
,,,,,,,,,,,,,,,,4,9.1,9.7,10.3,10.9,0,0.6000000000000001,0.20000000000000004,0.4,2.2,10,match,36.05,328,350,371,393,0,9,9,9,9,0,,,,,,,3,0,3,0,0,4,4,16,,,,,,,,,,,,,,4,0.8185408000135794,4,0.35,0.35,12.61502,return,0.8487736999522895,,,,,,,,,,,,,,,,,p312,21,female,up_down_width,2025-11-30_17h12.56.212,exp1,2023.1.0,60.006756756374436,
,,,,,,,,,,,,,,,,5,8.6,9.3,10,10.7,11.4,0.7,0.29999999999999993,0.4,3.1999999999999997,10,initial,36.05,310,335,361,386,411,9,9,9,9,9,,,,,,,3,0,3,0,0,5,5,44,,,,,,,,,,,,,,5,0.6361294999951497,5,0.4,0.4,14.41717,return,0.9454341999953613,,,,,,,,,,,,,,,,,p312,21,female,up_down_width,2025-11-30_17h12.56.212,exp1,2023.1.0,60.006756756374436,
,,,,,,,,,,,,,,,,3,8.525,10,11.475,0,0,1.475,1.225,0.25,3.2,10,match,36.05,307,361,414,0,0,9,9,9,0,0,,,,,,,3,0,3,0,0,6,6,45,,,,,,,,,,,,,,4,0.8613707999465987,4,0.4,0.25000000000000006,9.01073,return,0.841247700038366,,,,,,,,,,,,,,,,,p312,21,female,up_down_width,2025-11-30_17h12.56.212,exp1,2023.1.0,60.006756756374436,
,,,,,,,,,,,,,,,,5,8.65,9.325,10,10.675,11.35,0.675,0.42500000000000004,0.25,2.95,10,match,36.05,312,336,361,385,409,9,9,9,9,9,,,,,,,3,0,3,0,0,7,7,31,,,,,,,,,,,,,,5,0.8633165000937879,5,0.4,0.30000000000000004,10.81288,return,0.7956020999699831,,,,,,,,,,,,,,,,,p312,21,female,up_down_width,2025-11-30_17h12.56.212,exp1,2023.1.0,60.006756756374436,
,,,,,,,,,,,,,,,,3,8.9,10,11.1,0,0,1.1,0.7000000000000001,0.4,2.6000000000000005,10,initial,36.05,321,361,400,0,0,9,9,9,0,0,,,,,,,3,0,3,0,0,8,8,4,,,,,,,,,,,,,,3,0.9324775000568479,3,0.45,0.4,14.41717,return,0.8469527000561357,,,,,,,,,,,,,,,,,p312,21,female,up_down_width,2025-11-30_17h12.56.212,exp1,2023.1.0,60.006756756374436,
,,,,,,,,,,,,,,,,5,8.95,9.475,10,10.525,11.05,0.525,0.125,0.4,2.5,10,match,36.05,323,342,361,379,398,9,9,9,9,9,,,,,,,3,0,3,0,0,9,9,27,,,,,,,,,,,,,,5,0.5017934000352398,5,0.2,0.15000000000000002,5.40644,return,1.1363127999939024,,,,,,,,,,,,,,,,,p312,21,female,up_down_width,2025-11-30_17h12.56.212,exp1,2023.1.0,60.006756756374436,
,,,,,,,,,,,,,,,,3,9.3,10,10.7,0,0,0.7,0.44999999999999996,0.25,1.65,10,initial,36.05,335,361,386,0,0,9,9,9,0,0,,,,,,,3,0,3,0,0,10,10,7,,,,,,,,,,,,,,3,1.292820499977097,3,0.2,0.25,9.01073,return,1.1433566000778228,,,,,,,,,,,,,,,,,p312,21,female,up_down_width,2025-11-30_17h12.56.212,exp1,2023.1.0,60.006756756374436,
,,,,,,,,,,,,,,,,4,8.95,9.65,10.35,11.05,0,0.7,0.29999999999999993,0.4,2.5,10,initial,36.05,323,348,373,398,0,9,9,9,9,0,,,,,,,3,0,3,0,0,11,11,26,,,,,,,,,,,,,,3,0.8160407999530435,3,0.2,0.25,9.01073,return,0.6883007000433281,,,,,,,,,,,,,,,,,p312,21,female,up_down_width,2025-11-30_17h12.56.212,exp1,2023.1.0,60.006756756374436,
,,,,,,,,,,,,,,,,3,9.3,10,10.7,0,0,0.7,0.29999999999999993,0.4,1.8,10,initial,36.05,335,361,386,0,0,9,9,9,0,0,,,,,,,3,0,3,0,0,12,12,9,,,,,,,,,,,,,,3,0.6896716000046581,3,0.55,0.45,16.21932,return,0.9154662000946701,,,,,,,,,,,,,,,,,p312,21,female,up_down_width,2025-11-30_17h12.56.212,exp1,2023.1.0,60.006756756374436,
,,,,,,,,,,,,,,,,4,8.35,9.45,10.55,11.65,0,1.1,0.55,0.55,3.8500000000000005,10,initial,36.05,301,341,380,420,0,9,9,9,9,0,,,,,,,3,0,3,0,0,13,13,17,,,,,,,,,,,,,,4,0.5733299999265,4,0.4,0.35000000000000003,12.61502,return,0.5964742000214756,,,,,,,,,,,,,,,,,p312,21,female,up_down_width,2025-11-30_17h12.56.212,exp1,2023.1.0,60.006756756374436,
,,,,,,,,,,,,,,,,4,9.1,9.7,10.3,10.9,0,0.5999999999999999,0.3499999999999999,0.25,2.05,10,match,36.05,328,350,371,393,0,9,9,9,9,0,,,,,,,3,0,3,0,0,14,14,14,,,,,,,,,,,,,,4,1.7280690000625327,4,0.55,0.45,16.21932,return,0.7614513000007719,,,,,,,,,,,,,,,,,p312,21,female,up_down_width,2025-11-30_17h12.56.212,exp1,2023.1.0,60.006756756374436,
,,,,,,,,,,,,,,,,4,8.825,9.608333333333333,10.391666666666667,11.175,0,0.7833333333333333,0.5333333333333333,0.25,2.6,10,match,36.05,318,346,375,403,0,9,9,9,9,0,,,,,,,3,0,3,0,0,15,15,5,,,,,,,,,,,,,,4,0.5529434999916703,4,0.3,0.25,9.01073,return,1.0259711000835523,,,,,,,,,,,,,,,,,p312,21,female,up_down_width,2025-11-30_17h12.56.212,exp1,2023.1.0,60.006756756374436,
,,,,,,,,,,,,,,,,4,8.65,9.55,10.45,11.35,0,0.9,0.35,0.55,3.25,10,initial,36.05,312,344,377,409,0,9,9,9,9,0,,,,,,,3,0,3,0,0,16,16,28,,,,,,,,,,,,,,4,0.7930379000026733,4,0.3,0.35,12.61502,return,1.3685815000208095,,,,,,,,,,,,,,,,,p312,21,female,up_down_width,2025-11-30_17h12.56.212,exp1,2023.1.0,60.006756756374436,
,,,,,,,,,,,,,,,,5,8.95,9.475,10,10.525,11.05,0.525,0.275,0.25,2.35,10,match,36.05,323,342,361,379,398,9,9,9,9,9,,,,,,,3,0,3,0,0,17,17,25,,,,,,,,,,,,,,4,1.4394020000472665,4,0.45,0.4,14.41717,return,0.8192594998981804,,,,,,,,,,,,,,,,,p312,21,female,up_down_width,2025-11-30_17h12.56.212,exp1,2023.1.0,60.006756756374436,
,,,,,,,,,,,,,,,,3,8.9,10,11.1,0,0,1.1,0.55,0.55,2.75,10,initial,36.05,321,361,400,0,0,9,9,9,0,0,,,,,,,3,0,3,0,0,18,18,0,,,,,,,,,,,,,,3,0.8420748000498861,3,0.2,0.35,12.61502,return,1.1113103999523446,,,,,,,,,,,,,,,,,p312,21,female,up_down_width,2025-11-30_17h12.56.212,exp1,2023.1.0,60.006756756374436,
,,,,,,,,,,,,,,,,5,8.65,9.325,10,10.675,11.35,0.675,0.125,0.55,3.25,10,match,36.05,312,336,361,385,409,9,9,9,9,9,,,,,,,3,0,3,0,0,19,19,29,,,,,,,,,,,,,,4,0.7605399000458419,4,0.55,0.35000000000000003,12.61502,return,2.6658142999513075,,,,,,,,,,,,,,,,,p312,21,female,up_down_width,2025-11-30_17h12.56.212,exp1,2023.1.0,60.006756756374436,
,,,,,,,,,,,,,,,,5,8.65,9.325,10,10.675,11.35,0.675,0.275,0.4,3.1,10,match,36.05,312,336,361,385,409,9,9,9,9,9,,,,,,,3,0,3,0,0,20,20,33,,,,,,,,,,,,,,5,1.7558509999653324,5,0.45,0.4,14.41717,return,1.2676295000128448,,,,,,,,,,,,,,,,,p312,21,female,up_down_width,2025-11-30_17h12.56.212,exp1,2023.1.0,60.006756756374436,
,,,,,,,,,,,,,,,,3,8.2,10,11.8,0,0,1.8,1.55,0.25,3.85,10,match,36.05,296,361,425,0,0,9,9,9,0,0,,,,,,,3,0,3,0,0,21,21,49,,,,,,,,,,,,,,3,0.782221500063315,3,0.2,0.2,7.20859,return,1.6146578000625595,,,,,,,,,,,,,,,,,p312,21,female,up_down_width,2025-11-30_17h12.56.212,exp1,2023.1.0,60.006756756374436,
,,,,,,,,,,,,,,,,5,7.8,8.9,10,11.1,12.2,1.1,0.8500000000000001,0.25,4.65,10,initial,36.05,281,321,361,400,440,9,9,9,9,9,,,,,,,3,0,3,0,0,22,22,36,,,,,,,,,,,,,,4,0.8383649000898004,4,0.35,0.2,7.20859,return,1.0111153000034392,,,,,,,,,,,,,,,,,p312,21,female,up_down_width,2025-11-30_17h12.56.212,exp1,2023.1.0,60.006756756374436,
,,,,,,,,,,,,,,,,4,8.35,9.45,10.55,11.65,0,1.1,0.8500000000000001,0.25,3.5500000000000003,10,initial,36.05,301,341,380,420,0,9,9,9,9,0,,,,,,,3,0,3,0,0,23,23,19,,,,,,,,,,,,,,4,0.5725931000197306,4,0.5,0.25000000000000006,9.01073,return,0.9821170999202877,,,,,,,,,,,,,,,,,p312,21,female,up_down_width,2025-11-30_17h12.56.212,exp1,2023.1.0,60.006756756374436,
,,,,,,,,,,,,,,,,3,7.8,10,12.2,0,0,2.2,1.9500000000000002,0.25,4.65,10,match,36.05,281,361,440,0,0,9,9,9,0,0,,,,,,,3,0,3,0,0,24,24,37,,,,,,,,,,,,,,4,0.6509088999591768,4,0.45,0.20000000000000007,7.20859,return,1.0714798000408337,,,,,,,,,,,,,,,,,p312,21,female,up_down_width,2025-11-30_17h12.56.212,exp1,2023.1.0,60.006756756374436,
,,,,,,,,,,,,,,,,3,8.9,10,11.1,0,0,1.1,0.8500000000000001,0.25,2.45,10,initial,36.05,321,361,400,0,0,9,9,9,0,0,,,,,,,3,0,3,0,0,25,25,2,,,,,,,,,,,,,,4,0.5842868000036106,4,0.35,0.15000000000000002,5.40644,return,0.7994623000267893,,,,,,,,,,,,,,,,,p312,21,female,up_down_width,2025-11-30_17h12.56.212,exp1,2023.1.0,60.006756756374436,
,,,,,,,,,,,,,,,,4,8.65,9.55,10.45,11.35,0,0.9,0.65,0.25,2.95,10,initial,36.05,312,344,377,409,0,9,9,9,9,0,,,,,,,3,0,3,0,0,26,26,30,,,,,,,,,,,,,,4,0.8660950999474153,4,0.25,0.15000000000000002,5.40644,return,0.7354184000287205,,,,,,,,,,,,,,,,,p312,21,female,up_down_width,2025-11-30_17h12.56.212,exp1,2023.1.0,60.006756756374436,
,,,,,,,,,,,,,,,,3,9.1,10,10.9,0,0,0.9,0.35,0.55,2.35,10,initial,36.05,328,361,393,0,0,9,9,9,0,0,,,,,,,3,0,3,0,0,27,27,11,,,,,,,,,,,,,,4,0.5106846999842674,4,0.45,0.5,18.02146,return,1.5457962000509724,,,,,,,,,,,,,,,,,p312,21,female,up_down_width,2025-11-30_17h12.56.212,exp1,2023.1.0,60.006756756374436,
,,,,,,,,,,,,,,,,3,9.1,10,10.9,0,0,0.9,0.5,0.4,2.2,10,initial,36.05,328,361,393,0,0,9,9,9,0,0,,,,,,,3,0,3,0,0,28,28,15,,,,,,,,,,,,,,3,0.5630998000269756,3,0.45,0.4,14.41717,return,0.8752615998964757,,,,,,,,,,,,,,,,,p312,21,female,up_down_width,2025-11-30_17h12.56.212,exp1,2023.1.0,60.006756756374436,
,,,,,,,,,,,,,,,,5,8.2,9.1,10,10.9,11.8,0.9,0.5,0.4,4,10,initial,36.05,296,328,361,393,425,9,9,9,9,9,,,,,,,3,0,3,0,0,29,29,50,,,,,,,,,,,,,,5,0.8342249999986961,5,0.45,0.35000000000000003,12.61502,return,0.8474144000792876,,,,,,,,,,,,,,,,,p312,21,female,up_down_width,2025-11-30_17h12.56.212,exp1,2023.1.0,60.006756756374436,
,,,,,,,,,,,,,,,,3,8.6,10,11.4,0,0,1.4,0.85,0.55,3.35,10,match,36.05,310,361,411,0,0,9,9,9,0,0,,,,,,,3,0,3,0,0,30,30,41,,,,,,,,,,,,,,4,0.4644326000707224,4,0.45,0.30000000000000004,10.81288,return,0.781189400004223,,,,,,,,,,,,,,,,,p312,21,female,up_down_width,2025-11-30_17h12.56.212,exp1,2023.1.0,60.006756756374436,
,,,,,,,,,,,,,,,,3,7.8,10,12.2,0,0,2.2,1.65,0.55,4.95,10,match,36.05,281,361,440,0,0,9,9,9,0,0,,,,,,,3,0,3,0,0,31,31,35,,,,,,,,,,,,,,4,0.5326882998924702,4,0.3,0.15000000000000002,5.40644,return,1.1350403999676928,,,,,,,,,,,,,,,,,p312,21,female,up_down_width,2025-11-30_17h12.56.212,exp1,2023.1.0,60.006756756374436,
,,,,,,,,,,,,,,,,5,7.8,8.9,10,11.1,12.2,1.1,0.7000000000000001,0.4,4.800000000000001,10,initial,36.05,281,321,361,400,440,9,9,9,9,9,,,,,,,3,0,3,0,0,32,32,38,,,,,,,,,,,,,,5,0.8938610999612138,5,0.2,0.3,10.81288,return,0.8740554999094456,,,,,,,,,,,,,,,,,p312,21,female,up_down_width,2025-11-30_17h12.56.212,exp1,2023.1.0,60.006756756374436,
,,,,,,,,,,,,,,,,3,7.800000000000001,10,12.2,0,0,2.1999999999999997,1.7999999999999998,0.4,4.8,10,match,36.05,281,361,440,0,0,9,9,9,0,0,,,,,,,3,0,3,0,0,33,33,39,,,,,,,,,,,,,,3,0.6438520998926833,3,0.3,0.35,12.61502,return,0.9529401999898255,,,,,,,,,,,,,,,,,p312,21,female,up_down_width,2025-11-30_17h12.56.212,exp1,2023.1.0,60.006756756374436,
,,,,,,,,,,,,,,,,4,9.1,9.7,10.3,10.9,0,0.6,0.04999999999999997,0.55,2.35,10,match,36.05,328,350,371,393,0,9,9,9,9,0,,,,,,,3,0,3,0,0,34,34,12,,,,,,,,,,,,,,4,0.84220740001183,4,0.4,0.6000000000000001,21.62576,return,1.2226154999807477,,,,,,,,,,,,,,,,,p312,21,female,up_down_width,2025-11-30_17h12.56.212,exp1,2023.1.0,60.006756756374436,
,,,,,,,,,,,,,,,,4,8.9,9.633333333333333,10.366666666666667,11.1,0,0.7333333333333334,0.4833333333333334,0.25,2.45,10,match,36.05,321,347,374,400,0,9,9,9,9,0,,,,,,,3,0,3,0,0,35,35,3,,,,,,,,,,,,,,5,0.6593284000409767,5,0.35,0.25,9.01073,return,1.3675773000577465,,,,,,,,,,,,,,,,,p312,21,female,up_down_width,2025-11-30_17h12.56.212,exp1,2023.1.0,60.006756756374436,
,,,,,,,,,,,,,,,,4,8.65,9.55,10.45,11.35,0,0.9,0.5,0.4,3.1,10,initial,36.05,312,344,377,409,0,9,9,9,9,0,,,,,,,3,0,3,0,0,36,36,32,,,,,,,,,,,,,,4,0.6852440000511706,4,0.4,0.30000000000000004,10.81288,return,0.7374933999963105,,,,,,,,,,,,,,,,,p312,21,female,up_down_width,2025-11-30_17h12.56.212,exp1,2023.1.0,60.006756756374436,
,,,,,,,,,,,,,,,,4,8.35,9.45,10.55,11.65,0,1.1,0.7000000000000001,0.4,3.7,10,initial,36.05,301,341,380,420,0,9,9,9,9,0,,,,,,,3,0,3,0,0,37,37,21,,,,,,,,,,,,,,4,0.9806664000498131,4,0.5,0.35000000000000003,12.61502,return,0.9086733000585809,,,,,,,,,,,,,,,,,p312,21,female,up_down_width,2025-11-30_17h12.56.212,exp1,2023.1.0,60.006756756374436,
,,,,,,,,,,,,,,,,5,8.6,9.3,10,10.7,11.4,0.7,0.1499999999999999,0.55,3.3499999999999996,10,initial,36.05,310,335,361,386,411,9,9,9,9,9,,,,,,,3,0,3,0,0,38,38,40,,,,,,,,,,,,,,5,0.4633471999550238,5,0.3,0.2,7.20859,return,0.6992974999593571,,,,,,,,,,,,,,,,,p312,21,female,up_down_width,2025-11-30_17h12.56.212,exp1,2023.1.0,60.006756756374436,
,,,,,,,,,,,,,,,,3,9.3,10,10.7,0,0,0.7,0.1499999999999999,0.55,1.95,10,initial,36.05,335,361,386,0,0,9,9,9,0,0,,,,,,,3,0,3,0,0,39,39,6,,,,,,,,,,,,,,3,0.6175491000758484,3,0.55,0.5,18.02146,return,1.7747921000700444,,,,,,,,,,,,,,,,,p312,21,female,up_down_width,2025-11-30_17h12.56.212,exp1,2023.1.0,60.006756756374436,
,,,,,,,,,,,,,,,,5,8.35,9.175,10,10.825,11.65,0.825,0.575,0.25,3.55,10,match,36.05,301,331,361,390,420,9,9,9,9,9,,,,,,,3,0,3,0,0,40,40,20,,,,,,,,,,,,,,5,0.6303752999519929,5,0.4,0.25000000000000006,9.01073,return,1.5632110000588,,,,,,,,,,,,,,,,,p312,21,female,up_down_width,2025-11-30_17h12.56.212,exp1,2023.1.0,60.006756756374436,
,,,,,,,,,,,,,,,,5,8.35,9.175,10,10.825,11.65,0.8250000000000001,0.275,0.55,3.85,10,match,36.05,301,331,361,390,420,9,9,9,9,9,,,,,,,3,0,3,0,0,41,41,18,,,,,,,,,,,,,,4,0.6285264999605715,4,0.55,0.35000000000000003,12.61502,return,0.8741399999707937,,,,,,,,,,,,,,,,,p312,21,female,up_down_width,2025-11-30_17h12.56.212,exp1,2023.1.0,60.006756756374436,
,,,,,,,,,,,,,,,,4,9.3,9.766666666666667,10.233333333333333,10.7,0,0.4666666666666667,0.06666666666666665,0.4,1.8,10,match,36.05,335,352,369,386,0,9,9,9,9,0,,,,,,,3,0,3,0,0,42,42,10,,,,,,,,,,,,,,4,0.5574012000579387,4,0.45,0.35000000000000003,12.61502,return,0.8220907000359148,,,,,,,,,,,,,,,,,p312,21,female,up_down_width,2025-11-30_17h12.56.212,exp1,2023.1.0,60.006756756374436,
,,,,,,,,,,,,,,,,5,8.6,9.3,10,10.7,11.4,0.7,0.44999999999999996,0.25,3.05,10,initial,36.05,310,335,361,386,411,9,9,9,9,9,,,,,,,3,0,3,0,0,43,43,42,,,,,,,,,,,,,,4,0.6312294999370351,4,0.25,0.2,7.20859,return,0.6215400999644771,,,,,,,,,,,,,,,,,p312,21,female,up_down_width,2025-11-30_17h12.56.212,exp1,2023.1.0,60.006756756374436,
,,,,,,,,,,,,,,,,4,8.9,9.633333333333333,10.366666666666667,11.1,0,0.7333333333333333,0.18333333333333326,0.55,2.75,10,match,36.05,321,347,374,400,0,9,9,9,9,0,,,,,,,3,0,3,0,0,44,44,1,,,,,,,,,,,,,,3,0.6666987000498921,3,0.2,0.49999999999999994,18.02146,return,1.5359677999513224,,,,,,,,,,,,,,,,,p312,21,female,up_down_width,2025-11-30_17h12.56.212,exp1,2023.1.0,60.006756756374436,
,,,,,,,,,,,,,,,,4,8.95,9.65,10.35,11.05,0,0.7,0.1499999999999999,0.55,2.65,10,initial,36.05,323,348,373,398,0,9,9,9,9,0,,,,,,,3,0,3,0,0,45,45,23,,,,,,,,,,,,,,3,0.8824112999718636,3,0.2,0.39999999999999997,14.41717,return,1.0229804000118747,,,,,,,,,,,,,,,,,p312,21,female,up_down_width,2025-11-30_17h12.56.212,exp1,2023.1.0,60.006756756374436,
,,,,,,,,,,,,,,,,5,8.275,9.1375,10,10.8625,11.725,0.8625,0.6125,0.25,3.7,10,match,36.05,298,329,361,392,423,9,9,9,9,9,,,,,,,3,0,3,0,0,46,46,22,,,,,,,,,,,,,,5,0.6589210000820458,5,0.4,0.30000000000000004,10.81288,return,2.6643497000914067,,,,,,,,,,,,,,,,,p312,21,female,up_down_width,2025-11-30_17h12.56.212,exp1,2023.1.0,60.006756756374436,
,,,,,,,,,,,,,,,,3,9.1,10,10.9,0,0,0.9,0.65,0.25,2.05,10,initial,36.05,328,361,393,0,0,9,9,9,0,0,,,,,,,3,0,3,0,0,47,47,13,,,,,,,,,,,,,,3,0.7517773000290617,3,0.35,0.25,9.01073,return,1.0250955000519753,,,,,,,,,,,,,,,,,p312,21,female,up_down_width,2025-11-30_17h12.56.212,exp1,2023.1.0,60.006756756374436,
,,,,,,,,,,,,,,,,3,8.6,10,11.4,0,0,1.4,1.15,0.25,3.05,10,match,36.05,310,361,411,0,0,9,9,9,0,0,,,,,,,3,0,3,0,0,48,48,43,,,,,,,,,,,,,,3,1.0254723998950794,3,0.3,0.25,9.01073,return,0.8699457000475377,,,,,,,,,,,,,,,,,p312,21,female,up_down_width,2025-11-30_17h12.56.212,exp1,2023.1.0,60.006756756374436,
,,,,,,,,,,,,,,,,3,8.2,10,11.8,0,0,1.7999999999999998,1.4,0.4,4,10,match,36.05,296,361,425,0,0,9,9,9,0,0,,,,,,,3,0,3,0,0,49,49,51,,,,,,,,,,,,,,3,0.7412892999127507,3,0.45,0.35000000000000003,12.61502,return,0.7749717000406235,,,,,,,,,,,,,,,,,p312,21,female,up_down_width,2025-11-30_17h12.56.212,exp1,2023.1.0,60.006756756374436,
,,,,,,,,,,,,,,,,5,8.2,9.1,10,10.9,11.8,0.9,0.35,0.55,4.15,10,initial,36.05,296,328,361,393,425,9,9,9,9,9,,,,,,,3,0,3,0,0,50,50,46,,,,,,,,,,,,,,5,1.162172400043346,5,0.45,0.45,16.21932,return,0.8911002000095323,,,,,,,,,,,,,,,,,p312,21,female,up_down_width,2025-11-30_17h12.56.212,exp1,2023.1.0,60.006756756374436,
,,,,,,,,,,,,,,,,3,8.2,10,11.8,0,0,1.8,1.25,0.55,4.15,10,match,36.05,296,361,425,0,0,9,9,9,0,0,,,,,,,3,0,3,0,0,51,51,47,,,,,,,,,,,,,,3,0.7779659999068826,3,0.45,0.4,14.41717,return,0.8107253999914974,,,,,,,,,,,,,,,,,p312,21,female,up_down_width,2025-11-30_17h12.56.212,exp1,2023.1.0,60.006756756374436,
,,,,,,,,,,,,,,,,,,,,,,,,,,,,,,,,,,,,,,,,,,,,,3,0,3,0,,,,,,,,,,,,,,,,,,,,,,,,,,,,1385.9827177999541,1385.9827177999541,1385.9827177999541,,,,,,,,,,,,p312,21,female,up_down_width,2025-11-30_17h12.56.212,exp1,2023.1.0,60.006756756374436,
,,,,,,,,,,,,,,,,3,8.2,10,11.8,0,0,1.7999999999999998,1.4,0.4,4,10,match,36.05,296,361,425,0,0,9,9,9,0,0,,,,,,,4,0,4,0,0,0,0,51,,,,,,,,,,,,,,3,0.8441731999628246,3,0.25,0.3,10.81288,return,1.018525000079535,,,,,,,,,,,,,,,,,p312,21,female,up_down_width,2025-11-30_17h12.56.212,exp1,2023.1.0,60.006756756374436,
,,,,,,,,,,,,,,,,4,8.95,9.65,10.35,11.05,0,0.7,0.44999999999999996,0.25,2.3499999999999996,10,initial,36.05,323,348,373,398,0,9,9,9,9,0,,,,,,,4,0,4,0,0,1,1,24,,,,,,,,,,,,,,3,1.1433913999935612,3,0.5,0.45,16.21932,return,0.9846067000180483,,,,,,,,,,,,,,,,,p312,21,female,up_down_width,2025-11-30_17h12.56.212,exp1,2023.1.0,60.006756756374436,
,,,,,,,,,,,,,,,,4,8.9,9.633333333333333,10.366666666666667,11.1,0,0.7333333333333334,0.4833333333333334,0.25,2.45,10,match,36.05,321,347,374,400,0,9,9,9,9,0,,,,,,,4,0,4,0,0,2,2,3,,,,,,,,,,,,,,4,0.7714587999507785,4,0.45,0.30000000000000004,10.81288,return,0.9312132999766618,,,,,,,,,,,,,,,,,p312,21,female,up_down_width,2025-11-30_17h12.56.212,exp1,2023.1.0,60.006756756374436,
,,,,,,,,,,,,,,,,4,8.825,9.608333333333333,10.391666666666667,11.175,0,0.7833333333333333,0.5333333333333333,0.25,2.6,10,match,36.05,318,346,375,403,0,9,9,9,9,0,,,,,,,4,0,4,0,0,3,3,5,,,,,,,,,,,,,,4,0.5498283000197262,4,0.45,0.30000000000000004,10.81288,return,1.2942395999561995,,,,,,,,,,,,,,,,,p312,21,female,up_down_width,2025-11-30_17h12.56.212,exp1,2023.1.0,60.006756756374436,
,,,,,,,,,,,,,,,,4,8.35,9.45,10.55,11.65,0,1.1,0.55,0.55,3.8500000000000005,10,initial,36.05,301,341,380,420,0,9,9,9,9,0,,,,,,,4,0,4,0,0,4,4,17,,,,,,,,,,,,,,4,0.9621906001120806,4,0.55,0.45,16.21932,return,0.7466278000501916,,,,,,,,,,,,,,,,,p312,21,female,up_down_width,2025-11-30_17h12.56.212,exp1,2023.1.0,60.006756756374436,
,,,,,,,,,,,,,,,,3,9.1,10,10.9,0,0,0.9,0.65,0.25,2.05,10,initial,36.05,328,361,393,0,0,9,9,9,0,0,,,,,,,4,0,4,0,0,5,5,13,,,,,,,,,,,,,,3,0.5329060999210924,3,0.5,0.25000000000000006,9.01073,return,1.1186752000357956,,,,,,,,,,,,,,,,,p312,21,female,up_down_width,2025-11-30_17h12.56.212,exp1,2023.1.0,60.006756756374436,
,,,,,,,,,,,,,,,,3,9.3,10,10.7,0,0,0.7,0.1499999999999999,0.55,1.95,10,initial,36.05,335,361,386,0,0,9,9,9,0,0,,,,,,,4,0,4,0,0,6,6,6,,,,,,,,,,,,,,3,0.7992028000298887,3,0.45,0.55,19.82361,return,1.455518800066784,,,,,,,,,,,,,,,,,p312,21,female,up_down_width,2025-11-30_17h12.56.212,exp1,2023.1.0,60.006756756374436,
,,,,,,,,,,,,,,,,4,8.65,9.55,10.45,11.35,0,0.9,0.65,0.25,2.95,10,initial,36.05,312,344,377,409,0,9,9,9,9,0,,,,,,,4,0,4,0,0,7,7,30,,,,,,,,,,,,,,4,0.8016224000602961,4,0.3,0.35,12.61502,return,1.1208471999270841,,,,,,,,,,,,,,,,,p312,21,female,up_down_width,2025-11-30_17h12.56.212,exp1,2023.1.0,60.006756756374436,
,,,,,,,,,,,,,,,,3,8.525,10,11.475,0,0,1.475,1.225,0.25,3.2,10,match,36.05,307,361,414,0,0,9,9,9,0,0,,,,,,,4,0,4,0,0,8,8,45,,,,,,,,,,,,,,3,0.5963284000754356,3,0.4,0.25000000000000006,9.01073,return,1.1643104999093339,,,,,,,,,,,,,,,,,p312,21,female,up_down_width,2025-11-30_17h12.56.212,exp1,2023.1.0,60.006756756374436,
,,,,,,,,,,,,,,,,3,7.800000000000001,10,12.2,0,0,2.1999999999999997,1.7999999999999998,0.4,4.8,10,match,36.05,281,361,440,0,0,9,9,9,0,0,,,,,,,4,0,4,0,0,9,9,39,,,,,,,,,,,,,,3,0.5066707000369206,3,0.5,0.15000000000000008,5.40644,return,1.1573280000593513,,,,,,,,,,,,,,,,,p312,21,female,up_down_width,2025-11-30_17h12.56.212,exp1,2023.1.0,60.006756756374436,
,,,,,,,,,,,,,,,,4,9.3,9.766666666666667,10.233333333333333,10.7,0,0.4666666666666667,0.06666666666666665,0.4,1.8,10,match,36.05,335,352,369,386,0,9,9,9,9,0,,,,,,,4,0,4,0,0,10,10,10,,,,,,,,,,,,,,4,0.6079804000910372,4,0.2,0.44999999999999996,16.21932,return,1.0300473000388592,,,,,,,,,,,,,,,,,p312,21,female,up_down_width,2025-11-30_17h12.56.212,exp1,2023.1.0,60.006756756374436,
,,,,,,,,,,,,,,,,3,9.3,10,10.7,0,0,0.7,0.44999999999999996,0.25,1.65,10,initial,36.05,335,361,386,0,0,9,9,9,0,0,,,,,,,4,0,4,0,0,11,11,7,,,,,,,,,,,,,,4,1.0338514000177383,4,0.45,0.35000000000000003,12.61502,return,0.975345499929972,,,,,,,,,,,,,,,,,p312,21,female,up_down_width,2025-11-30_17h12.56.212,exp1,2023.1.0,60.006756756374436,
,,,,,,,,,,,,,,,,4,8.95,9.65,10.35,11.05,0,0.7,0.1499999999999999,0.55,2.65,10,initial,36.05,323,348,373,398,0,9,9,9,9,0,,,,,,,4,0,4,0,0,12,12,23,,,,,,,,,,,,,,4,0.8535610000835732,4,0.3,0.49999999999999994,18.02146,return,1.0262159999692813,,,,,,,,,,,,,,,,,p312,21,female,up_down_width,2025-11-30_17h12.56.212,exp1,2023.1.0,60.006756756374436,
,,,,,,,,,,,,,,,,3,8.6,10,11.4,0,0,1.4,1.15,0.25,3.05,10,match,36.05,310,361,411,0,0,9,9,9,0,0,,,,,,,4,0,4,0,0,13,13,43,,,,,,,,,,,,,,3,0.5379017000086606,3,0.5,0.4,14.41717,return,0.9959955000085756,,,,,,,,,,,,,,,,,p312,21,female,up_down_width,2025-11-30_17h12.56.212,exp1,2023.1.0,60.006756756374436,
,,,,,,,,,,,,,,,,4,9.3,9.766666666666667,10.233333333333333,10.7,0,0.4666666666666667,0.21666666666666665,0.25,1.65,10,match,36.05,335,352,369,386,0,9,9,9,9,0,,,,,,,4,0,4,0,0,14,14,8,,,,,,,,,,,,,,4,0.6714874999597669,4,0.25,0.25,9.01073,return,0.9627015999285504,,,,,,,,,,,,,,,,,p312,21,female,up_down_width,2025-11-30_17h12.56.212,exp1,2023.1.0,60.006756756374436,
,,,,,,,,,,,,,,,,5,8.2,9.1,10,10.9,11.8,0.9,0.65,0.25,3.85,10,initial,36.05,296,328,361,393,425,9,9,9,9,9,,,,,,,4,0,4,0,0,15,15,48,,,,,,,,,,,,,,4,0.8058936999877915,4,0.55,0.30000000000000004,10.81288,return,1.3327842000871897,,,,,,,,,,,,,,,,,p312,21,female,up_down_width,2025-11-30_17h12.56.212,exp1,2023.1.0,60.006756756374436,
,,,,,,,,,,,,,,,,5,7.8,8.9,10,11.1,12.2,1.1,0.8500000000000001,0.25,4.65,10,initial,36.05,281,321,361,400,440,9,9,9,9,9,,,,,,,4,0,4,0,0,16,16,36,,,,,,,,,,,,,,5,0.7161982000106946,5,0.55,0.25000000000000006,9.01073,return,1.5024449999909848,,,,,,,,,,,,,,,,,p312,21,female,up_down_width,2025-11-30_17h12.56.212,exp1,2023.1.0,60.006756756374436,
,,,,,,,,,,,,,,,,4,8.65,9.55,10.45,11.35,0,0.9,0.5,0.4,3.1,10,initial,36.05,312,344,377,409,0,9,9,9,9,0,,,,,,,4,0,4,0,0,17,17,32,,,,,,,,,,,,,,4,0.5598810999654233,4,0.5,0.25000000000000006,9.01073,return,1.081029299995862,,,,,,,,,,,,,,,,,p312,21,female,up_down_width,2025-11-30_17h12.56.212,exp1,2023.1.0,60.006756756374436,
,,,,,,,,,,,,,,,,4,8.35,9.45,10.55,11.65,0,1.1,0.8500000000000001,0.25,3.5500000000000003,10,initial,36.05,301,341,380,420,0,9,9,9,9,0,,,,,,,4,0,4,0,0,18,18,19,,,,,,,,,,,,,,4,0.7088761000195518,4,0.25,0.25,9.01073,return,0.7752815999556333,,,,,,,,,,,,,,,,,p312,21,female,up_down_width,2025-11-30_17h12.56.212,exp1,2023.1.0,60.006756756374436,
,,,,,,,,,,,,,,,,5,8.6,9.3,10,10.7,11.4,0.7,0.44999999999999996,0.25,3.05,10,initial,36.05,310,335,361,386,411,9,9,9,9,9,,,,,,,4,0,4,0,0,19,19,42,,,,,,,,,,,,,,5,0.6609175000339746,5,0.4,0.20000000000000007,7.20859,return,0.8102858999045566,,,,,,,,,,,,,,,,,p312,21,female,up_down_width,2025-11-30_17h12.56.212,exp1,2023.1.0,60.006756756374436,
,,,,,,,,,,,,,,,,5,8.2,9.1,10,10.9,11.8,0.9,0.35,0.55,4.15,10,initial,36.05,296,328,361,393,425,9,9,9,9,9,,,,,,,4,0,4,0,0,20,20,46,,,,,,,,,,,,,,5,0.6613999999826774,5,0.4,0.25000000000000006,9.01073,return,0.7152047998970374,,,,,,,,,,,,,,,,,p312,21,female,up_down_width,2025-11-30_17h12.56.212,exp1,2023.1.0,60.006756756374436,
,,,,,,,,,,,,,,,,5,7.8,8.9,10,11.1,12.2,1.1,0.55,0.55,4.95,10,initial,36.05,281,321,361,400,440,9,9,9,9,9,,,,,,,4,0,4,0,0,21,21,34,,,,,,,,,,,,,,5,0.6142004999564961,5,0.25,0.15000000000000002,5.40644,return,0.5082768000429496,,,,,,,,,,,,,,,,,p312,21,female,up_down_width,2025-11-30_17h12.56.212,exp1,2023.1.0,60.006756756374436,
,,,,,,,,,,,,,,,,3,8.9,10,11.1,0,0,1.1,0.55,0.55,2.75,10,initial,36.05,321,361,400,0,0,9,9,9,0,0,,,,,,,4,0,4,0,0,22,22,0,,,,,,,,,,,,,,3,0.4910756000317633,3,0.4,0.35000000000000003,12.61502,return,0.9493875000625849,,,,,,,,,,,,,,,,,p312,21,female,up_down_width,2025-11-30_17h12.56.212,exp1,2023.1.0,60.006756756374436,
,,,,,,,,,,,,,,,,3,9.1,10,10.9,0,0,0.9,0.5,0.4,2.2,10,initial,36.05,328,361,393,0,0,9,9,9,0,0,,,,,,,4,0,4,0,0,23,23,15,,,,,,,,,,,,,,4,0.7014383000787348,4,0.25,0.25,9.01073,return,0.880231500021182,,,,,,,,,,,,,,,,,p312,21,female,up_down_width,2025-11-30_17h12.56.212,exp1,2023.1.0,60.006756756374436,
,,,,,,,,,,,,,,,,3,7.8,10,12.2,0,0,2.2,1.9500000000000002,0.25,4.65,10,match,36.05,281,361,440,0,0,9,9,9,0,0,,,,,,,4,0,4,0,0,24,24,37,,,,,,,,,,,,,,3,1.3708479999331757,3,0.55,0.25000000000000006,9.01073,return,2.4986722000176087,,,,,,,,,,,,,,,,,p312,21,female,up_down_width,2025-11-30_17h12.56.212,exp1,2023.1.0,60.006756756374436,
,,,,,,,,,,,,,,,,3,7.8,10,12.2,0,0,2.2,1.65,0.55,4.95,10,match,36.05,281,361,440,0,0,9,9,9,0,0,,,,,,,4,0,4,0,0,25,25,35,,,,,,,,,,,,,,3,0.7744532000506297,3,0.5,0.5,18.02146,return,1.0927368000848219,,,,,,,,,,,,,,,,,p312,21,female,up_down_width,2025-11-30_17h12.56.212,exp1,2023.1.0,60.006756756374436,
,,,,,,,,,,,,,,,,5,7.8,8.9,10,11.1,12.2,1.1,0.7000000000000001,0.4,4.800000000000001,10,initial,36.05,281,321,361,400,440,9,9,9,9,9,,,,,,,4,0,4,0,0,26,26,38,,,,,,,,,,,,,,5,0.5608811998972669,5,0.25,0.3,10.81288,return,0.9370653000660241,,,,,,,,,,,,,,,,,p312,21,female,up_down_width,2025-11-30_17h12.56.212,exp1,2023.1.0,60.006756756374436,
,,,,,,,,,,,,,,,,4,9.1,9.7,10.3,10.9,0,0.5999999999999999,0.3499999999999999,0.25,2.05,10,match,36.05,328,350,371,393,0,9,9,9,9,0,,,,,,,4,0,4,0,0,27,27,14,,,,,,,,,,,,,,3,0.5813462000805885,3,0.5,0.30000000000000004,10.81288,return,1.0682290999684483,,,,,,,,,,,,,,,,,p312,21,female,up_down_width,2025-11-30_17h12.56.212,exp1,2023.1.0,60.006756756374436,
,,,,,,,,,,,,,,,,4,8.65,9.55,10.45,11.35,0,0.9,0.35,0.55,3.25,10,initial,36.05,312,344,377,409,0,9,9,9,9,0,,,,,,,4,0,4,0,0,28,28,28,,,,,,,,,,,,,,4,0.6641024999553338,4,0.55,0.4,14.41717,return,0.7183098000241444,,,,,,,,,,,,,,,,,p312,21,female,up_down_width,2025-11-30_17h12.56.212,exp1,2023.1.0,60.006756756374436,
,,,,,,,,,,,,,,,,5,8.35,9.175,10,10.825,11.65,0.8250000000000001,0.275,0.55,3.85,10,match,36.05,301,331,361,390,420,9,9,9,9,9,,,,,,,4,0,4,0,0,29,29,18,,,,,,,,,,,,,,5,0.7658518999814987,5,0.2,0.3,10.81288,return,1.135058099986054,,,,,,,,,,,,,,,,,p312,21,female,up_down_width,2025-11-30_17h12.56.212,exp1,2023.1.0,60.006756756374436,
,,,,,,,,,,,,,,,,4,8.95,9.65,10.35,11.05,0,0.7,0.29999999999999993,0.4,2.5,10,initial,36.05,323,348,373,398,0,9,9,9,9,0,,,,,,,4,0,4,0,0,30,30,26,,,,,,,,,,,,,,5,0.7881750999949872,5,0.45,0.35000000000000003,12.61502,return,0.8986511999974027,,,,,,,,,,,,,,,,,p312,21,female,up_down_width,2025-11-30_17h12.56.212,exp1,2023.1.0,60.006756756374436,
,,,,,,,,,,,,,,,,5,8.65,9.325,10,10.675,11.35,0.675,0.275,0.4,3.1,10,match,36.05,312,336,361,385,409,9,9,9,9,9,,,,,,,4,0,4,0,0,31,31,33,,,,,,,,,,,,,,4,0.8016084999544546,4,0.35,0.35,12.61502,return,0.7530064999591559,,,,,,,,,,,,,,,,,p312,21,female,up_down_width,2025-11-30_17h12.56.212,exp1,2023.1.0,60.006756756374436,
,,,,,,,,,,,,,,,,4,9.1,9.7,10.3,10.9,0,0.6,0.04999999999999997,0.55,2.35,10,match,36.05,328,350,371,393,0,9,9,9,9,0,,,,,,,4,0,4,0,0,32,32,12,,,,,,,,,,,,,,4,1.0747447999892756,4,0.45,0.6500000000000001,23.4279,return,1.1909113998990506,,,,,,,,,,,,,,,,,p312,21,female,up_down_width,2025-11-30_17h12.56.212,exp1,2023.1.0,60.006756756374436,
,,,,,,,,,,,,,,,,3,9.3,10,10.7,0,0,0.7,0.29999999999999993,0.4,1.8,10,initial,36.05,335,361,386,0,0,9,9,9,0,0,,,,,,,4,0,4,0,0,33,33,9,,,,,,,,,,,,,,3,0.6166850998997688,3,0.35,0.39999999999999997,14.41717,return,0.7199078999692574,,,,,,,,,,,,,,,,,p312,21,female,up_down_width,2025-11-30_17h12.56.212,exp1,2023.1.0,60.006756756374436,
,,,,,,,,,,,,,,,,3,9.1,10,10.9,0,0,0.9,0.35,0.55,2.35,10,initial,36.05,328,361,393,0,0,9,9,9,0,0,,,,,,,4,0,4,0,0,34,34,11,,,,,,,,,,,,,,3,0.5857219999888912,3,0.2,0.39999999999999997,14.41717,return,1.0409168000333011,,,,,,,,,,,,,,,,,p312,21,female,up_down_width,2025-11-30_17h12.56.212,exp1,2023.1.0,60.006756756374436,
,,,,,,,,,,,,,,,,5,8.65,9.325,10,10.675,11.35,0.675,0.125,0.55,3.25,10,match,36.05,312,336,361,385,409,9,9,9,9,9,,,,,,,4,0,4,0,0,35,35,29,,,,,,,,,,,,,,4,0.6534884000429884,4,0.45,0.5,18.02146,return,0.5955019999528304,,,,,,,,,,,,,,,,,p312,21,female,up_down_width,2025-11-30_17h12.56.212,exp1,2023.1.0,60.006756756374436,
,,,,,,,,,,,,,,,,3,8.9,10,11.1,0,0,1.1,0.8500000000000001,0.25,2.45,10,initial,36.05,321,361,400,0,0,9,9,9,0,0,,,,,,,4,0,4,0,0,36,36,2,,,,,,,,,,,,,,3,0.5775167999090627,3,0.55,0.45,16.21932,return,1.0178580000065267,,,,,,,,,,,,,,,,,p312,21,female,up_down_width,2025-11-30_17h12.56.212,exp1,2023.1.0,60.006756756374436,
,,,,,,,,,,,,,,,,5,8.2,9.1,10,10.9,11.8,0.9,0.5,0.4,4,10,initial,36.05,296,328,361,393,425,9,9,9,9,9,,,,,,,4,0,4,0,0,37,37,50,,,,,,,,,,,,,,5,0.8255091999890283,5,0.35,0.3,10.81288,return,0.6310473999474198,,,,,,,,,,,,,,,,,p312,21,female,up_down_width,2025-11-30_17h12.56.212,exp1,2023.1.0,60.006756756374436,
,,,,,,,,,,,,,,,,5,8.65,9.325,10,10.675,11.35,0.675,0.42500000000000004,0.25,2.95,10,match,36.05,312,336,361,385,409,9,9,9,9,9,,,,,,,4,0,4,0,0,38,38,31,,,,,,,,,,,,,,5,0.9321535000344738,5,0.5,0.25000000000000006,9.01073,return,1.1829615000169724,,,,,,,,,,,,,,,,,p312,21,female,up_down_width,2025-11-30_17h12.56.212,exp1,2023.1.0,60.006756756374436,
,,,,,,,,,,,,,,,,5,8.35,9.175,10,10.825,11.65,0.825,0.575,0.25,3.55,10,match,36.05,301,331,361,390,420,9,9,9,9,9,,,,,,,4,0,4,0,0,39,39,20,,,,,,,,,,,,,,5,0.6782053000060841,5,0.2,0.15000000000000002,5.40644,return,0.49090350000187755,,,,,,,,,,,,,,,,,p312,21,female,up_down_width,2025-11-30_17h12.56.212,exp1,2023.1.0,60.006756756374436,
,,,,,,,,,,,,,,,,5,8.6,9.3,10,10.7,11.4,0.7,0.1499999999999999,0.55,3.3499999999999996,10,initial,36.05,310,335,361,386,411,9,9,9,9,9,,,,,,,4,0,4,0,0,40,40,40,,,,,,,,,,,,,,3,0.5108255000086501,3,0.4,0.55,19.82361,return,1.2735815000487491,,,,,,,,,,,,,,,,,p312,21,female,up_down_width,2025-11-30_17h12.56.212,exp1,2023.1.0,60.006756756374436,
,,,,,,,,,,,,,,,,3,8.6,10,11.4,0,0,1.4,0.85,0.55,3.35,10,match,36.05,310,361,411,0,0,9,9,9,0,0,,,,,,,4,0,4,0,0,41,41,41,,,,,,,,,,,,,,5,0.06286069995258003,5,0.2,0.44999999999999996,16.21932,return,0.2557074000360444,,,,,,,,,,,,,,,,,p312,21,female,up_down_width,2025-11-30_17h12.56.212,exp1,2023.1.0,60.006756756374436,
,,,,,,,,,,,,,,,,4,8.9,9.633333333333333,10.366666666666667,11.1,0,0.7333333333333333,0.18333333333333326,0.55,2.75,10,match,36.05,321,347,374,400,0,9,9,9,9,0,,,,,,,4,0,4,0,0,42,42,1,,,,,,,,,,,,,,5,0.00380019994918257,5,0.25,0.39999999999999997,14.41717,return,0.052763600018806756,,,,,,,,,,,,,,,,,p312,21,female,up_down_width,2025-11-30_17h12.56.212,exp1,2023.1.0,60.006756756374436,
,,,,,,,,,,,,,,,,3,8.9,10,11.1,0,0,1.1,0.7000000000000001,0.4,2.6000000000000005,10,initial,36.05,321,361,400,0,0,9,9,9,0,0,,,,,,,4,0,4,0,0,43,43,4,,,,,,,,,,,,,,5,None,5,0.55,0.7000000000000002,25.23005,return,0.13170839997474104,,,,,,,,,,,,,,,,,p312,21,female,up_down_width,2025-11-30_17h12.56.212,exp1,2023.1.0,60.006756756374436,
,,,,,,,,,,,,,,,,5,8.95,9.475,10,10.525,11.05,0.525,0.275,0.25,2.35,10,match,36.05,323,342,361,379,398,9,9,9,9,9,,,,,,,4,0,4,0,0,44,44,25,,,,,,,,,,,,,,3,0.41902330005541444,3,0.25,0.05,1.80215,return,0.3520604999503121,,,,,,,,,,,,,,,,,p312,21,female,up_down_width,2025-11-30_17h12.56.212,exp1,2023.1.0,60.006756756374436,
,,,,,,,,,,,,,,,,4,8.35,9.45,10.55,11.65,0,1.1,0.7000000000000001,0.4,3.7,10,initial,36.05,301,341,380,420,0,9,9,9,9,0,,,,,,,4,0,4,0,0,45,45,21,,,,,,,,,,,,,,5,0.34610730002168566,5,0.5,0.5,18.02146,return,0.04295719997026026,,,,,,,,,,,,,,,,,p312,21,female,up_down_width,2025-11-30_17h12.56.212,exp1,2023.1.0,60.006756756374436,
,,,,,,,,,,,,,,,,3,8.2,10,11.8,0,0,1.8,1.55,0.25,3.85,10,match,36.05,296,361,425,0,0,9,9,9,0,0,,,,,,,4,0,4,0,0,46,46,49,,,,,,,,,,,,,,5,0.028334999922662973,5,0.5,0.6000000000000001,21.62576,return,0.11960670002736151,,,,,,,,,,,,,,,,,p312,21,female,up_down_width,2025-11-30_17h12.56.212,exp1,2023.1.0,60.006756756374436,
,,,,,,,,,,,,,,,,3,8.2,10,11.8,0,0,1.8,1.25,0.55,4.15,10,match,36.05,296,361,425,0,0,9,9,9,0,0,,,,,,,4,0,4,0,0,47,47,47,,,,,,,,,,,,,,5,0.05221520003397018,5,0.45,0.20000000000000007,7.20859,return,0.20948940003290772,,,,,,,,,,,,,,,,,p312,21,female,up_down_width,2025-11-30_17h12.56.212,exp1,2023.1.0,60.006756756374436,
,,,,,,,,,,,,,,,,5,8.95,9.475,10,10.525,11.05,0.525,0.125,0.4,2.5,10,match,36.05,323,342,361,379,398,9,9,9,9,9,,,,,,,4,0,4,0,0,48,48,27,,,,,,,,,,,,,,4,0.14917769993189722,4,0.55,0.20000000000000007,7.20859,return,0.1745775000890717,,,,,,,,,,,,,,,,,p312,21,female,up_down_width,2025-11-30_17h12.56.212,exp1,2023.1.0,60.006756756374436,
,,,,,,,,,,,,,,,,5,8.6,9.3,10,10.7,11.4,0.7,0.29999999999999993,0.4,3.1999999999999997,10,initial,36.05,310,335,361,386,411,9,9,9,9,9,,,,,,,4,0,4,0,0,49,49,44,,,,,,,,,,,,,,4,0.018578700022771955,4,0.55,0.7000000000000002,25.23005,return,0.12910729995928705,,,,,,,,,,,,,,,,,p312,21,female,up_down_width,2025-11-30_17h12.56.212,exp1,2023.1.0,60.006756756374436,
,,,,,,,,,,,,,,,,5,8.275,9.1375,10,10.8625,11.725,0.8625,0.6125,0.25,3.7,10,match,36.05,298,329,361,392,423,9,9,9,9,9,,,,,,,4,0,4,0,0,50,50,22,,,,,,,,,,,,,,5,0.23443320009391755,5,0.5,0.35000000000000003,12.61502,return,0.5262305999640375,,,,,,,,,,,,,,,,,p312,21,female,up_down_width,2025-11-30_17h12.56.212,exp1,2023.1.0,60.006756756374436,
,,,,,,,,,,,,,,,,4,9.1,9.7,10.3,10.9,0,0.6000000000000001,0.20000000000000004,0.4,2.2,10,match,36.05,328,350,371,393,0,9,9,9,9,0,,,,,,,4,0,4,0,0,51,51,16,,,,,,,,,,,,,,4,0.016110099968500435,4,0.2,0.15000000000000002,5.40644,return,0.07745630003046244,,,,,,,,,,,,,,,,,p312,21,female,up_down_width,2025-11-30_17h12.56.212,exp1,2023.1.0,60.006756756374436,
,,,,,,,,,,,,,,,,,,,,,,,,,,,,,,,,,,,,,,,,,,,,,4,0,4,0,,,,,,,,,,,,,,,,,,,,,,,,,,,,1735.2159810999874,1735.2159810999874,1735.2159810999874,,,,,,,,,,,,p312,21,female,up_down_width,2025-11-30_17h12.56.212,exp1,2023.1.0,60.006756756374436,
,,,,,,,,,,,,,,,,4,8.825,9.608333333333333,10.391666666666667,11.175,0,0.7833333333333333,0.5333333333333333,0.25,2.6,10,match,36.05,318,346,375,403,0,9,9,9,9,0,,,,,,,5,0,5,0,0,0,0,5,,,,,,,,,,,,,,5,0.2396603999659419,5,0.3,0.3,10.81288,return,2.3427656999556348,,,,,,,,,,,,,,,,,p312,21,female,up_down_width,2025-11-30_17h12.56.212,exp1,2023.1.0,60.006756756374436,
,,,,,,,,,,,,,,,,5,8.6,9.3,10,10.7,11.4,0.7,0.29999999999999993,0.4,3.1999999999999997,10,initial,36.05,310,335,361,386,411,9,9,9,9,9,,,,,,,5,0,5,0,0,1,1,44,,,,,,,,,,,,,,5,0.6573258999269456,5,0.4,0.7000000000000002,25.23005,return,0.10264590010046959,,,,,,,,,,,,,,,,,p312,21,female,up_down_width,2025-11-30_17h12.56.212,exp1,2023.1.0,60.006756756374436,
,,,,,,,,,,,,,,,,5,8.95,9.475,10,10.525,11.05,0.525,0.275,0.25,2.35,10,match,36.05,323,342,361,379,398,9,9,9,9,9,,,,,,,5,0,5,0,0,2,2,25,,,,,,,,,,,,,,5,0.007499599945731461,5,0.5,0.10000000000000007,3.60429,return,0.5990502999629825,,,,,,,,,,,,,,,,,p312,21,female,up_down_width,2025-11-30_17h12.56.212,exp1,2023.1.0,60.006756756374436,
,,,,,,,,,,,,,,,,5,8.95,9.475,10,10.525,11.05,0.525,0.125,0.4,2.5,10,match,36.05,323,342,361,379,398,9,9,9,9,9,,,,,,,5,0,5,0,0,3,3,27,,,,,,,,,,,,,,3,0.052911699982360005,3,0.55,0.9000000000000004,32.43864,return,0.098900799988769,,,,,,,,,,,,,,,,,p312,21,female,up_down_width,2025-11-30_17h12.56.212,exp1,2023.1.0,60.006756756374436,
,,,,,,,,,,,,,,,,3,8.2,10,11.8,0,0,1.7999999999999998,1.4,0.4,4,10,match,36.05,296,361,425,0,0,9,9,9,0,0,,,,,,,5,0,5,0,0,4,4,51,,,,,,,,,,,,,,5,0.2811036999337375,5,0.55,0.05,1.80215,return,0.06474940001498908,,,,,,,,,,,,,,,,,p312,21,female,up_down_width,2025-11-30_17h12.56.212,exp1,2023.1.0,60.006756756374436,
,,,,,,,,,,,,,,,,4,9.1,9.7,10.3,10.9,0,0.6000000000000001,0.20000000000000004,0.4,2.2,10,match,36.05,328,350,371,393,0,9,9,9,9,0,,,,,,,5,0,5,0,0,5,5,16,,,,,,,,,,,,,,4,0.1790089999558404,4,0.5,0.7500000000000002,27.0322,return,0.1391929000383243,,,,,,,,,,,,,,,,,p312,21,female,up_down_width,2025-11-30_17h12.56.212,exp1,2023.1.0,60.006756756374436,
,,,,,,,,,,,,,,,,4,8.65,9.55,10.45,11.35,0,0.9,0.35,0.55,3.25,10,initial,36.05,312,344,377,409,0,9,9,9,9,0,,,,,,,5,0,5,0,0,6,6,28,,,,,,,,,,,,,,4,0.8756478000432253,4,0.2,0.35,12.61502,return,0.04255179991014302,,,,,,,,,,,,,,,,,p312,21,female,up_down_width,2025-11-30_17h12.56.212,exp1,2023.1.0,60.006756756374436,
,,,,,,,,,,,,,,,,3,8.525,10,11.475,0,0,1.475,1.225,0.25,3.2,10,match,36.05,307,361,414,0,0,9,9,9,0,0,,,,,,,5,0,5,0,0,7,7,45,,,,,,,,,,,,,,4,0.5428401000099257,4,0.55,1.0500000000000005,37.84507,return,0.47145670000463724,,,,,,,,,,,,,,,,,p312,21,female,up_down_width,2025-11-30_17h12.56.212,exp1,2023.1.0,60.006756756374436,
,,,,,,,,,,,,,,,,4,9.1,9.7,10.3,10.9,0,0.6,0.04999999999999997,0.55,2.35,10,match,36.05,328,350,371,393,0,9,9,9,9,0,,,,,,,5,0,5,0,0,8,8,12,,,,,,,,,,,,,,4,1.4593898000894114,4,0.25,0.3,10.81288,return,0.36110480001661927,,,,,,,,,,,,,,,,,p312,21,female,up_down_width,2025-11-30_17h12.56.212,exp1,2023.1.0,60.006756756374436,
,,,,,,,,,,,,,,,,4,8.35,9.45,10.55,11.65,0,1.1,0.55,0.55,3.8500000000000005,10,initial,36.05,301,341,380,420,0,9,9,9,9,0,,,,,,,5,0,5,0,0,9,9,17,,,,,,,,,,,,,,4,0.05754989990964532,4,0.25,0.8000000000000002,28.83434,return,1.0460753999650478,,,,,,,,,,,,,,,,,p312,21,female,up_down_width,2025-11-30_17h12.56.212,exp1,2023.1.0,60.006756756374436,
,,,,,,,,,,,,,,,,4,8.95,9.65,10.35,11.05,0,0.7,0.1499999999999999,0.55,2.65,10,initial,36.05,323,348,373,398,0,9,9,9,9,0,,,,,,,5,0,5,0,0,10,10,23,,,,,,,,,,,,,,4,0.3863222000654787,4,0.55,0.6000000000000001,21.62576,return,0.8681447999551892,,,,,,,,,,,,,,,,,p312,21,female,up_down_width,2025-11-30_17h12.56.212,exp1,2023.1.0,60.006756756374436,
,,,,,,,,,,,,,,,,4,8.95,9.65,10.35,11.05,0,0.7,0.44999999999999996,0.25,2.3499999999999996,10,initial,36.05,323,348,373,398,0,9,9,9,9,0,,,,,,,5,0,5,0,0,11,11,24,,,,,,,,,,,,,,4,0.01793609990272671,4,0.55,0.30000000000000004,10.81288,return,1.3926469999132678,,,,,,,,,,,,,,,,,p312,21,female,up_down_width,2025-11-30_17h12.56.212,exp1,2023.1.0,60.006756756374436,
,,,,,,,,,,,,,,,,3,9.1,10,10.9,0,0,0.9,0.35,0.55,2.35,10,initial,36.05,328,361,393,0,0,9,9,9,0,0,,,,,,,5,0,5,0,0,12,12,11,,,,,,,,,,,,,,4,0.4369154000887647,4,0.55,0.6500000000000001,23.4279,return,1.3191480999812484,,,,,,,,,,,,,,,,,p312,21,female,up_down_width,2025-11-30_17h12.56.212,exp1,2023.1.0,60.006756756374436,
,,,,,,,,,,,,,,,,5,8.6,9.3,10,10.7,11.4,0.7,0.1499999999999999,0.55,3.3499999999999996,10,initial,36.05,310,335,361,386,411,9,9,9,9,9,,,,,,,5,0,5,0,0,13,13,40,,,,,,,,,,,,,,5,0.0563021000707522,5,0.55,0.9000000000000004,32.43864,return,0.05468470009509474,,,,,,,,,,,,,,,,,p312,21,female,up_down_width,2025-11-30_17h12.56.212,exp1,2023.1.0,60.006756756374436,
,,,,,,,,,,,,,,,,3,8.2,10,11.8,0,0,1.8,1.55,0.25,3.85,10,match,36.05,296,361,425,0,0,9,9,9,0,0,,,,,,,5,0,5,0,0,14,14,49,,,,,,,,,,,,,,5,0.15651540004182607,5,0.45,0.55,19.82361,return,0.0684362999163568,,,,,,,,,,,,,,,,,p312,21,female,up_down_width,2025-11-30_17h12.56.212,exp1,2023.1.0,60.006756756374436,
,,,,,,,,,,,,,,,,3,9.3,10,10.7,0,0,0.7,0.1499999999999999,0.55,1.95,10,initial,36.05,335,361,386,0,0,9,9,9,0,0,,,,,,,5,0,5,0,0,15,15,6,,,,,,,,,,,,,,3,3.393664300092496,3,0.2,0.49999999999999994,18.02146,return,3.208859400008805,,,,,,,,,,,,,,,,,p312,21,female,up_down_width,2025-11-30_17h12.56.212,exp1,2023.1.0,60.006756756374436,
,,,,,,,,,,,,,,,,3,9.3,10,10.7,0,0,0.7,0.44999999999999996,0.25,1.65,10,initial,36.05,335,361,386,0,0,9,9,9,0,0,,,,,,,5,0,5,0,0,16,16,7,,,,,,,,,,,,,,4,0.16050839994568378,4,0.55,0.7500000000000002,27.0322,return,0.12117209995631129,,,,,,,,,,,,,,,,,p312,21,female,up_down_width,2025-11-30_17h12.56.212,exp1,2023.1.0,60.006756756374436,
,,,,,,,,,,,,,,,,4,8.35,9.45,10.55,11.65,0,1.1,0.8500000000000001,0.25,3.5500000000000003,10,initial,36.05,301,341,380,420,0,9,9,9,9,0,,,,,,,5,0,5,0,0,17,17,19,,,,,,,,,,,,,,4,0.45947040000464767,4,0.2,0.15000000000000002,5.40644,return,0.2328894000966102,,,,,,,,,,,,,,,,,p312,21,female,up_down_width,2025-11-30_17h12.56.212,exp1,2023.1.0,60.006756756374436,
,,,,,,,,,,,,,,,,5,8.35,9.175,10,10.825,11.65,0.8250000000000001,0.275,0.55,3.85,10,match,36.05,301,331,361,390,420,9,9,9,9,9,,,,,,,5,0,5,0,0,18,18,18,,,,,,,,,,,,,,4,0.11991719994693995,4,0.25,0.49999999999999994,18.02146,return,0.16481979994568974,,,,,,,,,,,,,,,,,p312,21,female,up_down_width,2025-11-30_17h12.56.212,exp1,2023.1.0,60.006756756374436,
,,,,,,,,,,,,,,,,4,8.35,9.45,10.55,11.65,0,1.1,0.7000000000000001,0.4,3.7,10,initial,36.05,301,341,380,420,0,9,9,9,9,0,,,,,,,5,0,5,0,0,19,19,21,,,,,,,,,,,,,,5,0.12790870002936572,5,0.35,0.7000000000000001,25.23005,return,0.023110900074243546,,,,,,,,,,,,,,,,,p312,21,female,up_down_width,2025-11-30_17h12.56.212,exp1,2023.1.0,60.006756756374436,
,,,,,,,,,,,,,,,,4,8.9,9.633333333333333,10.366666666666667,11.1,0,0.7333333333333334,0.4833333333333334,0.25,2.45,10,match,36.05,321,347,374,400,0,9,9,9,9,0,,,,,,,5,0,5,0,0,20,20,3,,,,,,,,,,,,,,4,0.1784021999919787,4,0.5,0.5,18.02146,return,0.2025182000361383,,,,,,,,,,,,,,,,,p312,21,female,up_down_width,2025-11-30_17h12.56.212,exp1,2023.1.0,60.006756756374436,
,,,,,,,,,,,,,,,,5,8.2,9.1,10,10.9,11.8,0.9,0.65,0.25,3.85,10,initial,36.05,296,328,361,393,425,9,9,9,9,9,,,,,,,5,0,5,0,0,21,21,48,,,,,,,,,,,,,,5,0.17054919991642237,5,0.35,0.6,21.62576,return,0.549222799949348,,,,,,,,,,,,,,,,,p312,21,female,up_down_width,2025-11-30_17h12.56.212,exp1,2023.1.0,60.006756756374436,
,,,,,,,,,,,,,,,,3,8.9,10,11.1,0,0,1.1,0.7000000000000001,0.4,2.6000000000000005,10,initial,36.05,321,361,400,0,0,9,9,9,0,0,,,,,,,5,0,5,0,0,22,22,4,,,,,,,,,,,,,,4,0.7074982000049204,4,0.55,0.45,16.21932,return,0.052860200055874884,,,,,,,,,,,,,,,,,p312,21,female,up_down_width,2025-11-30_17h12.56.212,exp1,2023.1.0,60.006756756374436,
,,,,,,,,,,,,,,,,3,8.9,10,11.1,0,0,1.1,0.55,0.55,2.75,10,initial,36.05,321,361,400,0,0,9,9,9,0,0,,,,,,,5,0,5,0,0,23,23,0,,,,,,,,,,,,,,4,0.2841191999614239,4,0.4,0.8000000000000003,28.83434,return,0.00041800003964453936,,,,,,,,,,,,,,,,,p312,21,female,up_down_width,2025-11-30_17h12.56.212,exp1,2023.1.0,60.006756756374436,
,,,,,,,,,,,,,,,,3,8.2,10,11.8,0,0,1.8,1.25,0.55,4.15,10,match,36.05,296,361,425,0,0,9,9,9,0,0,,,,,,,5,0,5,0,0,24,24,47,,,,,,,,,,,,,,4,0.6680938999634236,4,0.4,0.05000000000000007,1.80215,return,0.33260209998115897,,,,,,,,,,,,,,,,,p312,21,female,up_down_width,2025-11-30_17h12.56.212,exp1,2023.1.0,60.006756756374436,
