amount_p,posx1_p,posx2_p,posx3_p,posx4_p,posx5_p,center_to_center_p,edge_to_edge_p,w_p,stim_lengt_p,eccentricity_p,line1_p,line2_p,line3_p,line4_p,line5_p,amount,posx1,posx2,posx3,posx4,posx5,center_to_center,edge_to_edge,w,stim_length,eccentricity,trial_type,deg_to_pix_index,posx1_in_pix,posx2_in_pix,posx3_in_pix,posx4_in_pix,posx5_in_pix,line1,line2,line3,line4,line5,posx,setsize_cobdi,trials.thisRepN,trials.thisTrialN,trials.thisN,trials.thisIndex,blocks.thisRepN,blocks.thisTrialN,blocks.thisN,blocks.thisIndex,loop.thisRepN,loop.thisTrialN,loop.thisN,loop.thisIndex,first.thisRepN,first.thisTrialN,first.thisN,first.thisIndex,second.thisRepN,second.thisTrialN,second.thisN,second.thisIndex,thisRow.t,notes,key_resp_3.started,key_resp_3.keys,key_resp_3.rt,key_resp.keys,key_resp.rt,response,starting_width_deg,response_width_degree,response_width_pixel,next_5.keys,next_5.rt,key_resp_4.keys,key_resp_4.rt,text_3.started,text_4.started,key_resp_2.started,text_2.started,key_resp_2.keys,key_resp_2.rt,adjusting.started,next.keys,next.rt,text_control2.started,key_resp.started,key_resp.corr,text_bye.started,text_bye.stopped,participant,age,gender,resp_group,date,expName,psychopyVersion,frameRate,
,,,,,,,,,,,,,,,,,,,,,,,,,,,,,,,,,,,,,,,,,,,,,,,,,,,,,,,,,,,,,,,15967.314276199788,c,137.87121190014295,,,,,,,,,,,,,,,,,,,,,,,,,p313,23,male,left_right_width,2025-12-02_12h00.26.549,exp1,2023.1.0,60.043651717684554,
3,9,10,11,0,0,1,0.9,0.1,2.1,10,9,9,9,0,0,,,,,,,,,,,,,,,,,,,,,,,,,,0,0,0,1,,,,,,,,,,,,,,,,,,,,,,2,4.282388500170782,2,0.55,0.15000000000000008,5.40644,return,4.621707000071183,,,,,,,,,,,,,,,,,p313,23,male,left_right_width,2025-12-02_12h00.26.549,exp1,2023.1.0,60.043651717684554,
3,8.2,10,11.8,0,0,1.7999999999999998,1.4,0.4,4,10,9,9,9,0,0,,,,,,,,,,,,,,,,,,,,,,,,,,0,1,1,2,,,,,,,,,,,,,,,,,,,,,,2,4.977538200095296,2,0.3,0.3,10.81288,return,1.9951016001868993,,,,,,,,,,,,,,,,,p313,23,male,left_right_width,2025-12-02_12h00.26.549,exp1,2023.1.0,60.043651717684554,
5,8.6,9.3,10,10.7,11.4,0.7,0.29999999999999993,0.4,3.1999999999999997,10,9,9,9,9,9,,,,,,,,,,,,,,,,,,,,,,,,,,0,2,2,7,,,,,,,,,,,,,,,,,,,,,,4,2.0993227001745254,4,0.5,0.30000000000000004,10.81288,return,3.2468266999349,,,,,,,,,,,,,,,,,p313,23,male,left_right_width,2025-12-02_12h00.26.549,exp1,2023.1.0,60.043651717684554,
3,9.5,10,10.5,0,0,0.5,0.4,0.1,1.1,10,9,9,9,0,0,,,,,,,,,,,,,,,,,,,,,,,,,,0,3,3,0,,,,,,,,,,,,,,,,,,,,,,3,3.619636000134051,3,0.25,0.15000000000000002,5.40644,return,2.178957500262186,,,,,,,,,,,,,,,,,p313,23,male,left_right_width,2025-12-02_12h00.26.549,exp1,2023.1.0,60.043651717684554,
5,9,9.5,10,10.5,11,0.5,0.09999999999999998,0.4,2.4,10,9,9,9,9,9,,,,,,,,,,,,,,,,,,,,,,,,,,0,4,4,8,,,,,,,,,,,,,,,,,,,,,,5,2.9629604001529515,5,0.45,0.35000000000000003,12.61502,return,2.44379680021666,,,,,,,,,,,,,,,,,p313,23,male,left_right_width,2025-12-02_12h00.26.549,exp1,2023.1.0,60.043651717684554,
4,9.25,9.75,10.25,10.75,0,0.5,0.25,0.25,1.75,10,9,9,9,9,0,,,,,,,,,,,,,,,,,,,,,,,,,,0,5,5,4,,,,,,,,,,,,,,,,,,,,,,4,3.034615100128576,4,0.3,0.25,9.01073,return,1.3763039000332355,,,,,,,,,,,,,,,,,p313,23,male,left_right_width,2025-12-02_12h00.26.549,exp1,2023.1.0,60.043651717684554,
4,9.5,9.833333333333334,10.166666666666666,10.5,0,0.33333333333333337,0.23333333333333336,0.1,1.1,10,9,9,9,9,0,,,,,,,,,,,,,,,,,,,,,,,,,,0,6,6,3,,,,,,,,,,,,,,,,,,,,,,4,1.7137160000856966,4,0.45,0.15000000000000008,5.40644,return,5.244930900167674,,,,,,,,,,,,,,,,,p313,23,male,left_right_width,2025-12-02_12h00.26.549,exp1,2023.1.0,60.043651717684554,
5,9.25,9.625,10,10.375,10.75,0.375,0.125,0.25,1.75,10,9,9,9,9,9,,,,,,,,,,,,,,,,,,,,,,,,,,0,7,7,6,,,,,,,,,,,,,,,,,,,,,,6,1.9117467000614852,6,0.4,0.20000000000000007,7.20859,return,2.0741108001675457,,,,,,,,,,,,,,,,,p313,23,male,left_right_width,2025-12-02_12h00.26.549,exp1,2023.1.0,60.043651717684554,
4,8.65,9.55,10.45,11.35,0,0.9,0.5,0.4,3.1,10,9,9,9,9,0,,,,,,,,,,,,,,,,,,,,,,,,,,0,8,8,5,,,,,,,,,,,,,,,,,,,,,,5,2.04644240019843,5,0.4,0.35000000000000003,12.61502,return,2.0920055999886245,,,,,,,,,,,,,,,,,p313,23,male,left_right_width,2025-12-02_12h00.26.549,exp1,2023.1.0,60.043651717684554,
,,,,,,,,,,,,,,,,,,,,,,,,,,,,,,,,,,,,,,,,,,,,,,,,,,,,,,,,,,,,,,,,,,,,,,,,,,c,82.03847429994494,,,,,,,,,,,,,,,p313,23,male,left_right_width,2025-12-02_12h00.26.549,exp1,2023.1.0,60.043651717684554,
,,,,,,,,,,,,,,,,3,8.9,10,11.1,0,0,1.1,0.8500000000000001,0.25,2.45,10,initial,36.05,321,361,400,0,0,9,9,9,0,0,,,,,,,0,0,0,0,0,0,0,2,,,,,,,,,,,,,,2,1.562631000066176,2,0.5,0.25000000000000006,9.01073,return,2.2675425002817065,,,,,,,,,,,,,,,,,p313,23,male,left_right_width,2025-12-02_12h00.26.549,exp1,2023.1.0,60.043651717684554,
,,,,,,,,,,,,,,,,5,8.65,9.325,10,10.675,11.35,0.675,0.125,0.55,3.25,10,match,36.05,312,336,361,385,409,9,9,9,9,9,,,,,,,0,0,0,0,0,1,1,29,,,,,,,,,,,,,,5,1.390331899980083,5,0.35,0.3,10.81288,return,1.413177500013262,,,,,,,,,,,,,,,,,p313,23,male,left_right_width,2025-12-02_12h00.26.549,exp1,2023.1.0,60.043651717684554,
,,,,,,,,,,,,,,,,5,8.65,9.325,10,10.675,11.35,0.675,0.275,0.4,3.1,10,match,36.05,312,336,361,385,409,9,9,9,9,9,,,,,,,0,0,0,0,0,2,2,33,,,,,,,,,,,,,,6,1.7436895999126136,6,0.4,0.35000000000000003,12.61502,return,0.8896237001754344,,,,,,,,,,,,,,,,,p313,23,male,left_right_width,2025-12-02_12h00.26.549,exp1,2023.1.0,60.043651717684554,
,,,,,,,,,,,,,,,,4,8.825,9.608333333333333,10.391666666666667,11.175,0,0.7833333333333333,0.5333333333333333,0.25,2.6,10,match,36.05,318,346,375,403,0,9,9,9,9,0,,,,,,,0,0,0,0,0,3,3,5,,,,,,,,,,,,,,4,1.3825745002832264,4,0.5,0.30000000000000004,10.81288,return,1.3582425999920815,,,,,,,,,,,,,,,,,p313,23,male,left_right_width,2025-12-02_12h00.26.549,exp1,2023.1.0,60.043651717684554,
,,,,,,,,,,,,,,,,5,8.6,9.3,10,10.7,11.4,0.7,0.44999999999999996,0.25,3.05,10,initial,36.05,310,335,361,386,411,9,9,9,9,9,,,,,,,0,0,0,0,0,4,4,42,,,,,,,,,,,,,,5,1.963070600060746,5,0.45,0.25000000000000006,9.01073,return,1.2595444000326097,,,,,,,,,,,,,,,,,p313,23,male,left_right_width,2025-12-02_12h00.26.549,exp1,2023.1.0,60.043651717684554,
,,,,,,,,,,,,,,,,4,8.95,9.65,10.35,11.05,0,0.7,0.44999999999999996,0.25,2.3499999999999996,10,initial,36.05,323,348,373,398,0,9,9,9,9,0,,,,,,,0,0,0,0,0,5,5,24,,,,,,,,,,,,,,4,2.618452599970624,4,0.55,0.30000000000000004,10.81288,return,1.8408029000274837,,,,,,,,,,,,,,,,,p313,23,male,left_right_width,2025-12-02_12h00.26.549,exp1,2023.1.0,60.043651717684554,
,,,,,,,,,,,,,,,,5,8.6,9.3,10,10.7,11.4,0.7,0.1499999999999999,0.55,3.3499999999999996,10,initial,36.05,310,335,361,386,411,9,9,9,9,9,,,,,,,0,0,0,0,0,6,6,40,,,,,,,,,,,,,,7,1.518015299923718,7,0.5,0.4,14.41717,return,0.6388340999837965,,,,,,,,,,,,,,,,,p313,23,male,left_right_width,2025-12-02_12h00.26.549,exp1,2023.1.0,60.043651717684554,
,,,,,,,,,,,,,,,,3,8.9,10,11.1,0,0,1.1,0.7000000000000001,0.4,2.6000000000000005,10,initial,36.05,321,361,400,0,0,9,9,9,0,0,,,,,,,0,0,0,0,0,7,7,4,,,,,,,,,,,,,,3,1.2714462000876665,3,0.5,0.4,14.41717,return,1.2509382001589984,,,,,,,,,,,,,,,,,p313,23,male,left_right_width,2025-12-02_12h00.26.549,exp1,2023.1.0,60.043651717684554,
,,,,,,,,,,,,,,,,3,9.1,10,10.9,0,0,0.9,0.5,0.4,2.2,10,initial,36.05,328,361,393,0,0,9,9,9,0,0,,,,,,,0,0,0,0,0,8,8,15,,,,,,,,,,,,,,3,0.6932386001572013,3,0.2,0.35,12.61502,return,3.367668400052935,,,,,,,,,,,,,,,,,p313,23,male,left_right_width,2025-12-02_12h00.26.549,exp1,2023.1.0,60.043651717684554,
,,,,,,,,,,,,,,,,4,8.9,9.633333333333333,10.366666666666667,11.1,0,0.7333333333333333,0.18333333333333326,0.55,2.75,10,match,36.05,321,347,374,400,0,9,9,9,9,0,,,,,,,0,0,0,0,0,9,9,1,,,,,,,,,,,,,,5,1.8068976001814008,5,0.25,0.39999999999999997,14.41717,return,2.62883870000951,,,,,,,,,,,,,,,,,p313,23,male,left_right_width,2025-12-02_12h00.26.549,exp1,2023.1.0,60.043651717684554,
,,,,,,,,,,,,,,,,4,8.9,9.633333333333333,10.366666666666667,11.1,0,0.7333333333333334,0.4833333333333334,0.25,2.45,10,match,36.05,321,347,374,400,0,9,9,9,9,0,,,,,,,0,0,0,0,0,10,10,3,,,,,,,,,,,,,,5,1.8430043002590537,5,0.4,0.30000000000000004,10.81288,return,2.2645045001991093,,,,,,,,,,,,,,,,,p313,23,male,left_right_width,2025-12-02_12h00.26.549,exp1,2023.1.0,60.043651717684554,
,,,,,,,,,,,,,,,,3,7.8,10,12.2,0,0,2.2,1.9500000000000002,0.25,4.65,10,match,36.05,281,361,440,0,0,9,9,9,0,0,,,,,,,0,0,0,0,0,11,11,37,,,,,,,,,,,,,,3,1.6488628000952303,3,0.55,0.25000000000000006,9.01073,return,2.8143755001947284,,,,,,,,,,,,,,,,,p313,23,male,left_right_width,2025-12-02_12h00.26.549,exp1,2023.1.0,60.043651717684554,
,,,,,,,,,,,,,,,,3,8.2,10,11.8,0,0,1.8,1.25,0.55,4.15,10,match,36.05,296,361,425,0,0,9,9,9,0,0,,,,,,,0,0,0,0,0,12,12,47,,,,,,,,,,,,,,3,2.2345698000863194,3,0.4,0.5,18.02146,return,2.5122697001788765,,,,,,,,,,,,,,,,,p313,23,male,left_right_width,2025-12-02_12h00.26.549,exp1,2023.1.0,60.043651717684554,
,,,,,,,,,,,,,,,,4,8.65,9.55,10.45,11.35,0,0.9,0.5,0.4,3.1,10,initial,36.05,312,344,377,409,0,9,9,9,9,0,,,,,,,0,0,0,0,0,13,13,32,,,,,,,,,,,,,,4,1.3158361001405865,4,0.55,0.6000000000000001,21.62576,return,4.286179800285026,,,,,,,,,,,,,,,,,p313,23,male,left_right_width,2025-12-02_12h00.26.549,exp1,2023.1.0,60.043651717684554,
,,,,,,,,,,,,,,,,4,8.95,9.65,10.35,11.05,0,0.7,0.1499999999999999,0.55,2.65,10,initial,36.05,323,348,373,398,0,9,9,9,9,0,,,,,,,0,0,0,0,0,14,14,23,,,,,,,,,,,,,,5,3.1158658002968878,5,0.55,0.5,18.02146,return,2.8456514002755284,,,,,,,,,,,,,,,,,p313,23,male,left_right_width,2025-12-02_12h00.26.549,exp1,2023.1.0,60.043651717684554,
,,,,,,,,,,,,,,,,5,8.2,9.1,10,10.9,11.8,0.9,0.65,0.25,3.85,10,initial,36.05,296,328,361,393,425,9,9,9,9,9,,,,,,,0,0,0,0,0,15,15,48,,,,,,,,,,,,,,5,2.0922620000783354,5,0.5,0.25000000000000006,9.01073,return,2.8568468000739813,,,,,,,,,,,,,,,,,p313,23,male,left_right_width,2025-12-02_12h00.26.549,exp1,2023.1.0,60.043651717684554,
,,,,,,,,,,,,,,,,5,7.8,8.9,10,11.1,12.2,1.1,0.8500000000000001,0.25,4.65,10,initial,36.05,281,321,361,400,440,9,9,9,9,9,,,,,,,0,0,0,0,0,16,16,36,,,,,,,,,,,,,,5,1.3155129002407193,5,0.35,0.25,9.01073,return,1.9982640002854168,,,,,,,,,,,,,,,,,p313,23,male,left_right_width,2025-12-02_12h00.26.549,exp1,2023.1.0,60.043651717684554,
,,,,,,,,,,,,,,,,5,8.275,9.1375,10,10.8625,11.725,0.8625,0.6125,0.25,3.7,10,match,36.05,298,329,361,392,423,9,9,9,9,9,,,,,,,0,0,0,0,0,17,17,22,,,,,,,,,,,,,,5,1.237516000168398,5,0.5,0.25000000000000006,9.01073,return,1.3948432002216578,,,,,,,,,,,,,,,,,p313,23,male,left_right_width,2025-12-02_12h00.26.549,exp1,2023.1.0,60.043651717684554,
,,,,,,,,,,,,,,,,4,9.1,9.7,10.3,10.9,0,0.6,0.04999999999999997,0.55,2.35,10,match,36.05,328,350,371,393,0,9,9,9,9,0,,,,,,,0,0,0,0,0,18,18,12,,,,,,,,,,,,,,4,1.4832744002342224,4,0.45,0.55,19.82361,return,1.6962531001772732,,,,,,,,,,,,,,,,,p313,23,male,left_right_width,2025-12-02_12h00.26.549,exp1,2023.1.0,60.043651717684554,
,,,,,,,,,,,,,,,,5,8.6,9.3,10,10.7,11.4,0.7,0.29999999999999993,0.4,3.1999999999999997,10,initial,36.05,310,335,361,386,411,9,9,9,9,9,,,,,,,0,0,0,0,0,19,19,44,,,,,,,,,,,,,,5,1.5013897002208978,5,0.2,0.44999999999999996,16.21932,return,3.6161716000642627,,,,,,,,,,,,,,,,,p313,23,male,left_right_width,2025-12-02_12h00.26.549,exp1,2023.1.0,60.043651717684554,
,,,,,,,,,,,,,,,,5,8.95,9.475,10,10.525,11.05,0.525,0.125,0.4,2.5,10,match,36.05,323,342,361,379,398,9,9,9,9,9,,,,,,,0,0,0,0,0,20,20,27,,,,,,,,,,,,,,5,1.352721500210464,5,0.2,0.49999999999999994,18.02146,return,2.1931153000332415,,,,,,,,,,,,,,,,,p313,23,male,left_right_width,2025-12-02_12h00.26.549,exp1,2023.1.0,60.043651717684554,
,,,,,,,,,,,,,,,,4,9.1,9.7,10.3,10.9,0,0.6000000000000001,0.20000000000000004,0.4,2.2,10,match,36.05,328,350,371,393,0,9,9,9,9,0,,,,,,,0,0,0,0,0,21,21,16,,,,,,,,,,,,,,4,1.2827405000571162,4,0.3,0.44999999999999996,16.21932,return,2.206227300222963,,,,,,,,,,,,,,,,,p313,23,male,left_right_width,2025-12-02_12h00.26.549,exp1,2023.1.0,60.043651717684554,
,,,,,,,,,,,,,,,,5,8.35,9.175,10,10.825,11.65,0.825,0.575,0.25,3.55,10,match,36.05,301,331,361,390,420,9,9,9,9,9,,,,,,,0,0,0,0,0,22,22,20,,,,,,,,,,,,,,5,1.24632260017097,5,0.4,0.25000000000000006,9.01073,return,1.6122121002990752,,,,,,,,,,,,,,,,,p313,23,male,left_right_width,2025-12-02_12h00.26.549,exp1,2023.1.0,60.043651717684554,
,,,,,,,,,,,,,,,,3,9.3,10,10.7,0,0,0.7,0.44999999999999996,0.25,1.65,10,initial,36.05,335,361,386,0,0,9,9,9,0,0,,,,,,,0,0,0,0,0,23,23,7,,,,,,,,,,,,,,3,1.0912489001639187,3,0.25,0.3,10.81288,return,1.1742153002414852,,,,,,,,,,,,,,,,,p313,23,male,left_right_width,2025-12-02_12h00.26.549,exp1,2023.1.0,60.043651717684554,
,,,,,,,,,,,,,,,,4,8.65,9.55,10.45,11.35,0,0.9,0.35,0.55,3.25,10,initial,36.05,312,344,377,409,0,9,9,9,9,0,,,,,,,0,0,0,0,0,24,24,28,,,,,,,,,,,,,,4,1.1775786001235247,4,0.5,0.55,19.82361,return,1.6582700000144541,,,,,,,,,,,,,,,,,p313,23,male,left_right_width,2025-12-02_12h00.26.549,exp1,2023.1.0,60.043651717684554,
,,,,,,,,,,,,,,,,4,8.35,9.45,10.55,11.65,0,1.1,0.8500000000000001,0.25,3.5500000000000003,10,initial,36.05,301,341,380,420,0,9,9,9,9,0,,,,,,,0,0,0,0,0,25,25,19,,,,,,,,,,,,,,4,0.9815271999686956,4,0.5,0.30000000000000004,10.81288,return,3.0367638000752777,,,,,,,,,,,,,,,,,p313,23,male,left_right_width,2025-12-02_12h00.26.549,exp1,2023.1.0,60.043651717684554,
,,,,,,,,,,,,,,,,4,9.1,9.7,10.3,10.9,0,0.5999999999999999,0.3499999999999999,0.25,2.05,10,match,36.05,328,350,371,393,0,9,9,9,9,0,,,,,,,0,0,0,0,0,26,26,14,,,,,,,,,,,,,,4,0.5177243000362068,4,0.5,0.30000000000000004,10.81288,return,2.25610959995538,,,,,,,,,,,,,,,,,p313,23,male,left_right_width,2025-12-02_12h00.26.549,exp1,2023.1.0,60.043651717684554,
,,,,,,,,,,,,,,,,3,8.2,10,11.8,0,0,1.8,1.55,0.25,3.85,10,match,36.05,296,361,425,0,0,9,9,9,0,0,,,,,,,0,0,0,0,0,27,27,49,,,,,,,,,,,,,,3,1.2729768001008779,3,0.25,0.25,9.01073,return,0.9009537000674754,,,,,,,,,,,,,,,,,p313,23,male,left_right_width,2025-12-02_12h00.26.549,exp1,2023.1.0,60.043651717684554,
,,,,,,,,,,,,,,,,3,8.525,10,11.475,0,0,1.475,1.225,0.25,3.2,10,match,36.05,307,361,414,0,0,9,9,9,0,0,,,,,,,0,0,0,0,0,28,28,45,,,,,,,,,,,,,,3,1.620359000051394,3,0.5,0.25000000000000006,9.01073,return,1.6829151001293212,,,,,,,,,,,,,,,,,p313,23,male,left_right_width,2025-12-02_12h00.26.549,exp1,2023.1.0,60.043651717684554,
,,,,,,,,,,,,,,,,5,8.65,9.325,10,10.675,11.35,0.675,0.42500000000000004,0.25,2.95,10,match,36.05,312,336,361,385,409,9,9,9,9,9,,,,,,,0,0,0,0,0,29,29,31,,,,,,,,,,,,,,5,1.2184194002766162,5,0.3,0.25,9.01073,return,1.5529779000207782,,,,,,,,,,,,,,,,,p313,23,male,left_right_width,2025-12-02_12h00.26.549,exp1,2023.1.0,60.043651717684554,
,,,,,,,,,,,,,,,,4,9.3,9.766666666666667,10.233333333333333,10.7,0,0.4666666666666667,0.21666666666666665,0.25,1.65,10,match,36.05,335,352,369,386,0,9,9,9,9,0,,,,,,,0,0,0,0,0,30,30,8,,,,,,,,,,,,,,4,1.2115549000445753,4,0.35,0.25,9.01073,return,1.369142500218004,,,,,,,,,,,,,,,,,p313,23,male,left_right_width,2025-12-02_12h00.26.549,exp1,2023.1.0,60.043651717684554,
,,,,,,,,,,,,,,,,5,8.95,9.475,10,10.525,11.05,0.525,0.275,0.25,2.35,10,match,36.05,323,342,361,379,398,9,9,9,9,9,,,,,,,0,0,0,0,0,31,31,25,,,,,,,,,,,,,,5,1.4283021001610905,5,0.5,0.25000000000000006,9.01073,return,1.4977096000220627,,,,,,,,,,,,,,,,,p313,23,male,left_right_width,2025-12-02_12h00.26.549,exp1,2023.1.0,60.043651717684554,
,,,,,,,,,,,,,,,,5,8.35,9.175,10,10.825,11.65,0.8250000000000001,0.275,0.55,3.85,10,match,36.05,301,331,361,390,420,9,9,9,9,9,,,,,,,0,0,0,0,0,32,32,18,,,,,,,,,,,,,,5,1.143218100303784,5,0.2,0.49999999999999994,18.02146,return,1.6878241000231355,,,,,,,,,,,,,,,,,p313,23,male,left_right_width,2025-12-02_12h00.26.549,exp1,2023.1.0,60.043651717684554,
,,,,,,,,,,,,,,,,5,8.2,9.1,10,10.9,11.8,0.9,0.5,0.4,4,10,initial,36.05,296,328,361,393,425,9,9,9,9,9,,,,,,,0,0,0,0,0,33,33,50,,,,,,,,,,,,,,5,0.7343817001674324,5,0.5,0.4,14.41717,return,0.8475814000703394,,,,,,,,,,,,,,,,,p313,23,male,left_right_width,2025-12-02_12h00.26.549,exp1,2023.1.0,60.043651717684554,
,,,,,,,,,,,,,,,,4,8.35,9.45,10.55,11.65,0,1.1,0.7000000000000001,0.4,3.7,10,initial,36.05,301,341,380,420,0,9,9,9,9,0,,,,,,,0,0,0,0,0,34,34,21,,,,,,,,,,,,,,4,0.7106165001168847,4,0.4,0.4,14.41717,return,1.400918500032276,,,,,,,,,,,,,,,,,p313,23,male,left_right_width,2025-12-02_12h00.26.549,exp1,2023.1.0,60.043651717684554,
,,,,,,,,,,,,,,,,3,8.6,10,11.4,0,0,1.4,0.85,0.55,3.35,10,match,36.05,310,361,411,0,0,9,9,9,0,0,,,,,,,0,0,0,0,0,35,35,41,,,,,,,,,,,,,,3,1.7516497001051903,3,0.5,0.5,18.02146,return,0.8324677001219243,,,,,,,,,,,,,,,,,p313,23,male,left_right_width,2025-12-02_12h00.26.549,exp1,2023.1.0,60.043651717684554,
,,,,,,,,,,,,,,,,5,7.8,8.9,10,11.1,12.2,1.1,0.7000000000000001,0.4,4.800000000000001,10,initial,36.05,281,321,361,400,440,9,9,9,9,9,,,,,,,0,0,0,0,0,36,36,38,,,,,,,,,,,,,,5,1.5363040000665933,5,0.3,0.44999999999999996,16.21932,return,2.2583118001930416,,,,,,,,,,,,,,,,,p313,23,male,left_right_width,2025-12-02_12h00.26.549,exp1,2023.1.0,60.043651717684554,
,,,,,,,,,,,,,,,,3,8.9,10,11.1,0,0,1.1,0.55,0.55,2.75,10,initial,36.05,321,361,400,0,0,9,9,9,0,0,,,,,,,0,0,0,0,0,37,37,0,,,,,,,,,,,,,,3,1.161223400151357,3,0.35,0.49999999999999994,18.02146,return,1.5143545002210885,,,,,,,,,,,,,,,,,p313,23,male,left_right_width,2025-12-02_12h00.26.549,exp1,2023.1.0,60.043651717684554,
,,,,,,,,,,,,,,,,3,9.1,10,10.9,0,0,0.9,0.35,0.55,2.35,10,initial,36.05,328,361,393,0,0,9,9,9,0,0,,,,,,,0,0,0,0,0,38,38,11,,,,,,,,,,,,,,3,1.7000502001028508,3,0.35,0.44999999999999996,16.21932,return,1.4242500001564622,,,,,,,,,,,,,,,,,p313,23,male,left_right_width,2025-12-02_12h00.26.549,exp1,2023.1.0,60.043651717684554,
,,,,,,,,,,,,,,,,3,9.3,10,10.7,0,0,0.7,0.1499999999999999,0.55,1.95,10,initial,36.05,335,361,386,0,0,9,9,9,0,0,,,,,,,0,0,0,0,0,39,39,6,,,,,,,,,,,,,,3,0.8623019000515342,3,0.3,0.49999999999999994,18.02146,return,1.8031692001968622,,,,,,,,,,,,,,,,,p313,23,male,left_right_width,2025-12-02_12h00.26.549,exp1,2023.1.0,60.043651717684554,
,,,,,,,,,,,,,,,,3,9.1,10,10.9,0,0,0.9,0.65,0.25,2.05,10,initial,36.05,328,361,393,0,0,9,9,9,0,0,,,,,,,0,0,0,0,0,40,40,13,,,,,,,,,,,,,,3,0.48490280006080866,3,0.55,0.25000000000000006,9.01073,return,2.2557949000038207,,,,,,,,,,,,,,,,,p313,23,male,left_right_width,2025-12-02_12h00.26.549,exp1,2023.1.0,60.043651717684554,
,,,,,,,,,,,,,,,,3,9.3,10,10.7,0,0,0.7,0.29999999999999993,0.4,1.8,10,initial,36.05,335,361,386,0,0,9,9,9,0,0,,,,,,,0,0,0,0,0,41,41,9,,,,,,,,,,,,,,3,1.0972299999557436,3,0.2,0.39999999999999997,14.41717,return,2.0127789003308862,,,,,,,,,,,,,,,,,p313,23,male,left_right_width,2025-12-02_12h00.26.549,exp1,2023.1.0,60.043651717684554,
,,,,,,,,,,,,,,,,3,7.800000000000001,10,12.2,0,0,2.1999999999999997,1.7999999999999998,0.4,4.8,10,match,36.05,281,361,440,0,0,9,9,9,0,0,,,,,,,0,0,0,0,0,42,42,39,,,,,,,,,,,,,,3,0.6654311001766473,3,0.45,0.4,14.41717,return,1.7098936999682337,,,,,,,,,,,,,,,,,p313,23,male,left_right_width,2025-12-02_12h00.26.549,exp1,2023.1.0,60.043651717684554,
,,,,,,,,,,,,,,,,4,8.35,9.45,10.55,11.65,0,1.1,0.55,0.55,3.8500000000000005,10,initial,36.05,301,341,380,420,0,9,9,9,9,0,,,,,,,0,0,0,0,0,43,43,17,,,,,,,,,,,,,,4,0.8002343000844121,4,0.4,0.45,16.21932,return,0.7192915000487119,,,,,,,,,,,,,,,,,p313,23,male,left_right_width,2025-12-02_12h00.26.549,exp1,2023.1.0,60.043651717684554,
,,,,,,,,,,,,,,,,3,7.8,10,12.2,0,0,2.2,1.65,0.55,4.95,10,match,36.05,281,361,440,0,0,9,9,9,0,0,,,,,,,0,0,0,0,0,44,44,35,,,,,,,,,,,,,,3,0.6998161000665277,3,0.55,0.55,19.82361,return,0.8479257000144571,,,,,,,,,,,,,,,,,p313,23,male,left_right_width,2025-12-02_12h00.26.549,exp1,2023.1.0,60.043651717684554,
,,,,,,,,,,,,,,,,3,8.6,10,11.4,0,0,1.4,1.15,0.25,3.05,10,match,36.05,310,361,411,0,0,9,9,9,0,0,,,,,,,0,0,0,0,0,45,45,43,,,,,,,,,,,,,,4,1.8657969001214951,4,0.4,0.5,18.02146,return,1.1195633001625538,,,,,,,,,,,,,,,,,p313,23,male,left_right_width,2025-12-02_12h00.26.549,exp1,2023.1.0,60.043651717684554,
,,,,,,,,,,,,,,,,4,8.65,9.55,10.45,11.35,0,0.9,0.65,0.25,2.95,10,initial,36.05,312,344,377,409,0,9,9,9,9,0,,,,,,,0,0,0,0,0,46,46,30,,,,,,,,,,,,,,5,1.429655099986121,5,0.35,0.3,10.81288,return,0.7635272999759763,,,,,,,,,,,,,,,,,p313,23,male,left_right_width,2025-12-02_12h00.26.549,exp1,2023.1.0,60.043651717684554,
,,,,,,,,,,,,,,,,5,8.2,9.1,10,10.9,11.8,0.9,0.35,0.55,4.15,10,initial,36.05,296,328,361,393,425,9,9,9,9,9,,,,,,,0,0,0,0,0,47,47,46,,,,,,,,,,,,,,5,1.2258059000596404,5,0.2,0.49999999999999994,18.02146,return,1.5922419000416994,,,,,,,,,,,,,,,,,p313,23,male,left_right_width,2025-12-02_12h00.26.549,exp1,2023.1.0,60.043651717684554,
,,,,,,,,,,,,,,,,4,8.95,9.65,10.35,11.05,0,0.7,0.29999999999999993,0.4,2.5,10,initial,36.05,323,348,373,398,0,9,9,9,9,0,,,,,,,0,0,0,0,0,48,48,26,,,,,,,,,,,,,,4,0.6825243001803756,4,0.2,0.35,12.61502,return,2.1583010000176728,,,,,,,,,,,,,,,,,p313,23,male,left_right_width,2025-12-02_12h00.26.549,exp1,2023.1.0,60.043651717684554,
,,,,,,,,,,,,,,,,5,7.8,8.9,10,11.1,12.2,1.1,0.55,0.55,4.95,10,initial,36.05,281,321,361,400,440,9,9,9,9,9,,,,,,,0,0,0,0,0,49,49,34,,,,,,,,,,,,,,5,1.227974400157109,5,0.4,0.5,18.02146,return,0.7465230000670999,,,,,,,,,,,,,,,,,p313,23,male,left_right_width,2025-12-02_12h00.26.549,exp1,2023.1.0,60.043651717684554,
,,,,,,,,,,,,,,,,4,9.3,9.766666666666667,10.233333333333333,10.7,0,0.4666666666666667,0.06666666666666665,0.4,1.8,10,match,36.05,335,352,369,386,0,9,9,9,9,0,,,,,,,0,0,0,0,0,50,50,10,,,,,,,,,,,,,,4,1.4597878002095968,4,0.55,0.45,16.21932,return,1.1603278000839055,,,,,,,,,,,,,,,,,p313,23,male,left_right_width,2025-12-02_12h00.26.549,exp1,2023.1.0,60.043651717684554,
,,,,,,,,,,,,,,,,3,8.2,10,11.8,0,0,1.7999999999999998,1.4,0.4,4,10,match,36.05,296,361,425,0,0,9,9,9,0,0,,,,,,,0,0,0,0,0,51,51,51,,,,,,,,,,,,,,3,1.2128492002375424,3,0.2,0.3,10.81288,return,0.9708669001702219,,,,,,,,,,,,,,,,,p313,23,male,left_right_width,2025-12-02_12h00.26.549,exp1,2023.1.0,60.043651717684554,
,,,,,,,,,,,,,,,,,,,,,,,,,,,,,,,,,,,,,,,,,,,,,0,0,0,0,,,,,,,,,,,,,,,,,,,,,,,,,,,,16505.949919899926,16505.949919899926,16505.949919899926,,,,,,,,,,,,p313,23,male,left_right_width,2025-12-02_12h00.26.549,exp1,2023.1.0,60.043651717684554,
,,,,,,,,,,,,,,,,4,8.35,9.45,10.55,11.65,0,1.1,0.8500000000000001,0.25,3.5500000000000003,10,initial,36.05,301,341,380,420,0,9,9,9,9,0,,,,,,,1,0,1,0,0,0,0,19,,,,,,,,,,,,,,4,1.1198390000499785,4,0.45,0.25000000000000006,9.01073,return,1.1373659002128989,,,,,,,,,,,,,,,,,p313,23,male,left_right_width,2025-12-02_12h00.26.549,exp1,2023.1.0,60.043651717684554,
,,,,,,,,,,,,,,,,4,8.65,9.55,10.45,11.35,0,0.9,0.5,0.4,3.1,10,initial,36.05,312,344,377,409,0,9,9,9,9,0,,,,,,,1,0,1,0,0,1,1,32,,,,,,,,,,,,,,4,0.5867871001828462,4,0.35,0.3,10.81288,return,2.0499627001117915,,,,,,,,,,,,,,,,,p313,23,male,left_right_width,2025-12-02_12h00.26.549,exp1,2023.1.0,60.043651717684554,
,,,,,,,,,,,,,,,,4,9.3,9.766666666666667,10.233333333333333,10.7,0,0.4666666666666667,0.21666666666666665,0.25,1.65,10,match,36.05,335,352,369,386,0,9,9,9,9,0,,,,,,,1,0,1,0,0,2,2,8,,,,,,,,,,,,,,4,1.3905009001027793,4,0.4,0.20000000000000007,7.20859,return,1.413852599915117,,,,,,,,,,,,,,,,,p313,23,male,left_right_width,2025-12-02_12h00.26.549,exp1,2023.1.0,60.043651717684554,
,,,,,,,,,,,,,,,,4,8.35,9.45,10.55,11.65,0,1.1,0.55,0.55,3.8500000000000005,10,initial,36.05,301,341,380,420,0,9,9,9,9,0,,,,,,,1,0,1,0,0,3,3,17,,,,,,,,,,,,,,4,0.7574632002506405,4,0.3,0.3,10.81288,return,0.5826131000649184,,,,,,,,,,,,,,,,,p313,23,male,left_right_width,2025-12-02_12h00.26.549,exp1,2023.1.0,60.043651717684554,
,,,,,,,,,,,,,,,,5,7.8,8.9,10,11.1,12.2,1.1,0.8500000000000001,0.25,4.65,10,initial,36.05,281,321,361,400,440,9,9,9,9,9,,,,,,,1,0,1,0,0,4,4,36,,,,,,,,,,,,,,5,0.8283381999935955,5,0.45,0.25000000000000006,9.01073,return,1.4023806999903172,,,,,,,,,,,,,,,,,p313,23,male,left_right_width,2025-12-02_12h00.26.549,exp1,2023.1.0,60.043651717684554,
,,,,,,,,,,,,,,,,3,8.525,10,11.475,0,0,1.475,1.225,0.25,3.2,10,match,36.05,307,361,414,0,0,9,9,9,0,0,,,,,,,1,0,1,0,0,5,5,45,,,,,,,,,,,,,,3,1.4663041001185775,3,0.55,0.20000000000000007,7.20859,return,1.5679774002637714,,,,,,,,,,,,,,,,,p313,23,male,left_right_width,2025-12-02_12h00.26.549,exp1,2023.1.0,60.043651717684554,
,,,,,,,,,,,,,,,,5,8.95,9.475,10,10.525,11.05,0.525,0.125,0.4,2.5,10,match,36.05,323,342,361,379,398,9,9,9,9,9,,,,,,,1,0,1,0,0,6,6,27,,,,,,,,,,,,,,4,1.11232820013538,4,0.45,0.30000000000000004,10.81288,return,1.945648099994287,,,,,,,,,,,,,,,,,p313,23,male,left_right_width,2025-12-02_12h00.26.549,exp1,2023.1.0,60.043651717684554,
,,,,,,,,,,,,,,,,4,8.9,9.633333333333333,10.366666666666667,11.1,0,0.7333333333333334,0.4833333333333334,0.25,2.45,10,match,36.05,321,347,374,400,0,9,9,9,9,0,,,,,,,1,0,1,0,0,7,7,3,,,,,,,,,,,,,,4,1.1138224001042545,4,0.45,0.30000000000000004,10.81288,return,1.644394800066948,,,,,,,,,,,,,,,,,p313,23,male,left_right_width,2025-12-02_12h00.26.549,exp1,2023.1.0,60.043651717684554,
,,,,,,,,,,,,,,,,4,8.65,9.55,10.45,11.35,0,0.9,0.65,0.25,2.95,10,initial,36.05,312,344,377,409,0,9,9,9,9,0,,,,,,,1,0,1,0,0,8,8,30,,,,,,,,,,,,,,4,0.5629994000773877,4,0.5,0.25000000000000006,9.01073,return,1.755652400199324,,,,,,,,,,,,,,,,,p313,23,male,left_right_width,2025-12-02_12h00.26.549,exp1,2023.1.0,60.043651717684554,
,,,,,,,,,,,,,,,,3,8.2,10,11.8,0,0,1.8,1.25,0.55,4.15,10,match,36.05,296,361,425,0,0,9,9,9,0,0,,,,,,,1,0,1,0,0,9,9,47,,,,,,,,,,,,,,3,0.9688957000616938,3,0.4,0.4,14.41717,return,0.8976290000136942,,,,,,,,,,,,,,,,,p313,23,male,left_right_width,2025-12-02_12h00.26.549,exp1,2023.1.0,60.043651717684554,
,,,,,,,,,,,,,,,,3,8.9,10,11.1,0,0,1.1,0.55,0.55,2.75,10,initial,36.05,321,361,400,0,0,9,9,9,0,0,,,,,,,1,0,1,0,0,10,10,0,,,,,,,,,,,,,,3,1.0468580001033843,3,0.4,0.45,16.21932,return,0.9563815002329648,,,,,,,,,,,,,,,,,p313,23,male,left_right_width,2025-12-02_12h00.26.549,exp1,2023.1.0,60.043651717684554,
,,,,,,,,,,,,,,,,5,7.8,8.9,10,11.1,12.2,1.1,0.7000000000000001,0.4,4.800000000000001,10,initial,36.05,281,321,361,400,440,9,9,9,9,9,,,,,,,1,0,1,0,0,11,11,38,,,,,,,,,,,,,,5,0.9522071001119912,5,0.25,0.39999999999999997,14.41717,return,1.5374088000971824,,,,,,,,,,,,,,,,,p313,23,male,left_right_width,2025-12-02_12h00.26.549,exp1,2023.1.0,60.043651717684554,
,,,,,,,,,,,,,,,,5,8.2,9.1,10,10.9,11.8,0.9,0.5,0.4,4,10,initial,36.05,296,328,361,393,425,9,9,9,9,9,,,,,,,1,0,1,0,0,12,12,50,,,,,,,,,,,,,,5,1.3707517001312226,5,0.2,0.35,12.61502,return,2.1788658001460135,,,,,,,,,,,,,,,,,p313,23,male,left_right_width,2025-12-02_12h00.26.549,exp1,2023.1.0,60.043651717684554,
,,,,,,,,,,,,,,,,5,8.65,9.325,10,10.675,11.35,0.675,0.42500000000000004,0.25,2.95,10,match,36.05,312,336,361,385,409,9,9,9,9,9,,,,,,,1,0,1,0,0,13,13,31,,,,,,,,,,,,,,5,1.0495277000591159,5,0.5,0.30000000000000004,10.81288,return,0.9258556000422686,,,,,,,,,,,,,,,,,p313,23,male,left_right_width,2025-12-02_12h00.26.549,exp1,2023.1.0,60.043651717684554,
,,,,,,,,,,,,,,,,4,8.825,9.608333333333333,10.391666666666667,11.175,0,0.7833333333333333,0.5333333333333333,0.25,2.6,10,match,36.05,318,346,375,403,0,9,9,9,9,0,,,,,,,1,0,1,0,0,14,14,5,,,,,,,,,,,,,,4,0.9120143000036478,4,0.55,0.35000000000000003,12.61502,return,1.0827120002359152,,,,,,,,,,,,,,,,,p313,23,male,left_right_width,2025-12-02_12h00.26.549,exp1,2023.1.0,60.043651717684554,
,,,,,,,,,,,,,,,,5,8.65,9.325,10,10.675,11.35,0.675,0.275,0.4,3.1,10,match,36.05,312,336,361,385,409,9,9,9,9,9,,,,,,,1,0,1,0,0,15,15,33,,,,,,,,,,,,,,5,0.6790535002946854,5,0.55,0.4,14.41717,return,0.9709783000871539,,,,,,,,,,,,,,,,,p313,23,male,left_right_width,2025-12-02_12h00.26.549,exp1,2023.1.0,60.043651717684554,
,,,,,,,,,,,,,,,,4,9.1,9.7,10.3,10.9,0,0.6,0.04999999999999997,0.55,2.35,10,match,36.05,328,350,371,393,0,9,9,9,9,0,,,,,,,1,0,1,0,0,16,16,12,,,,,,,,,,,,,,4,1.0820704002398998,4,0.3,0.5499999999999999,19.82361,return,1.3112025000154972,,,,,,,,,,,,,,,,,p313,23,male,left_right_width,2025-12-02_12h00.26.549,exp1,2023.1.0,60.043651717684554,
,,,,,,,,,,,,,,,,5,8.6,9.3,10,10.7,11.4,0.7,0.29999999999999993,0.4,3.1999999999999997,10,initial,36.05,310,335,361,386,411,9,9,9,9,9,,,,,,,1,0,1,0,0,17,17,44,,,,,,,,,,,,,,5,1.0589844000060111,5,0.3,0.44999999999999996,16.21932,return,1.0642892001196742,,,,,,,,,,,,,,,,,p313,23,male,left_right_width,2025-12-02_12h00.26.549,exp1,2023.1.0,60.043651717684554,
,,,,,,,,,,,,,,,,5,8.6,9.3,10,10.7,11.4,0.7,0.1499999999999999,0.55,3.3499999999999996,10,initial,36.05,310,335,361,386,411,9,9,9,9,9,,,,,,,1,0,1,0,0,18,18,40,,,,,,,,,,,,,,5,0.5808102001901716,5,0.35,0.44999999999999996,16.21932,return,1.1165336002595723,,,,,,,,,,,,,,,,,p313,23,male,left_right_width,2025-12-02_12h00.26.549,exp1,2023.1.0,60.043651717684554,
,,,,,,,,,,,,,,,,4,8.95,9.65,10.35,11.05,0,0.7,0.1499999999999999,0.55,2.65,10,initial,36.05,323,348,373,398,0,9,9,9,9,0,,,,,,,1,0,1,0,0,19,19,23,,,,,,,,,,,,,,4,1.1655105000827461,4,0.35,0.5499999999999999,19.82361,return,1.197891600197181,,,,,,,,,,,,,,,,,p313,23,male,left_right_width,2025-12-02_12h00.26.549,exp1,2023.1.0,60.043651717684554,
,,,,,,,,,,,,,,,,5,8.65,9.325,10,10.675,11.35,0.675,0.125,0.55,3.25,10,match,36.05,312,336,361,385,409,9,9,9,9,9,,,,,,,1,0,1,0,0,20,20,29,,,,,,,,,,,,,,5,0.6716132999863476,5,0.55,0.6000000000000001,21.62576,return,0.8831345001235604,,,,,,,,,,,,,,,,,p313,23,male,left_right_width,2025-12-02_12h00.26.549,exp1,2023.1.0,60.043651717684554,
,,,,,,,,,,,,,,,,4,8.95,9.65,10.35,11.05,0,0.7,0.44999999999999996,0.25,2.3499999999999996,10,initial,36.05,323,348,373,398,0,9,9,9,9,0,,,,,,,1,0,1,0,0,21,21,24,,,,,,,,,,,,,,4,1.1976485000923276,4,0.4,0.30000000000000004,10.81288,return,1.1485890001058578,,,,,,,,,,,,,,,,,p313,23,male,left_right_width,2025-12-02_12h00.26.549,exp1,2023.1.0,60.043651717684554,
,,,,,,,,,,,,,,,,3,7.800000000000001,10,12.2,0,0,2.1999999999999997,1.7999999999999998,0.4,4.8,10,match,36.05,281,361,440,0,0,9,9,9,0,0,,,,,,,1,0,1,0,0,22,22,39,,,,,,,,,,,,,,3,1.2158794002607465,3,0.45,0.30000000000000004,10.81288,return,0.8783499002456665,,,,,,,,,,,,,,,,,p313,23,male,left_right_width,2025-12-02_12h00.26.549,exp1,2023.1.0,60.043651717684554,
,,,,,,,,,,,,,,,,3,9.1,10,10.9,0,0,0.9,0.65,0.25,2.05,10,initial,36.05,328,361,393,0,0,9,9,9,0,0,,,,,,,1,0,1,0,0,23,23,13,,,,,,,,,,,,,,3,1.1889908001758158,3,0.5,0.30000000000000004,10.81288,return,1.4915766001213342,,,,,,,,,,,,,,,,,p313,23,male,left_right_width,2025-12-02_12h00.26.549,exp1,2023.1.0,60.043651717684554,
,,,,,,,,,,,,,,,,4,8.95,9.65,10.35,11.05,0,0.7,0.29999999999999993,0.4,2.5,10,initial,36.05,323,348,373,398,0,9,9,9,9,0,,,,,,,1,0,1,0,0,24,24,26,,,,,,,,,,,,,,4,1.0292299001011997,4,0.25,0.35,12.61502,return,1.243187200045213,,,,,,,,,,,,,,,,,p313,23,male,left_right_width,2025-12-02_12h00.26.549,exp1,2023.1.0,60.043651717684554,
,,,,,,,,,,,,,,,,5,8.2,9.1,10,10.9,11.8,0.9,0.35,0.55,4.15,10,initial,36.05,296,328,361,393,425,9,9,9,9,9,,,,,,,1,0,1,0,0,25,25,46,,,,,,,,,,,,,,5,1.0237096000928432,5,0.4,0.5,18.02146,return,0.7429775001946837,,,,,,,,,,,,,,,,,p313,23,male,left_right_width,2025-12-02_12h00.26.549,exp1,2023.1.0,60.043651717684554,
,,,,,,,,,,,,,,,,3,8.9,10,11.1,0,0,1.1,0.8500000000000001,0.25,2.45,10,initial,36.05,321,361,400,0,0,9,9,9,0,0,,,,,,,1,0,1,0,0,26,26,2,,,,,,,,,,,,,,3,0.9827024000696838,3,0.3,0.25,9.01073,return,1.021115300245583,,,,,,,,,,,,,,,,,p313,23,male,left_right_width,2025-12-02_12h00.26.549,exp1,2023.1.0,60.043651717684554,
,,,,,,,,,,,,,,,,3,9.3,10,10.7,0,0,0.7,0.29999999999999993,0.4,1.8,10,initial,36.05,335,361,386,0,0,9,9,9,0,0,,,,,,,1,0,1,0,0,27,27,9,,,,,,,,,,,,,,3,0.8125813000369817,3,0.25,0.44999999999999996,16.21932,return,1.59459780016914,,,,,,,,,,,,,,,,,p313,23,male,left_right_width,2025-12-02_12h00.26.549,exp1,2023.1.0,60.043651717684554,
,,,,,,,,,,,,,,,,4,8.9,9.633333333333333,10.366666666666667,11.1,0,0.7333333333333333,0.18333333333333326,0.55,2.75,10,match,36.05,321,347,374,400,0,9,9,9,9,0,,,,,,,1,0,1,0,0,28,28,1,,,,,,,,,,,,,,4,0.8142169001512229,4,0.35,0.49999999999999994,18.02146,return,0.7970980000682175,,,,,,,,,,,,,,,,,p313,23,male,left_right_width,2025-12-02_12h00.26.549,exp1,2023.1.0,60.043651717684554,
,,,,,,,,,,,,,,,,3,9.3,10,10.7,0,0,0.7,0.44999999999999996,0.25,1.65,10,initial,36.05,335,361,386,0,0,9,9,9,0,0,,,,,,,1,0,1,0,0,29,29,7,,,,,,,,,,,,,,3,0.90177490003407,3,0.25,0.3,10.81288,return,0.8320392000023276,,,,,,,,,,,,,,,,,p313,23,male,left_right_width,2025-12-02_12h00.26.549,exp1,2023.1.0,60.043651717684554,
,,,,,,,,,,,,,,,,3,9.3,10,10.7,0,0,0.7,0.1499999999999999,0.55,1.95,10,initial,36.05,335,361,386,0,0,9,9,9,0,0,,,,,,,1,0,1,0,0,30,30,6,,,,,,,,,,,,,,3,0.8392470001708716,3,0.3,0.49999999999999994,18.02146,return,0.8996779001317918,,,,,,,,,,,,,,,,,p313,23,male,left_right_width,2025-12-02_12h00.26.549,exp1,2023.1.0,60.043651717684554,
,,,,,,,,,,,,,,,,5,7.8,8.9,10,11.1,12.2,1.1,0.55,0.55,4.95,10,initial,36.05,281,321,361,400,440,9,9,9,9,9,,,,,,,1,0,1,0,0,31,31,34,,,,,,,,,,,,,,5,0.9052601000294089,5,0.35,0.5499999999999999,19.82361,return,0.7718775002285838,,,,,,,,,,,,,,,,,p313,23,male,left_right_width,2025-12-02_12h00.26.549,exp1,2023.1.0,60.043651717684554,
,,,,,,,,,,,,,,,,4,8.35,9.45,10.55,11.65,0,1.1,0.7000000000000001,0.4,3.7,10,initial,36.05,301,341,380,420,0,9,9,9,9,0,,,,,,,1,0,1,0,0,32,32,21,,,,,,,,,,,,,,4,1.3070026002824306,4,0.2,0.44999999999999996,16.21932,return,2.0058147001545876,,,,,,,,,,,,,,,,,p313,23,male,left_right_width,2025-12-02_12h00.26.549,exp1,2023.1.0,60.043651717684554,
,,,,,,,,,,,,,,,,5,8.6,9.3,10,10.7,11.4,0.7,0.44999999999999996,0.25,3.05,10,initial,36.05,310,335,361,386,411,9,9,9,9,9,,,,,,,1,0,1,0,0,33,33,42,,,,,,,,,,,,,,5,0.8775493002030998,5,0.55,0.20000000000000007,7.20859,return,2.3452926999889314,,,,,,,,,,,,,,,,,p313,23,male,left_right_width,2025-12-02_12h00.26.549,exp1,2023.1.0,60.043651717684554,
,,,,,,,,,,,,,,,,3,8.2,10,11.8,0,0,1.8,1.55,0.25,3.85,10,match,36.05,296,361,425,0,0,9,9,9,0,0,,,,,,,1,0,1,0,0,34,34,49,,,,,,,,,,,,,,3,1.0269758002832532,3,0.55,0.30000000000000004,10.81288,return,2.439831600058824,,,,,,,,,,,,,,,,,p313,23,male,left_right_width,2025-12-02_12h00.26.549,exp1,2023.1.0,60.043651717684554,
,,,,,,,,,,,,,,,,5,8.2,9.1,10,10.9,11.8,0.9,0.65,0.25,3.85,10,initial,36.05,296,328,361,393,425,9,9,9,9,9,,,,,,,1,0,1,0,0,35,35,48,,,,,,,,,,,,,,5,1.0119515000842512,5,0.2,0.25,9.01073,return,1.195072100032121,,,,,,,,,,,,,,,,,p313,23,male,left_right_width,2025-12-02_12h00.26.549,exp1,2023.1.0,60.043651717684554,
,,,,,,,,,,,,,,,,3,8.9,10,11.1,0,0,1.1,0.7000000000000001,0.4,2.6000000000000005,10,initial,36.05,321,361,400,0,0,9,9,9,0,0,,,,,,,1,0,1,0,0,36,36,4,,,,,,,,,,,,,,4,0.8981103000696748,4,0.2,0.3,10.81288,return,1.7725953001063317,,,,,,,,,,,,,,,,,p313,23,male,left_right_width,2025-12-02_12h00.26.549,exp1,2023.1.0,60.043651717684554,
,,,,,,,,,,,,,,,,3,9.1,10,10.9,0,0,0.9,0.5,0.4,2.2,10,initial,36.05,328,361,393,0,0,9,9,9,0,0,,,,,,,1,0,1,0,0,37,37,15,,,,,,,,,,,,,,3,1.2831954001449049,3,0.25,0.35,12.61502,return,2.078955400036648,,,,,,,,,,,,,,,,,p313,23,male,left_right_width,2025-12-02_12h00.26.549,exp1,2023.1.0,60.043651717684554,
,,,,,,,,,,,,,,,,4,9.1,9.7,10.3,10.9,0,0.5999999999999999,0.3499999999999999,0.25,2.05,10,match,36.05,328,350,371,393,0,9,9,9,9,0,,,,,,,1,0,1,0,0,38,38,14,,,,,,,,,,,,,,4,1.0686722001992166,4,0.4,0.30000000000000004,10.81288,return,0.8327693999744952,,,,,,,,,,,,,,,,,p313,23,male,left_right_width,2025-12-02_12h00.26.549,exp1,2023.1.0,60.043651717684554,
,,,,,,,,,,,,,,,,5,8.275,9.1375,10,10.8625,11.725,0.8625,0.6125,0.25,3.7,10,match,36.05,298,329,361,392,423,9,9,9,9,9,,,,,,,1,0,1,0,0,39,39,22,,,,,,,,,,,,,,5,1.0496370000764728,5,0.25,0.25,9.01073,return,0.7992762001231313,,,,,,,,,,,,,,,,,p313,23,male,left_right_width,2025-12-02_12h00.26.549,exp1,2023.1.0,60.043651717684554,
,,,,,,,,,,,,,,,,3,8.6,10,11.4,0,0,1.4,1.15,0.25,3.05,10,match,36.05,310,361,411,0,0,9,9,9,0,0,,,,,,,1,0,1,0,0,40,40,43,,,,,,,,,,,,,,3,1.192201100056991,3,0.45,0.20000000000000007,7.20859,return,1.6871001000981778,,,,,,,,,,,,,,,,,p313,23,male,left_right_width,2025-12-02_12h00.26.549,exp1,2023.1.0,60.043651717684554,
,,,,,,,,,,,,,,,,3,9.1,10,10.9,0,0,0.9,0.35,0.55,2.35,10,initial,36.05,328,361,393,0,0,9,9,9,0,0,,,,,,,1,0,1,0,0,41,41,11,,,,,,,,,,,,,,3,1.0932313001248986,3,0.45,0.35000000000000003,12.61502,return,1.9605465000495315,,,,,,,,,,,,,,,,,p313,23,male,left_right_width,2025-12-02_12h00.26.549,exp1,2023.1.0,60.043651717684554,
,,,,,,,,,,,,,,,,5,8.95,9.475,10,10.525,11.05,0.525,0.275,0.25,2.35,10,match,36.05,323,342,361,379,398,9,9,9,9,9,,,,,,,1,0,1,0,0,42,42,25,,,,,,,,,,,,,,5,1.1146901999600232,5,0.45,0.25000000000000006,9.01073,return,1.5494012001436204,,,,,,,,,,,,,,,,,p313,23,male,left_right_width,2025-12-02_12h00.26.549,exp1,2023.1.0,60.043651717684554,
,,,,,,,,,,,,,,,,4,9.1,9.7,10.3,10.9,0,0.6000000000000001,0.20000000000000004,0.4,2.2,10,match,36.05,328,350,371,393,0,9,9,9,9,0,,,,,,,1,0,1,0,0,43,43,16,,,,,,,,,,,,,,4,0.9944903000723571,4,0.4,0.45,16.21932,return,0.5860657000448555,,,,,,,,,,,,,,,,,p313,23,male,left_right_width,2025-12-02_12h00.26.549,exp1,2023.1.0,60.043651717684554,
,,,,,,,,,,,,,,,,3,7.8,10,12.2,0,0,2.2,1.65,0.55,4.95,10,match,36.05,281,361,440,0,0,9,9,9,0,0,,,,,,,1,0,1,0,0,44,44,35,,,,,,,,,,,,,,3,1.123824000125751,3,0.35,0.5499999999999999,19.82361,return,1.3015851001255214,,,,,,,,,,,,,,,,,p313,23,male,left_right_width,2025-12-02_12h00.26.549,exp1,2023.1.0,60.043651717684554,
,,,,,,,,,,,,,,,,5,8.35,9.175,10,10.825,11.65,0.825,0.575,0.25,3.55,10,match,36.05,301,331,361,390,420,9,9,9,9,9,,,,,,,1,0,1,0,0,45,45,20,,,,,,,,,,,,,,5,0.9789575000759214,5,0.3,0.29999999999999966,10.81288,return,12.379833100130782,,,,,,,,,,,,,,,,,p313,23,male,left_right_width,2025-12-02_12h00.26.549,exp1,2023.1.0,60.043651717684554,
,,,,,,,,,,,,,,,,4,9.3,9.766666666666667,10.233333333333333,10.7,0,0.4666666666666667,0.06666666666666665,0.4,1.8,10,match,36.05,335,352,369,386,0,9,9,9,9,0,,,,,,,1,0,1,0,0,46,46,10,,,,,,,,,,,,,,4,2.629767799982801,4,0.25,0.35,12.61502,return,2.1716250001918525,,,,,,,,,,,,,,,,,p313,23,male,left_right_width,2025-12-02_12h00.26.549,exp1,2023.1.0,60.043651717684554,
,,,,,,,,,,,,,,,,5,8.35,9.175,10,10.825,11.65,0.8250000000000001,0.275,0.55,3.85,10,match,36.05,301,331,361,390,420,9,9,9,9,9,,,,,,,1,0,1,0,0,47,47,18,,,,,,,,,,,,,,5,1.0691949999891222,5,0.2,0.49999999999999994,18.02146,return,2.4342945001553744,,,,,,,,,,,,,,,,,p313,23,male,left_right_width,2025-12-02_12h00.26.549,exp1,2023.1.0,60.043651717684554,
,,,,,,,,,,,,,,,,3,7.8,10,12.2,0,0,2.2,1.9500000000000002,0.25,4.65,10,match,36.05,281,361,440,0,0,9,9,9,0,0,,,,,,,1,0,1,0,0,48,48,37,,,,,,,,,,,,,,3,1.053482900140807,3,0.55,0.20000000000000007,7.20859,return,1.5542371000628918,,,,,,,,,,,,,,,,,p313,23,male,left_right_width,2025-12-02_12h00.26.549,exp1,2023.1.0,60.043651717684554,
,,,,,,,,,,,,,,,,3,8.6,10,11.4,0,0,1.4,0.85,0.55,3.35,10,match,36.05,310,361,411,0,0,9,9,9,0,0,,,,,,,1,0,1,0,0,49,49,41,,,,,,,,,,,,,,3,0.8875014001969248,3,0.5,0.5,18.02146,return,1.058202699990943,,,,,,,,,,,,,,,,,p313,23,male,left_right_width,2025-12-02_12h00.26.549,exp1,2023.1.0,60.043651717684554,
,,,,,,,,,,,,,,,,3,8.2,10,11.8,0,0,1.7999999999999998,1.4,0.4,4,10,match,36.05,296,361,425,0,0,9,9,9,0,0,,,,,,,1,0,1,0,0,50,50,51,,,,,,,,,,,,,,3,0.8092001001350582,3,0.5,0.35000000000000003,12.61502,return,0.7270806001033634,,,,,,,,,,,,,,,,,p313,23,male,left_right_width,2025-12-02_12h00.26.549,exp1,2023.1.0,60.043651717684554,
,,,,,,,,,,,,,,,,4,8.65,9.55,10.45,11.35,0,0.9,0.35,0.55,3.25,10,initial,36.05,312,344,377,409,0,9,9,9,9,0,,,,,,,1,0,1,0,0,51,51,28,,,,,,,,,,,,,,4,0.9551002001389861,4,0.55,0.5,18.02146,return,0.9487448001746088,,,,,,,,,,,,,,,,,p313,23,male,left_right_width,2025-12-02_12h00.26.549,exp1,2023.1.0,60.043651717684554,
,,,,,,,,,,,,,,,,,,,,,,,,,,,,,,,,,,,,,,,,,,,,,1,0,1,0,,,,,,,,,,,,,,,,,,,,,,,,,,,,16733.283223099774,16733.283223099774,16733.283223099774,,,,,,,,,,,,p313,23,male,left_right_width,2025-12-02_12h00.26.549,exp1,2023.1.0,60.043651717684554,
,,,,,,,,,,,,,,,,3,8.2,10,11.8,0,0,1.7999999999999998,1.4,0.4,4,10,match,36.05,296,361,425,0,0,9,9,9,0,0,,,,,,,2,0,2,0,0,0,0,51,,,,,,,,,,,,,,3,1.2237572001758963,3,0.35,0.3,10.81288,return,1.508404100080952,,,,,,,,,,,,,,,,,p313,23,male,left_right_width,2025-12-02_12h00.26.549,exp1,2023.1.0,60.043651717684554,
,,,,,,,,,,,,,,,,3,9.3,10,10.7,0,0,0.7,0.29999999999999993,0.4,1.8,10,initial,36.05,335,361,386,0,0,9,9,9,0,0,,,,,,,2,0,2,0,0,1,1,9,,,,,,,,,,,,,,3,1.1415739001240581,3,0.55,0.35000000000000003,12.61502,return,1.4477113001048565,,,,,,,,,,,,,,,,,p313,23,male,left_right_width,2025-12-02_12h00.26.549,exp1,2023.1.0,60.043651717684554,
,,,,,,,,,,,,,,,,4,9.1,9.7,10.3,10.9,0,0.6000000000000001,0.20000000000000004,0.4,2.2,10,match,36.05,328,350,371,393,0,9,9,9,9,0,,,,,,,2,0,2,0,0,2,2,16,,,,,,,,,,,,,,4,0.9325503001455218,4,0.55,0.35000000000000003,12.61502,return,0.8470036000944674,,,,,,,,,,,,,,,,,p313,23,male,left_right_width,2025-12-02_12h00.26.549,exp1,2023.1.0,60.043651717684554,
,,,,,,,,,,,,,,,,3,8.2,10,11.8,0,0,1.8,1.25,0.55,4.15,10,match,36.05,296,361,425,0,0,9,9,9,0,0,,,,,,,2,0,2,0,0,3,3,47,,,,,,,,,,,,,,3,1.0431323000229895,3,0.5,0.5,18.02146,return,0.825300200143829,,,,,,,,,,,,,,,,,p313,23,male,left_right_width,2025-12-02_12h00.26.549,exp1,2023.1.0,60.043651717684554,
,,,,,,,,,,,,,,,,3,8.2,10,11.8,0,0,1.8,1.55,0.25,3.85,10,match,36.05,296,361,425,0,0,9,9,9,0,0,,,,,,,2,0,2,0,0,4,4,49,,,,,,,,,,,,,,3,0.9658669002819806,3,0.2,0.2,7.20859,return,1.2623452001716942,,,,,,,,,,,,,,,,,p313,23,male,left_right_width,2025-12-02_12h00.26.549,exp1,2023.1.0,60.043651717684554,
,,,,,,,,,,,,,,,,3,8.9,10,11.1,0,0,1.1,0.8500000000000001,0.25,2.45,10,initial,36.05,321,361,400,0,0,9,9,9,0,0,,,,,,,2,0,2,0,0,5,5,2,,,,,,,,,,,,,,3,0.9882720001041889,3,0.5,0.20000000000000007,7.20859,return,1.860541800269857,,,,,,,,,,,,,,,,,p313,23,male,left_right_width,2025-12-02_12h00.26.549,exp1,2023.1.0,60.043651717684554,
,,,,,,,,,,,,,,,,4,8.65,9.55,10.45,11.35,0,0.9,0.5,0.4,3.1,10,initial,36.05,312,344,377,409,0,9,9,9,9,0,,,,,,,2,0,2,0,0,6,6,32,,,,,,,,,,,,,,4,1.0519149000756443,4,0.3,0.3,10.81288,return,1.232498599914834,,,,,,,,,,,,,,,,,p313,23,male,left_right_width,2025-12-02_12h00.26.549,exp1,2023.1.0,60.043651717684554,
,,,,,,,,,,,,,,,,5,8.95,9.475,10,10.525,11.05,0.525,0.275,0.25,2.35,10,match,36.05,323,342,361,379,398,9,9,9,9,9,,,,,,,2,0,2,0,0,7,7,25,,,,,,,,,,,,,,5,1.2324919002130628,5,0.4,0.25000000000000006,9.01073,return,1.1346078000497073,,,,,,,,,,,,,,,,,p313,23,male,left_right_width,2025-12-02_12h00.26.549,exp1,2023.1.0,60.043651717684554,
,,,,,,,,,,,,,,,,4,8.35,9.45,10.55,11.65,0,1.1,0.55,0.55,3.8500000000000005,10,initial,36.05,301,341,380,420,0,9,9,9,9,0,,,,,,,2,0,2,0,0,8,8,17,,,,,,,,,,,,,,4,0.969438900006935,4,0.35,0.39999999999999997,14.41717,return,0.8486638001631945,,,,,,,,,,,,,,,,,p313,23,male,left_right_width,2025-12-02_12h00.26.549,exp1,2023.1.0,60.043651717684554,
,,,,,,,,,,,,,,,,5,8.35,9.175,10,10.825,11.65,0.825,0.575,0.25,3.55,10,match,36.05,301,331,361,390,420,9,9,9,9,9,,,,,,,2,0,2,0,0,9,9,20,,,,,,,,,,,,,,5,1.1123439001385123,5,0.55,0.25000000000000006,9.01073,return,1.4828465001191944,,,,,,,,,,,,,,,,,p313,23,male,left_right_width,2025-12-02_12h00.26.549,exp1,2023.1.0,60.043651717684554,
,,,,,,,,,,,,,,,,3,8.525,10,11.475,0,0,1.475,1.225,0.25,3.2,10,match,36.05,307,361,414,0,0,9,9,9,0,0,,,,,,,2,0,2,0,0,10,10,45,,,,,,,,,,,,,,3,1.3159239003434777,3,0.3,0.2,7.20859,return,0.9576586000621319,,,,,,,,,,,,,,,,,p313,23,male,left_right_width,2025-12-02_12h00.26.549,exp1,2023.1.0,60.043651717684554,
,,,,,,,,,,,,,,,,3,9.1,10,10.9,0,0,0.9,0.65,0.25,2.05,10,initial,36.05,328,361,393,0,0,9,9,9,0,0,,,,,,,2,0,2,0,0,11,11,13,,,,,,,,,,,,,,3,0.6161420000717044,3,0.55,0.25000000000000006,9.01073,return,1.104306299937889,,,,,,,,,,,,,,,,,p313,23,male,left_right_width,2025-12-02_12h00.26.549,exp1,2023.1.0,60.043651717684554,
,,,,,,,,,,,,,,,,5,8.275,9.1375,10,10.8625,11.725,0.8625,0.6125,0.25,3.7,10,match,36.05,298,329,361,392,423,9,9,9,9,9,,,,,,,2,0,2,0,0,12,12,22,,,,,,,,,,,,,,5,1.0240466000977904,5,0.4,0.25000000000000006,9.01073,return,1.1902333002071828,,,,,,,,,,,,,,,,,p313,23,male,left_right_width,2025-12-02_12h00.26.549,exp1,2023.1.0,60.043651717684554,
,,,,,,,,,,,,,,,,5,8.2,9.1,10,10.9,11.8,0.9,0.5,0.4,4,10,initial,36.05,296,328,361,393,425,9,9,9,9,9,,,,,,,2,0,2,0,0,13,13,50,,,,,,,,,,,,,,5,1.0523740001954138,5,0.3,0.35,12.61502,return,1.7939561000093818,,,,,,,,,,,,,,,,,p313,23,male,left_right_width,2025-12-02_12h00.26.549,exp1,2023.1.0,60.043651717684554,
,,,,,,,,,,,,,,,,4,8.95,9.65,10.35,11.05,0,0.7,0.29999999999999993,0.4,2.5,10,initial,36.05,323,348,373,398,0,9,9,9,9,0,,,,,,,2,0,2,0,0,14,14,26,,,,,,,,,,,,,,4,1.2612709002569318,4,0.5,0.35000000000000003,12.61502,return,0.7296731001697481,,,,,,,,,,,,,,,,,p313,23,male,left_right_width,2025-12-02_12h00.26.549,exp1,2023.1.0,60.043651717684554,
,,,,,,,,,,,,,,,,3,9.3,10,10.7,0,0,0.7,0.44999999999999996,0.25,1.65,10,initial,36.05,335,361,386,0,0,9,9,9,0,0,,,,,,,2,0,2,0,0,15,15,7,,,,,,,,,,,,,,3,0.5860564999748021,3,0.45,0.30000000000000004,10.81288,return,1.6489980001933873,,,,,,,,,,,,,,,,,p313,23,male,left_right_width,2025-12-02_12h00.26.549,exp1,2023.1.0,60.043651717684554,
,,,,,,,,,,,,,,,,3,9.1,10,10.9,0,0,0.9,0.5,0.4,2.2,10,initial,36.05,328,361,393,0,0,9,9,9,0,0,,,,,,,2,0,2,0,0,16,16,15,,,,,,,,,,,,,,3,1.0464513001497835,3,0.3,0.35,12.61502,return,1.8991508001927286,,,,,,,,,,,,,,,,,p313,23,male,left_right_width,2025-12-02_12h00.26.549,exp1,2023.1.0,60.043651717684554,
,,,,,,,,,,,,,,,,3,7.800000000000001,10,12.2,0,0,2.1999999999999997,1.7999999999999998,0.4,4.8,10,match,36.05,281,361,440,0,0,9,9,9,0,0,,,,,,,2,0,2,0,0,17,17,39,,,,,,,,,,,,,,3,1.6738003001082689,3,0.3,0.35,12.61502,return,0.7573583000339568,,,,,,,,,,,,,,,,,p313,23,male,left_right_width,2025-12-02_12h00.26.549,exp1,2023.1.0,60.043651717684554,
,,,,,,,,,,,,,,,,5,7.8,8.9,10,11.1,12.2,1.1,0.55,0.55,4.95,10,initial,36.05,281,321,361,400,440,9,9,9,9,9,,,,,,,2,0,2,0,0,18,18,34,,,,,,,,,,,,,,5,0.947649400215596,5,0.45,0.5,18.02146,return,0.9731678001116961,,,,,,,,,,,,,,,,,p313,23,male,left_right_width,2025-12-02_12h00.26.549,exp1,2023.1.0,60.043651717684554,
,,,,,,,,,,,,,,,,5,8.2,9.1,10,10.9,11.8,0.9,0.65,0.25,3.85,10,initial,36.05,296,328,361,393,425,9,9,9,9,9,,,,,,,2,0,2,0,0,19,19,48,,,,,,,,,,,,,,5,1.449429600033909,5,0.4,0.25000000000000006,9.01073,return,0.9268843000754714,,,,,,,,,,,,,,,,,p313,23,male,left_right_width,2025-12-02_12h00.26.549,exp1,2023.1.0,60.043651717684554,
,,,,,,,,,,,,,,,,4,9.3,9.766666666666667,10.233333333333333,10.7,0,0.4666666666666667,0.06666666666666665,0.4,1.8,10,match,36.05,335,352,369,386,0,9,9,9,9,0,,,,,,,2,0,2,0,0,20,20,10,,,,,,,,,,,,,,3,1.3253210000693798,3,0.2,0.44999999999999996,16.21932,return,2.4392990001942962,,,,,,,,,,,,,,,,,p313,23,male,left_right_width,2025-12-02_12h00.26.549,exp1,2023.1.0,60.043651717684554,
,,,,,,,,,,,,,,,,5,7.8,8.9,10,11.1,12.2,1.1,0.7000000000000001,0.4,4.800000000000001,10,initial,36.05,281,321,361,400,440,9,9,9,9,9,,,,,,,2,0,2,0,0,21,21,38,,,,,,,,,,,,,,5,1.1340112001635134,5,0.25,0.39999999999999997,14.41717,return,10.09524040017277,,,,,,,,,,,,,,,,,p313,23,male,left_right_width,2025-12-02_12h00.26.549,exp1,2023.1.0,60.043651717684554,
,,,,,,,,,,,,,,,,3,9.1,10,10.9,0,0,0.9,0.35,0.55,2.35,10,initial,36.05,328,361,393,0,0,9,9,9,0,0,,,,,,,2,0,2,0,0,22,22,11,,,,,,,,,,,,,,3,0.9957551001571119,3,0.4,0.5,18.02146,return,0.635078800143674,,,,,,,,,,,,,,,,,p313,23,male,left_right_width,2025-12-02_12h00.26.549,exp1,2023.1.0,60.043651717684554,
,,,,,,,,,,,,,,,,3,8.9,10,11.1,0,0,1.1,0.7000000000000001,0.4,2.6000000000000005,10,initial,36.05,321,361,400,0,0,9,9,9,0,0,,,,,,,2,0,2,0,0,23,23,4,,,,,,,,,,,,,,3,0.7963456001598388,3,0.35,0.44999999999999996,16.21932,return,0.7790502002462745,,,,,,,,,,,,,,,,,p313,23,male,left_right_width,2025-12-02_12h00.26.549,exp1,2023.1.0,60.043651717684554,
,,,,,,,,,,,,,,,,3,7.8,10,12.2,0,0,2.2,1.9500000000000002,0.25,4.65,10,match,36.05,281,361,440,0,0,9,9,9,0,0,,,,,,,2,0,2,0,0,24,24,37,,,,,,,,,,,,,,3,0.46823420003056526,3,0.5,0.30000000000000004,10.81288,return,0.9751495001837611,,,,,,,,,,,,,,,,,p313,23,male,left_right_width,2025-12-02_12h00.26.549,exp1,2023.1.0,60.043651717684554,
,,,,,,,,,,,,,,,,3,8.6,10,11.4,0,0,1.4,1.15,0.25,3.05,10,match,36.05,310,361,411,0,0,9,9,9,0,0,,,,,,,2,0,2,0,0,25,25,43,,,,,,,,,,,,,,3,0.46361330011859536,3,0.35,0.3,10.81288,return,0.9236819001380354,,,,,,,,,,,,,,,,,p313,23,male,left_right_width,2025-12-02_12h00.26.549,exp1,2023.1.0,60.043651717684554,
,,,,,,,,,,,,,,,,5,8.65,9.325,10,10.675,11.35,0.675,0.42500000000000004,0.25,2.95,10,match,36.05,312,336,361,385,409,9,9,9,9,9,,,,,,,2,0,2,0,0,26,26,31,,,,,,,,,,,,,,5,1.0978029002435505,5,0.3,0.25,9.01073,return,0.8610082999803126,,,,,,,,,,,,,,,,,p313,23,male,left_right_width,2025-12-02_12h00.26.549,exp1,2023.1.0,60.043651717684554,
,,,,,,,,,,,,,,,,5,8.65,9.325,10,10.675,11.35,0.675,0.275,0.4,3.1,10,match,36.05,312,336,361,385,409,9,9,9,9,9,,,,,,,2,0,2,0,0,27,27,33,,,,,,,,,,,,,,5,1.3844721000641584,5,0.25,0.35,12.61502,return,0.943647300126031,,,,,,,,,,,,,,,,,p313,23,male,left_right_width,2025-12-02_12h00.26.549,exp1,2023.1.0,60.043651717684554,
,,,,,,,,,,,,,,,,5,8.2,9.1,10,10.9,11.8,0.9,0.35,0.55,4.15,10,initial,36.05,296,328,361,393,425,9,9,9,9,9,,,,,,,2,0,2,0,0,28,28,46,,,,,,,,,,,,,,5,0.5568940001539886,5,0.55,0.5,18.02146,return,0.9325975002720952,,,,,,,,,,,,,,,,,p313,23,male,left_right_width,2025-12-02_12h00.26.549,exp1,2023.1.0,60.043651717684554,
,,,,,,,,,,,,,,,,4,8.65,9.55,10.45,11.35,0,0.9,0.65,0.25,2.95,10,initial,36.05,312,344,377,409,0,9,9,9,9,0,,,,,,,2,0,2,0,0,29,29,30,,,,,,,,,,,,,,4,0.5623958001378924,4,0.2,0.25,9.01073,return,1.1484403002541512,,,,,,,,,,,,,,,,,p313,23,male,left_right_width,2025-12-02_12h00.26.549,exp1,2023.1.0,60.043651717684554,
,,,,,,,,,,,,,,,,5,8.95,9.475,10,10.525,11.05,0.525,0.125,0.4,2.5,10,match,36.05,323,342,361,379,398,9,9,9,9,9,,,,,,,2,0,2,0,0,30,30,27,,,,,,,,,,,,,,5,1.5892018999438733,5,0.2,0.35,12.61502,return,1.4769328001420945,,,,,,,,,,,,,,,,,p313,23,male,left_right_width,2025-12-02_12h00.26.549,exp1,2023.1.0,60.043651717684554,
,,,,,,,,,,,,,,,,5,8.6,9.3,10,10.7,11.4,0.7,0.29999999999999993,0.4,3.1999999999999997,10,initial,36.05,310,335,361,386,411,9,9,9,9,9,,,,,,,2,0,2,0,0,31,31,44,,,,,,,,,,,,,,5,0.48574940022081137,5,0.55,0.4,14.41717,return,1.0578493000939488,,,,,,,,,,,,,,,,,p313,23,male,left_right_width,2025-12-02_12h00.26.549,exp1,2023.1.0,60.043651717684554,
,,,,,,,,,,,,,,,,4,8.95,9.65,10.35,11.05,0,0.7,0.44999999999999996,0.25,2.3499999999999996,10,initial,36.05,323,348,373,398,0,9,9,9,9,0,,,,,,,2,0,2,0,0,32,32,24,,,,,,,,,,,,,,4,0.5768326001707464,4,0.2,0.35,12.61502,return,2.184309600153938,,,,,,,,,,,,,,,,,p313,23,male,left_right_width,2025-12-02_12h00.26.549,exp1,2023.1.0,60.043651717684554,
,,,,,,,,,,,,,,,,4,9.1,9.7,10.3,10.9,0,0.5999999999999999,0.3499999999999999,0.25,2.05,10,match,36.05,328,350,371,393,0,9,9,9,9,0,,,,,,,2,0,2,0,0,33,33,14,,,,,,,,,,,,,,4,0.4943495001643896,4,0.2,0.35,12.61502,return,1.322497600223869,,,,,,,,,,,,,,,,,p313,23,male,left_right_width,2025-12-02_12h00.26.549,exp1,2023.1.0,60.043651717684554,
,,,,,,,,,,,,,,,,5,8.35,9.175,10,10.825,11.65,0.8250000000000001,0.275,0.55,3.85,10,match,36.05,301,331,361,390,420,9,9,9,9,9,,,,,,,2,0,2,0,0,34,34,18,,,,,,,,,,,,,,5,1.6712013999931514,5,0.35,0.3,10.81288,return,1.9395291002001613,,,,,,,,,,,,,,,,,p313,23,male,left_right_width,2025-12-02_12h00.26.549,exp1,2023.1.0,60.043651717684554,
,,,,,,,,,,,,,,,,4,8.35,9.45,10.55,11.65,0,1.1,0.7000000000000001,0.4,3.7,10,initial,36.05,301,341,380,420,0,9,9,9,9,0,,,,,,,2,0,2,0,0,35,35,21,,,,,,,,,,,,,,4,0.9831473999656737,4,0.2,0.44999999999999996,16.21932,return,1.7909984001889825,,,,,,,,,,,,,,,,,p313,23,male,left_right_width,2025-12-02_12h00.26.549,exp1,2023.1.0,60.043651717684554,
,,,,,,,,,,,,,,,,4,8.9,9.633333333333333,10.366666666666667,11.1,0,0.7333333333333333,0.18333333333333326,0.55,2.75,10,match,36.05,321,347,374,400,0,9,9,9,9,0,,,,,,,2,0,2,0,0,36,36,1,,,,,,,,,,,,,,4,0.451700400095433,4,0.2,0.44999999999999996,16.21932,return,1.0731536003295332,,,,,,,,,,,,,,,,,p313,23,male,left_right_width,2025-12-02_12h00.26.549,exp1,2023.1.0,60.043651717684554,
,,,,,,,,,,,,,,,,5,8.6,9.3,10,10.7,11.4,0.7,0.44999999999999996,0.25,3.05,10,initial,36.05,310,335,361,386,411,9,9,9,9,9,,,,,,,2,0,2,0,0,37,37,42,,,,,,,,,,,,,,5,0.9116613001096994,5,0.25,0.2,7.20859,return,0.9064664000179619,,,,,,,,,,,,,,,,,p313,23,male,left_right_width,2025-12-02_12h00.26.549,exp1,2023.1.0,60.043651717684554,
,,,,,,,,,,,,,,,,5,7.8,8.9,10,11.1,12.2,1.1,0.8500000000000001,0.25,4.65,10,initial,36.05,281,321,361,400,440,9,9,9,9,9,,,,,,,2,0,2,0,0,38,38,36,,,,,,,,,,,,,,5,1.042414000025019,5,0.45,0.30000000000000004,10.81288,return,1.1438861000351608,,,,,,,,,,,,,,,,,p313,23,male,left_right_width,2025-12-02_12h00.26.549,exp1,2023.1.0,60.043651717684554,
,,,,,,,,,,,,,,,,4,8.65,9.55,10.45,11.35,0,0.9,0.35,0.55,3.25,10,initial,36.05,312,344,377,409,0,9,9,9,9,0,,,,,,,2,0,2,0,0,39,39,28,,,,,,,,,,,,,,4,1.4349185002502054,4,0.3,0.5499999999999999,19.82361,return,1.344751600176096,,,,,,,,,,,,,,,,,p313,23,male,left_right_width,2025-12-02_12h00.26.549,exp1,2023.1.0,60.043651717684554,
,,,,,,,,,,,,,,,,3,8.9,10,11.1,0,0,1.1,0.55,0.55,2.75,10,initial,36.05,321,361,400,0,0,9,9,9,0,0,,,,,,,2,0,2,0,0,40,40,0,,,,,,,,,,,,,,3,0.8184408999513835,3,0.5,0.45,16.21932,return,0.8966963000129908,,,,,,,,,,,,,,,,,p313,23,male,left_right_width,2025-12-02_12h00.26.549,exp1,2023.1.0,60.043651717684554,
,,,,,,,,,,,,,,,,4,8.825,9.608333333333333,10.391666666666667,11.175,0,0.7833333333333333,0.5333333333333333,0.25,2.6,10,match,36.05,318,346,375,403,0,9,9,9,9,0,,,,,,,2,0,2,0,0,41,41,5,,,,,,,,,,,,,,4,1.1657254002057016,4,0.4,0.25000000000000006,9.01073,return,1.437901700148359,,,,,,,,,,,,,,,,,p313,23,male,left_right_width,2025-12-02_12h00.26.549,exp1,2023.1.0,60.043651717684554,
,,,,,,,,,,,,,,,,5,8.6,9.3,10,10.7,11.4,0.7,0.1499999999999999,0.55,3.3499999999999996,10,initial,36.05,310,335,361,386,411,9,9,9,9,9,,,,,,,2,0,2,0,0,42,42,40,,,,,,,,,,,,,,5,0.8847094001248479,5,0.2,0.44999999999999996,16.21932,return,1.5522590002510697,,,,,,,,,,,,,,,,,p313,23,male,left_right_width,2025-12-02_12h00.26.549,exp1,2023.1.0,60.043651717684554,
,,,,,,,,,,,,,,,,4,9.1,9.7,10.3,10.9,0,0.6,0.04999999999999997,0.55,2.35,10,match,36.05,328,350,371,393,0,9,9,9,9,0,,,,,,,2,0,2,0,0,43,43,12,,,,,,,,,,,,,,4,1.108961600344628,4,0.55,0.55,19.82361,return,1.5604719000402838,,,,,,,,,,,,,,,,,p313,23,male,left_right_width,2025-12-02_12h00.26.549,exp1,2023.1.0,60.043651717684554,
,,,,,,,,,,,,,,,,4,8.35,9.45,10.55,11.65,0,1.1,0.8500000000000001,0.25,3.5500000000000003,10,initial,36.05,301,341,380,420,0,9,9,9,9,0,,,,,,,2,0,2,0,0,44,44,19,,,,,,,,,,,,,,4,1.2753064001444727,4,0.35,0.2,7.20859,return,1.2226549002807587,,,,,,,,,,,,,,,,,p313,23,male,left_right_width,2025-12-02_12h00.26.549,exp1,2023.1.0,60.043651717684554,
,,,,,,,,,,,,,,,,3,7.8,10,12.2,0,0,2.2,1.65,0.55,4.95,10,match,36.05,281,361,440,0,0,9,9,9,0,0,,,,,,,2,0,2,0,0,45,45,35,,,,,,,,,,,,,,3,0.9506366001442075,3,0.25,0.5499999999999999,19.82361,return,1.4556996002793312,,,,,,,,,,,,,,,,,p313,23,male,left_right_width,2025-12-02_12h00.26.549,exp1,2023.1.0,60.043651717684554,
,,,,,,,,,,,,,,,,4,8.95,9.65,10.35,11.05,0,0.7,0.1499999999999999,0.55,2.65,10,initial,36.05,323,348,373,398,0,9,9,9,9,0,,,,,,,2,0,2,0,0,46,46,23,,,,,,,,,,,,,,4,0.9405052000656724,4,0.4,0.5,18.02146,return,0.5978288999758661,,,,,,,,,,,,,,,,,p313,23,male,left_right_width,2025-12-02_12h00.26.549,exp1,2023.1.0,60.043651717684554,
,,,,,,,,,,,,,,,,4,8.9,9.633333333333333,10.366666666666667,11.1,0,0.7333333333333334,0.4833333333333334,0.25,2.45,10,match,36.05,321,347,374,400,0,9,9,9,9,0,,,,,,,2,0,2,0,0,47,47,3,,,,,,,,,,,,,,4,0.951041900087148,4,0.2,0.2,7.20859,return,0.9598511001095176,,,,,,,,,,,,,,,,,p313,23,male,left_right_width,2025-12-02_12h00.26.549,exp1,2023.1.0,60.043651717684554,
,,,,,,,,,,,,,,,,4,9.3,9.766666666666667,10.233333333333333,10.7,0,0.4666666666666667,0.21666666666666665,0.25,1.65,10,match,36.05,335,352,369,386,0,9,9,9,9,0,,,,,,,2,0,2,0,0,48,48,8,,,,,,,,,,,,,,4,0.555959400255233,4,0.3,0.2,7.20859,return,0.7410629002843052,,,,,,,,,,,,,,,,,p313,23,male,left_right_width,2025-12-02_12h00.26.549,exp1,2023.1.0,60.043651717684554,
,,,,,,,,,,,,,,,,3,9.3,10,10.7,0,0,0.7,0.1499999999999999,0.55,1.95,10,initial,36.05,335,361,386,0,0,9,9,9,0,0,,,,,,,2,0,2,0,0,49,49,6,,,,,,,,,,,,,,3,0.7982190002221614,3,0.3,0.44999999999999996,16.21932,return,1.0205856000538915,,,,,,,,,,,,,,,,,p313,23,male,left_right_width,2025-12-02_12h00.26.549,exp1,2023.1.0,60.043651717684554,
,,,,,,,,,,,,,,,,3,8.6,10,11.4,0,0,1.4,0.85,0.55,3.35,10,match,36.05,310,361,411,0,0,9,9,9,0,0,,,,,,,2,0,2,0,0,50,50,41,,,,,,,,,,,,,,3,0.4174018001649529,3,0.55,0.55,19.82361,return,0.7988499002531171,,,,,,,,,,,,,,,,,p313,23,male,left_right_width,2025-12-02_12h00.26.549,exp1,2023.1.0,60.043651717684554,
,,,,,,,,,,,,,,,,5,8.65,9.325,10,10.675,11.35,0.675,0.125,0.55,3.25,10,match,36.05,312,336,361,385,409,9,9,9,9,9,,,,,,,2,0,2,0,0,51,51,29,,,,,,,,,,,,,,5,0.9025346001144499,5,0.25,0.49999999999999994,18.02146,return,1.5847124001011252,,,,,,,,,,,,,,,,,p313,23,male,left_right_width,2025-12-02_12h00.26.549,exp1,2023.1.0,60.043651717684554,
,,,,,,,,,,,,,,,,,,,,,,,,,,,,,,,,,,,,,,,,,,,,,2,0,2,0,,,,,,,,,,,,,,,,,,,,,,,,,,,,16949.19984609983,16949.19984609983,16949.19984609983,,,,,,,,,,,,p313,23,male,left_right_width,2025-12-02_12h00.26.549,exp1,2023.1.0,60.043651717684554,
,,,,,,,,,,,,,,,,4,8.95,9.65,10.35,11.05,0,0.7,0.29999999999999993,0.4,2.5,10,initial,36.05,323,348,373,398,0,9,9,9,9,0,,,,,,,3,0,3,0,0,0,0,26,,,,,,,,,,,,,,4,1.1452216999605298,4,0.3,0.35,12.61502,return,1.258240600116551,,,,,,,,,,,,,,,,,p313,23,male,left_right_width,2025-12-02_12h00.26.549,exp1,2023.1.0,60.043651717684554,
,,,,,,,,,,,,,,,,3,8.6,10,11.4,0,0,1.4,1.15,0.25,3.05,10,match,36.05,310,361,411,0,0,9,9,9,0,0,,,,,,,3,0,3,0,0,1,1,43,,,,,,,,,,,,,,3,0.9683358001057059,3,0.25,0.25,9.01073,return,1.200908500002697,,,,,,,,,,,,,,,,,p313,23,male,left_right_width,2025-12-02_12h00.26.549,exp1,2023.1.0,60.043651717684554,
,,,,,,,,,,,,,,,,5,8.2,9.1,10,10.9,11.8,0.9,0.5,0.4,4,10,initial,36.05,296,328,361,393,425,9,9,9,9,9,,,,,,,3,0,3,0,0,2,2,50,,,,,,,,,,,,,,5,1.001400199951604,5,0.3,0.3,10.81288,return,0.8964154000859708,,,,,,,,,,,,,,,,,p313,23,male,left_right_width,2025-12-02_12h00.26.549,exp1,2023.1.0,60.043651717684554,
,,,,,,,,,,,,,,,,4,8.35,9.45,10.55,11.65,0,1.1,0.55,0.55,3.8500000000000005,10,initial,36.05,301,341,380,420,0,9,9,9,9,0,,,,,,,3,0,3,0,0,3,3,17,,,,,,,,,,,,,,4,1.0116995002608746,4,0.45,0.30000000000000004,10.81288,return,0.8749837002251297,,,,,,,,,,,,,,,,,p313,23,male,left_right_width,2025-12-02_12h00.26.549,exp1,2023.1.0,60.043651717684554,
,,,,,,,,,,,,,,,,5,8.95,9.475,10,10.525,11.05,0.525,0.275,0.25,2.35,10,match,36.05,323,342,361,379,398,9,9,9,9,9,,,,,,,3,0,3,0,0,4,4,25,,,,,,,,,,,,,,5,0.8405540001112968,5,0.4,0.20000000000000007,7.20859,return,0.805073200026527,,,,,,,,,,,,,,,,,p313,23,male,left_right_width,2025-12-02_12h00.26.549,exp1,2023.1.0,60.043651717684554,
,,,,,,,,,,,,,,,,3,8.2,10,11.8,0,0,1.8,1.25,0.55,4.15,10,match,36.05,296,361,425,0,0,9,9,9,0,0,,,,,,,3,0,3,0,0,5,5,47,,,,,,,,,,,,,,3,1.0736624002456665,3,0.5,0.5,18.02146,return,0.6304978001862764,,,,,,,,,,,,,,,,,p313,23,male,left_right_width,2025-12-02_12h00.26.549,exp1,2023.1.0,60.043651717684554,
,,,,,,,,,,,,,,,,4,8.65,9.55,10.45,11.35,0,0.9,0.35,0.55,3.25,10,initial,36.05,312,344,377,409,0,9,9,9,9,0,,,,,,,3,0,3,0,0,6,6,28,,,,,,,,,,,,,,4,0.9269017002079636,4,0.5,0.5,18.02146,return,0.5679956001695246,,,,,,,,,,,,,,,,,p313,23,male,left_right_width,2025-12-02_12h00.26.549,exp1,2023.1.0,60.043651717684554,
,,,,,,,,,,,,,,,,5,7.8,8.9,10,11.1,12.2,1.1,0.55,0.55,4.95,10,initial,36.05,281,321,361,400,440,9,9,9,9,9,,,,,,,3,0,3,0,0,7,7,34,,,,,,,,,,,,,,5,0.755020400043577,5,0.5,0.5,18.02146,return,0.5161607000045478,,,,,,,,,,,,,,,,,p313,23,male,left_right_width,2025-12-02_12h00.26.549,exp1,2023.1.0,60.043651717684554,
,,,,,,,,,,,,,,,,5,8.2,9.1,10,10.9,11.8,0.9,0.65,0.25,3.85,10,initial,36.05,296,328,361,393,425,9,9,9,9,9,,,,,,,3,0,3,0,0,8,8,48,,,,,,,,,,,,,,5,0.8407856002449989,5,0.3,0.2,7.20859,return,0.7103122002445161,,,,,,,,,,,,,,,,,p313,23,male,left_right_width,2025-12-02_12h00.26.549,exp1,2023.1.0,60.043651717684554,
,,,,,,,,,,,,,,,,5,8.35,9.175,10,10.825,11.65,0.8250000000000001,0.275,0.55,3.85,10,match,36.05,301,331,361,390,420,9,9,9,9,9,,,,,,,3,0,3,0,0,9,9,18,,,,,,,,,,,,,,5,0.7842556000687182,5,0.55,0.45,16.21932,return,1.5516919000074267,,,,,,,,,,,,,,,,,p313,23,male,left_right_width,2025-12-02_12h00.26.549,exp1,2023.1.0,60.043651717684554,
,,,,,,,,,,,,,,,,3,9.1,10,10.9,0,0,0.9,0.5,0.4,2.2,10,initial,36.05,328,361,393,0,0,9,9,9,0,0,,,,,,,3,0,3,0,0,10,10,15,,,,,,,,,,,,,,3,0.8018898002337664,3,0.2,0.44999999999999996,16.21932,return,1.1843997000250965,,,,,,,,,,,,,,,,,p313,23,male,left_right_width,2025-12-02_12h00.26.549,exp1,2023.1.0,60.043651717684554,
,,,,,,,,,,,,,,,,3,9.3,10,10.7,0,0,0.7,0.44999999999999996,0.25,1.65,10,initial,36.05,335,361,386,0,0,9,9,9,0,0,,,,,,,3,0,3,0,0,11,11,7,,,,,,,,,,,,,,3,0.8598486999981105,3,0.45,0.30000000000000004,10.81288,return,0.8231862001121044,,,,,,,,,,,,,,,,,p313,23,male,left_right_width,2025-12-02_12h00.26.549,exp1,2023.1.0,60.043651717684554,
,,,,,,,,,,,,,,,,4,8.9,9.633333333333333,10.366666666666667,11.1,0,0.7333333333333333,0.18333333333333326,0.55,2.75,10,match,36.05,321,347,374,400,0,9,9,9,9,0,,,,,,,3,0,3,0,0,12,12,1,,,,,,,,,,,,,,4,0.7925635001156479,4,0.25,0.5499999999999999,19.82361,return,1.4632851001806557,,,,,,,,,,,,,,,,,p313,23,male,left_right_width,2025-12-02_12h00.26.549,exp1,2023.1.0,60.043651717684554,
,,,,,,,,,,,,,,,,5,8.2,9.1,10,10.9,11.8,0.9,0.35,0.55,4.15,10,initial,36.05,296,328,361,393,425,9,9,9,9,9,,,,,,,3,0,3,0,0,13,13,46,,,,,,,,,,,,,,5,0.8939050000626594,5,0.55,0.55,19.82361,return,0.9684403000865132,,,,,,,,,,,,,,,,,p313,23,male,left_right_width,2025-12-02_12h00.26.549,exp1,2023.1.0,60.043651717684554,
,,,,,,,,,,,,,,,,3,8.525,10,11.475,0,0,1.475,1.225,0.25,3.2,10,match,36.05,307,361,414,0,0,9,9,9,0,0,,,,,,,3,0,3,0,0,14,14,45,,,,,,,,,,,,,,3,0.5184433001559228,3,0.4,0.25000000000000006,9.01073,return,2.3361820003483444,,,,,,,,,,,,,,,,,p313,23,male,left_right_width,2025-12-02_12h00.26.549,exp1,2023.1.0,60.043651717684554,
,,,,,,,,,,,,,,,,4,8.95,9.65,10.35,11.05,0,0.7,0.44999999999999996,0.25,2.3499999999999996,10,initial,36.05,323,348,373,398,0,9,9,9,9,0,,,,,,,3,0,3,0,0,15,15,24,,,,,,,,,,,,,,4,2.011367100290954,4,0.3,0.25,9.01073,return,1.1131035001017153,,,,,,,,,,,,,,,,,p313,23,male,left_right_width,2025-12-02_12h00.26.549,exp1,2023.1.0,60.043651717684554,
,,,,,,,,,,,,,,,,3,8.2,10,11.8,0,0,1.8,1.55,0.25,3.85,10,match,36.05,296,361,425,0,0,9,9,9,0,0,,,,,,,3,0,3,0,0,16,16,49,,,,,,,,,,,,,,3,0.9433312001638114,3,0.35,0.2,7.20859,return,1.16046839999035,,,,,,,,,,,,,,,,,p313,23,male,left_right_width,2025-12-02_12h00.26.549,exp1,2023.1.0,60.043651717684554,
,,,,,,,,,,,,,,,,5,8.275,9.1375,10,10.8625,11.725,0.8625,0.6125,0.25,3.7,10,match,36.05,298,329,361,392,423,9,9,9,9,9,,,,,,,3,0,3,0,0,17,17,22,,,,,,,,,,,,,,5,1.2578658000566065,5,0.4,0.25000000000000006,9.01073,return,1.8304183001164347,,,,,,,,,,,,,,,,,p313,23,male,left_right_width,2025-12-02_12h00.26.549,exp1,2023.1.0,60.043651717684554,
,,,,,,,,,,,,,,,,3,8.9,10,11.1,0,0,1.1,0.55,0.55,2.75,10,initial,36.05,321,361,400,0,0,9,9,9,0,0,,,,,,,3,0,3,0,0,18,18,0,,,,,,,,,,,,,,3,1.2471706001088023,3,0.2,0.49999999999999994,18.02146,return,1.1961509000975639,,,,,,,,,,,,,,,,,p313,23,male,left_right_width,2025-12-02_12h00.26.549,exp1,2023.1.0,60.043651717684554,
,,,,,,,,,,,,,,,,4,8.65,9.55,10.45,11.35,0,0.9,0.65,0.25,2.95,10,initial,36.05,312,344,377,409,0,9,9,9,9,0,,,,,,,3,0,3,0,0,19,19,30,,,,,,,,,,,,,,4,0.8513383001554757,4,0.2,0.25,9.01073,return,1.3767553002107888,,,,,,,,,,,,,,,,,p313,23,male,left_right_width,2025-12-02_12h00.26.549,exp1,2023.1.0,60.043651717684554,
,,,,,,,,,,,,,,,,3,8.9,10,11.1,0,0,1.1,0.7000000000000001,0.4,2.6000000000000005,10,initial,36.05,321,361,400,0,0,9,9,9,0,0,,,,,,,3,0,3,0,0,20,20,4,,,,,,,,,,,,,,3,0.9658747999928892,3,0.25,0.44999999999999996,16.21932,return,1.8234302999917418,,,,,,,,,,,,,,,,,p313,23,male,left_right_width,2025-12-02_12h00.26.549,exp1,2023.1.0,60.043651717684554,
,,,,,,,,,,,,,,,,5,8.35,9.175,10,10.825,11.65,0.825,0.575,0.25,3.55,10,match,36.05,301,331,361,390,420,9,9,9,9,9,,,,,,,3,0,3,0,0,21,21,20,,,,,,,,,,,,,,5,0.9191835001111031,5,0.55,0.20000000000000007,7.20859,return,1.553091400070116,,,,,,,,,,,,,,,,,p313,23,male,left_right_width,2025-12-02_12h00.26.549,exp1,2023.1.0,60.043651717684554,
,,,,,,,,,,,,,,,,5,8.65,9.325,10,10.675,11.35,0.675,0.42500000000000004,0.25,2.95,10,match,36.05,312,336,361,385,409,9,9,9,9,9,,,,,,,3,0,3,0,0,22,22,31,,,,,,,,,,,,,,5,0.8538224999792874,5,0.35,0.15000000000000002,5.40644,return,0.6898173000663519,,,,,,,,,,,,,,,,,p313,23,male,left_right_width,2025-12-02_12h00.26.549,exp1,2023.1.0,60.043651717684554,
,,,,,,,,,,,,,,,,4,8.35,9.45,10.55,11.65,0,1.1,0.8500000000000001,0.25,3.5500000000000003,10,initial,36.05,301,341,380,420,0,9,9,9,9,0,,,,,,,3,0,3,0,0,23,23,19,,,,,,,,,,,,,,4,0.9442758001387119,4,0.45,0.20000000000000007,7.20859,return,0.8739599999971688,,,,,,,,,,,,,,,,,p313,23,male,left_right_width,2025-12-02_12h00.26.549,exp1,2023.1.0,60.043651717684554,
,,,,,,,,,,,,,,,,5,8.6,9.3,10,10.7,11.4,0.7,0.1499999999999999,0.55,3.3499999999999996,10,initial,36.05,310,335,361,386,411,9,9,9,9,9,,,,,,,3,0,3,0,0,24,24,40,,,,,,,,,,,,,,5,1.1933895000256598,5,0.3,0.65,23.4279,return,1.6250410003121942,,,,,,,,,,,,,,,,,p313,23,male,left_right_width,2025-12-02_12h00.26.549,exp1,2023.1.0,60.043651717684554,
,,,,,,,,,,,,,,,,3,8.9,10,11.1,0,0,1.1,0.8500000000000001,0.25,2.45,10,initial,36.05,321,361,400,0,0,9,9,9,0,0,,,,,,,3,0,3,0,0,25,25,2,,,,,,,,,,,,,,3,1.0885177003219724,3,0.3,0.2,7.20859,return,0.9156501002144068,,,,,,,,,,,,,,,,,p313,23,male,left_right_width,2025-12-02_12h00.26.549,exp1,2023.1.0,60.043651717684554,
,,,,,,,,,,,,,,,,5,8.6,9.3,10,10.7,11.4,0.7,0.29999999999999993,0.4,3.1999999999999997,10,initial,36.05,310,335,361,386,411,9,9,9,9,9,,,,,,,3,0,3,0,0,26,26,44,,,,,,,,,,,,,,5,0.8994571000803262,5,0.45,0.30000000000000004,10.81288,return,1.0052477002609521,,,,,,,,,,,,,,,,,p313,23,male,left_right_width,2025-12-02_12h00.26.549,exp1,2023.1.0,60.043651717684554,
,,,,,,,,,,,,,,,,4,9.1,9.7,10.3,10.9,0,0.5999999999999999,0.3499999999999999,0.25,2.05,10,match,36.05,328,350,371,393,0,9,9,9,9,0,,,,,,,3,0,3,0,0,27,27,14,,,,,,,,,,,,,,4,0.9661459000781178,4,0.25,0.3,10.81288,return,1.390635000076145,,,,,,,,,,,,,,,,,p313,23,male,left_right_width,2025-12-02_12h00.26.549,exp1,2023.1.0,60.043651717684554,
,,,,,,,,,,,,,,,,5,8.95,9.475,10,10.525,11.05,0.525,0.125,0.4,2.5,10,match,36.05,323,342,361,379,398,9,9,9,9,9,,,,,,,3,0,3,0,0,28,28,27,,,,,,,,,,,,,,5,1.0245930003002286,5,0.45,0.35000000000000003,12.61502,return,1.2864128001965582,,,,,,,,,,,,,,,,,p313,23,male,left_right_width,2025-12-02_12h00.26.549,exp1,2023.1.0,60.043651717684554,
,,,,,,,,,,,,,,,,4,9.1,9.7,10.3,10.9,0,0.6000000000000001,0.20000000000000004,0.4,2.2,10,match,36.05,328,350,371,393,0,9,9,9,9,0,,,,,,,3,0,3,0,0,29,29,16,,,,,,,,,,,,,,4,0.9762677000835538,4,0.2,0.49999999999999994,18.02146,return,2.7603955999948084,,,,,,,,,,,,,,,,,p313,23,male,left_right_width,2025-12-02_12h00.26.549,exp1,2023.1.0,60.043651717684554,
,,,,,,,,,,,,,,,,5,7.8,8.9,10,11.1,12.2,1.1,0.8500000000000001,0.25,4.65,10,initial,36.05,281,321,361,400,440,9,9,9,9,9,,,,,,,3,0,3,0,0,30,30,36,,,,,,,,,,,,,,5,1.0342981000430882,5,0.35,0.2,7.20859,return,1.3111155000515282,,,,,,,,,,,,,,,,,p313,23,male,left_right_width,2025-12-02_12h00.26.549,exp1,2023.1.0,60.043651717684554,
,,,,,,,,,,,,,,,,3,7.8,10,12.2,0,0,2.2,1.9500000000000002,0.25,4.65,10,match,36.05,281,361,440,0,0,9,9,9,0,0,,,,,,,3,0,3,0,0,31,31,37,,,,,,,,,,,,,,3,1.0654777002055198,3,0.35,0.2,7.20859,return,1.4049528001341969,,,,,,,,,,,,,,,,,p313,23,male,left_right_width,2025-12-02_12h00.26.549,exp1,2023.1.0,60.043651717684554,
,,,,,,,,,,,,,,,,4,8.65,9.55,10.45,11.35,0,0.9,0.5,0.4,3.1,10,initial,36.05,312,344,377,409,0,9,9,9,9,0,,,,,,,3,0,3,0,0,32,32,32,,,,,,,,,,,,,,4,1.0903482001740485,4,0.5,0.35000000000000003,12.61502,return,1.2847217002417892,,,,,,,,,,,,,,,,,p313,23,male,left_right_width,2025-12-02_12h00.26.549,exp1,2023.1.0,60.043651717684554,
,,,,,,,,,,,,,,,,3,7.8,10,12.2,0,0,2.2,1.65,0.55,4.95,10,match,36.05,281,361,440,0,0,9,9,9,0,0,,,,,,,3,0,3,0,0,33,33,35,,,,,,,,,,,,,,3,0.915840300032869,3,0.25,0.39999999999999997,14.41717,return,1.598250700160861,,,,,,,,,,,,,,,,,p313,23,male,left_right_width,2025-12-02_12h00.26.549,exp1,2023.1.0,60.043651717684554,
,,,,,,,,,,,,,,,,3,8.6,10,11.4,0,0,1.4,0.85,0.55,3.35,10,match,36.05,310,361,411,0,0,9,9,9,0,0,,,,,,,3,0,3,0,0,34,34,41,,,,,,,,,,,,,,3,0.9294847003184259,3,0.5,0.4,14.41717,return,1.0183256000746042,,,,,,,,,,,,,,,,,p313,23,male,left_right_width,2025-12-02_12h00.26.549,exp1,2023.1.0,60.043651717684554,
,,,,,,,,,,,,,,,,3,9.3,10,10.7,0,0,0.7,0.1499999999999999,0.55,1.95,10,initial,36.05,335,361,386,0,0,9,9,9,0,0,,,,,,,3,0,3,0,0,35,35,6,,,,,,,,,,,,,,3,1.3183172000572085,3,0.4,0.35000000000000003,12.61502,return,0.8154188999906182,,,,,,,,,,,,,,,,,p313,23,male,left_right_width,2025-12-02_12h00.26.549,exp1,2023.1.0,60.043651717684554,
,,,,,,,,,,,,,,,,4,8.95,9.65,10.35,11.05,0,0.7,0.1499999999999999,0.55,2.65,10,initial,36.05,323,348,373,398,0,9,9,9,9,0,,,,,,,3,0,3,0,0,36,36,23,,,,,,,,,,,,,,4,1.0409699999727309,4,0.5,0.5,18.02146,return,0.8862526000011712,,,,,,,,,,,,,,,,,p313,23,male,left_right_width,2025-12-02_12h00.26.549,exp1,2023.1.0,60.043651717684554,
,,,,,,,,,,,,,,,,4,9.1,9.7,10.3,10.9,0,0.6,0.04999999999999997,0.55,2.35,10,match,36.05,328,350,371,393,0,9,9,9,9,0,,,,,,,3,0,3,0,0,37,37,12,,,,,,,,,,,,,,4,0.5717665001284331,4,0.35,0.6,21.62576,return,2.16383620002307,,,,,,,,,,,,,,,,,p313,23,male,left_right_width,2025-12-02_12h00.26.549,exp1,2023.1.0,60.043651717684554,
,,,,,,,,,,,,,,,,4,9.3,9.766666666666667,10.233333333333333,10.7,0,0.4666666666666667,0.21666666666666665,0.25,1.65,10,match,36.05,335,352,369,386,0,9,9,9,9,0,,,,,,,3,0,3,0,0,38,38,8,,,,,,,,,,,,,,4,0.6563262001145631,4,0.25,0.25,9.01073,return,0.7887428000103682,,,,,,,,,,,,,,,,,p313,23,male,left_right_width,2025-12-02_12h00.26.549,exp1,2023.1.0,60.043651717684554,
,,,,,,,,,,,,,,,,5,8.65,9.325,10,10.675,11.35,0.675,0.125,0.55,3.25,10,match,36.05,312,336,361,385,409,9,9,9,9,9,,,,,,,3,0,3,0,0,39,39,29,,,,,,,,,,,,,,5,1.1697521000169218,5,0.35,0.6,21.62576,return,0.9782394000794739,,,,,,,,,,,,,,,,,p313,23,male,left_right_width,2025-12-02_12h00.26.549,exp1,2023.1.0,60.043651717684554,
,,,,,,,,,,,,,,,,3,8.2,10,11.8,0,0,1.7999999999999998,1.4,0.4,4,10,match,36.05,296,361,425,0,0,9,9,9,0,0,,,,,,,3,0,3,0,0,40,40,51,,,,,,,,,,,,,,3,1.156116700032726,3,0.35,0.49999999999999994,18.02146,return,0.90092259994708,,,,,,,,,,,,,,,,,p313,23,male,left_right_width,2025-12-02_12h00.26.549,exp1,2023.1.0,60.043651717684554,
,,,,,,,,,,,,,,,,3,7.800000000000001,10,12.2,0,0,2.1999999999999997,1.7999999999999998,0.4,4.8,10,match,36.05,281,361,440,0,0,9,9,9,0,0,,,,,,,3,0,3,0,0,41,41,39,,,,,,,,,,,,,,3,0.519871500087902,3,0.45,0.45,16.21932,return,0.4971328000538051,,,,,,,,,,,,,,,,,p313,23,male,left_right_width,2025-12-02_12h00.26.549,exp1,2023.1.0,60.043651717684554,
,,,,,,,,,,,,,,,,3,9.1,10,10.9,0,0,0.9,0.65,0.25,2.05,10,initial,36.05,328,361,393,0,0,9,9,9,0,0,,,,,,,3,0,3,0,0,42,42,13,,,,,,,,,,,,,,3,0.6078572999686003,3,0.5,0.25000000000000006,9.01073,return,1.0624120000284165,,,,,,,,,,,,,,,,,p313,23,male,left_right_width,2025-12-02_12h00.26.549,exp1,2023.1.0,60.043651717684554,
,,,,,,,,,,,,,,,,5,8.65,9.325,10,10.675,11.35,0.675,0.275,0.4,3.1,10,match,36.05,312,336,361,385,409,9,9,9,9,9,,,,,,,3,0,3,0,0,43,43,33,,,,,,,,,,,,,,5,0.9469234000425786,5,0.5,0.45,16.21932,return,1.0996633002068847,,,,,,,,,,,,,,,,,p313,23,male,left_right_width,2025-12-02_12h00.26.549,exp1,2023.1.0,60.043651717684554,
,,,,,,,,,,,,,,,,4,8.9,9.633333333333333,10.366666666666667,11.1,0,0.7333333333333334,0.4833333333333334,0.25,2.45,10,match,36.05,321,347,374,400,0,9,9,9,9,0,,,,,,,3,0,3,0,0,44,44,3,,,,,,,,,,,,,,4,0.918417900102213,4,0.25,0.25,9.01073,return,0.8330971002578735,,,,,,,,,,,,,,,,,p313,23,male,left_right_width,2025-12-02_12h00.26.549,exp1,2023.1.0,60.043651717684554,
,,,,,,,,,,,,,,,,4,8.35,9.45,10.55,11.65,0,1.1,0.7000000000000001,0.4,3.7,10,initial,36.05,301,341,380,420,0,9,9,9,9,0,,,,,,,3,0,3,0,0,45,45,21,,,,,,,,,,,,,,4,0.7821803002152592,4,0.35,0.39999999999999997,14.41717,return,0.7174741001799703,,,,,,,,,,,,,,,,,p313,23,male,left_right_width,2025-12-02_12h00.26.549,exp1,2023.1.0,60.043651717684554,
,,,,,,,,,,,,,,,,4,8.825,9.608333333333333,10.391666666666667,11.175,0,0.7833333333333333,0.5333333333333333,0.25,2.6,10,match,36.05,318,346,375,403,0,9,9,9,9,0,,,,,,,3,0,3,0,0,46,46,5,,,,,,,,,,,,,,4,0.9061823000665754,4,0.35,0.35,12.61502,return,0.46798030007630587,,,,,,,,,,,,,,,,,p313,23,male,left_right_width,2025-12-02_12h00.26.549,exp1,2023.1.0,60.043651717684554,
,,,,,,,,,,,,,,,,5,8.6,9.3,10,10.7,11.4,0.7,0.44999999999999996,0.25,3.05,10,initial,36.05,310,335,361,386,411,9,9,9,9,9,,,,,,,3,0,3,0,0,47,47,42,,,,,,,,,,,,,,5,0.8184119001962245,5,0.55,0.25000000000000006,9.01073,return,2.0658935003448278,,,,,,,,,,,,,,,,,p313,23,male,left_right_width,2025-12-02_12h00.26.549,exp1,2023.1.0,60.043651717684554,
,,,,,,,,,,,,,,,,3,9.1,10,10.9,0,0,0.9,0.35,0.55,2.35,10,initial,36.05,328,361,393,0,0,9,9,9,0,0,,,,,,,3,0,3,0,0,48,48,11,,,,,,,,,,,,,,3,1.39818250015378,3,0.25,0.49999999999999994,18.02146,return,1.2296685001347214,,,,,,,,,,,,,,,,,p313,23,male,left_right_width,2025-12-02_12h00.26.549,exp1,2023.1.0,60.043651717684554,
,,,,,,,,,,,,,,,,5,7.8,8.9,10,11.1,12.2,1.1,0.7000000000000001,0.4,4.800000000000001,10,initial,36.05,281,321,361,400,440,9,9,9,9,9,,,,,,,3,0,3,0,0,49,49,38,,,,,,,,,,,,,,5,1.1238764002919197,5,0.45,0.45,16.21932,return,0.6289523001760244,,,,,,,,,,,,,,,,,p313,23,male,left_right_width,2025-12-02_12h00.26.549,exp1,2023.1.0,60.043651717684554,
,,,,,,,,,,,,,,,,3,9.3,10,10.7,0,0,0.7,0.29999999999999993,0.4,1.8,10,initial,36.05,335,361,386,0,0,9,9,9,0,0,,,,,,,3,0,3,0,0,50,50,9,,,,,,,,,,,,,,3,1.2618849000427872,3,0.3,0.44999999999999996,16.21932,return,1.6256355000659823,,,,,,,,,,,,,,,,,p313,23,male,left_right_width,2025-12-02_12h00.26.549,exp1,2023.1.0,60.043651717684554,
,,,,,,,,,,,,,,,,4,9.3,9.766666666666667,10.233333333333333,10.7,0,0.4666666666666667,0.06666666666666665,0.4,1.8,10,match,36.05,335,352,369,386,0,9,9,9,9,0,,,,,,,3,0,3,0,0,51,51,10,,,,,,,,,,,,,,4,0.882745000300929,4,0.2,0.44999999999999996,16.21932,return,1.5984154001343995,,,,,,,,,,,,,,,,,p313,23,male,left_right_width,2025-12-02_12h00.26.549,exp1,2023.1.0,60.043651717684554,
,,,,,,,,,,,,,,,,,,,,,,,,,,,,,,,,,,,,,,,,,,,,,3,0,3,0,,,,,,,,,,,,,,,,,,,,,,,,,,,,17156.899892599788,17156.899892599788,17156.899892599788,,,,,,,,,,,,p313,23,male,left_right_width,2025-12-02_12h00.26.549,exp1,2023.1.0,60.043651717684554,
,,,,,,,,,,,,,,,,3,9.1,10,10.9,0,0,0.9,0.5,0.4,2.2,10,initial,36.05,328,361,393,0,0,9,9,9,0,0,,,,,,,4,0,4,0,0,0,0,15,,,,,,,,,,,,,,3,0.8258424000814557,3,0.4,0.25000000000000006,9.01073,return,0.6961281001567841,,,,,,,,,,,,,,,,,p313,23,male,left_right_width,2025-12-02_12h00.26.549,exp1,2023.1.0,60.043651717684554,
,,,,,,,,,,,,,,,,4,9.1,9.7,10.3,10.9,0,0.5999999999999999,0.3499999999999999,0.25,2.05,10,match,36.05,328,350,371,393,0,9,9,9,9,0,,,,,,,4,0,4,0,0,1,1,14,,,,,,,,,,,,,,4,0.7296534001361579,4,0.4,0.25000000000000006,9.01073,return,0.7476575002074242,,,,,,,,,,,,,,,,,p313,23,male,left_right_width,2025-12-02_12h00.26.549,exp1,2023.1.0,60.043651717684554,
,,,,,,,,,,,,,,,,5,8.65,9.325,10,10.675,11.35,0.675,0.42500000000000004,0.25,2.95,10,match,36.05,312,336,361,385,409,9,9,9,9,9,,,,,,,4,0,4,0,0,2,2,31,,,,,,,,,,,,,,5,0.6704397001303732,5,0.45,0.25000000000000006,9.01073,return,0.7224555001594126,,,,,,,,,,,,,,,,,p313,23,male,left_right_width,2025-12-02_12h00.26.549,exp1,2023.1.0,60.043651717684554,
,,,,,,,,,,,,,,,,5,8.65,9.325,10,10.675,11.35,0.675,0.275,0.4,3.1,10,match,36.05,312,336,361,385,409,9,9,9,9,9,,,,,,,4,0,4,0,0,3,3,33,,,,,,,,,,,,,,6,1.6397418000269681,6,0.2,0.3,10.81288,return,1.7826180001720786,,,,,,,,,,,,,,,,,p313,23,male,left_right_width,2025-12-02_12h00.26.549,exp1,2023.1.0,60.043651717684554,
,,,,,,,,,,,,,,,,4,9.1,9.7,10.3,10.9,0,0.6,0.04999999999999997,0.55,2.35,10,match,36.05,328,350,371,393,0,9,9,9,9,0,,,,,,,4,0,4,0,0,4,4,12,,,,,,,,,,,,,,4,1.1196225001476705,4,0.5,0.45,16.21932,return,1.1051670000888407,,,,,,,,,,,,,,,,,p313,23,male,left_right_width,2025-12-02_12h00.26.549,exp1,2023.1.0,60.043651717684554,
,,,,,,,,,,,,,,,,5,8.65,9.325,10,10.675,11.35,0.675,0.125,0.55,3.25,10,match,36.05,312,336,361,385,409,9,9,9,9,9,,,,,,,4,0,4,0,0,5,5,29,,,,,,,,,,,,,,5,0.9154656000901014,5,0.4,0.4,14.41717,return,0.6846400001086295,,,,,,,,,,,,,,,,,p313,23,male,left_right_width,2025-12-02_12h00.26.549,exp1,2023.1.0,60.043651717684554,
,,,,,,,,,,,,,,,,3,9.3,10,10.7,0,0,0.7,0.1499999999999999,0.55,1.95,10,initial,36.05,335,361,386,0,0,9,9,9,0,0,,,,,,,4,0,4,0,0,6,6,6,,,,,,,,,,,,,,3,1.3439442000817508,3,0.3,0.39999999999999997,14.41717,return,0.6647107000462711,,,,,,,,,,,,,,,,,p313,23,male,left_right_width,2025-12-02_12h00.26.549,exp1,2023.1.0,60.043651717684554,
,,,,,,,,,,,,,,,,4,8.65,9.55,10.45,11.35,0,0.9,0.5,0.4,3.1,10,initial,36.05,312,344,377,409,0,9,9,9,9,0,,,,,,,4,0,4,0,0,7,7,32,,,,,,,,,,,,,,4,1.1527595003135502,4,0.55,0.45,16.21932,return,0.9617945000063628,,,,,,,,,,,,,,,,,p313,23,male,left_right_width,2025-12-02_12h00.26.549,exp1,2023.1.0,60.043651717684554,
,,,,,,,,,,,,,,,,5,8.6,9.3,10,10.7,11.4,0.7,0.29999999999999993,0.4,3.1999999999999997,10,initial,36.05,310,335,361,386,411,9,9,9,9,9,,,,,,,4,0,4,0,0,8,8,44,,,,,,,,,,,,,,5,0.8569712000899017,5,0.25,0.44999999999999996,16.21932,return,1.2372664001304656,,,,,,,,,,,,,,,,,p313,23,male,left_right_width,2025-12-02_12h00.26.549,exp1,2023.1.0,60.043651717684554,
,,,,,,,,,,,,,,,,4,8.95,9.65,10.35,11.05,0,0.7,0.44999999999999996,0.25,2.3499999999999996,10,initial,36.05,323,348,373,398,0,9,9,9,9,0,,,,,,,4,0,4,0,0,9,9,24,,,,,,,,,,,,,,4,0.9224343001842499,4,0.25,0.3,10.81288,return,1.0289837000891566,,,,,,,,,,,,,,,,,p313,23,male,left_right_width,2025-12-02_12h00.26.549,exp1,2023.1.0,60.043651717684554,
,,,,,,,,,,,,,,,,3,8.525,10,11.475,0,0,1.475,1.225,0.25,3.2,10,match,36.05,307,361,414,0,0,9,9,9,0,0,,,,,,,4,0,4,0,0,10,10,45,,,,,,,,,,,,,,3,1.0705315002705902,3,0.55,0.25000000000000006,9.01073,return,1.2823624000884593,,,,,,,,,,,,,,,,,p313,23,male,left_right_width,2025-12-02_12h00.26.549,exp1,2023.1.0,60.043651717684554,
,,,,,,,,,,,,,,,,4,8.95,9.65,10.35,11.05,0,0.7,0.1499999999999999,0.55,2.65,10,initial,36.05,323,348,373,398,0,9,9,9,9,0,,,,,,,4,0,4,0,0,11,11,23,,,,,,,,,,,,,,4,0.8406075001694262,4,0.2,0.44999999999999996,16.21932,return,1.1106073001865298,,,,,,,,,,,,,,,,,p313,23,male,left_right_width,2025-12-02_12h00.26.549,exp1,2023.1.0,60.043651717684554,
,,,,,,,,,,,,,,,,3,7.8,10,12.2,0,0,2.2,1.65,0.55,4.95,10,match,36.05,281,361,440,0,0,9,9,9,0,0,,,,,,,4,0,4,0,0,12,12,35,,,,,,,,,,,,,,3,1.0429793002549559,3,0.45,0.5,18.02146,return,1.0960760999005288,,,,,,,,,,,,,,,,,p313,23,male,left_right_width,2025-12-02_12h00.26.549,exp1,2023.1.0,60.043651717684554,
,,,,,,,,,,,,,,,,5,8.95,9.475,10,10.525,11.05,0.525,0.125,0.4,2.5,10,match,36.05,323,342,361,379,398,9,9,9,9,9,,,,,,,4,0,4,0,0,13,13,27,,,,,,,,,,,,,,5,0.9897185999434441,5,0.25,0.35,12.61502,return,1.124201900092885,,,,,,,,,,,,,,,,,p313,23,male,left_right_width,2025-12-02_12h00.26.549,exp1,2023.1.0,60.043651717684554,
,,,,,,,,,,,,,,,,4,8.35,9.45,10.55,11.65,0,1.1,0.8500000000000001,0.25,3.5500000000000003,10,initial,36.05,301,341,380,420,0,9,9,9,9,0,,,,,,,4,0,4,0,0,14,14,19,,,,,,,,,,,,,,4,1.1365455000195652,4,0.3,0.25,9.01073,return,0.8497522999532521,,,,,,,,,,,,,,,,,p313,23,male,left_right_width,2025-12-02_12h00.26.549,exp1,2023.1.0,60.043651717684554,
,,,,,,,,,,,,,,,,5,7.8,8.9,10,11.1,12.2,1.1,0.7000000000000001,0.4,4.800000000000001,10,initial,36.05,281,321,361,400,440,9,9,9,9,9,,,,,,,4,0,4,0,0,15,15,38,,,,,,,,,,,,,,5,1.065808400278911,5,0.2,0.35,12.61502,return,0.830025200266391,,,,,,,,,,,,,,,,,p313,23,male,left_right_width,2025-12-02_12h00.26.549,exp1,2023.1.0,60.043651717684554,
,,,,,,,,,,,,,,,,3,8.9,10,11.1,0,0,1.1,0.55,0.55,2.75,10,initial,36.05,321,361,400,0,0,9,9,9,0,0,,,,,,,4,0,4,0,0,16,16,0,,,,,,,,,,,,,,3,1.1038981000892818,3,0.5,0.45,16.21932,return,1.0274019001517445,,,,,,,,,,,,,,,,,p313,23,male,left_right_width,2025-12-02_12h00.26.549,exp1,2023.1.0,60.043651717684554,
,,,,,,,,,,,,,,,,5,8.6,9.3,10,10.7,11.4,0.7,0.1499999999999999,0.55,3.3499999999999996,10,initial,36.05,310,335,361,386,411,9,9,9,9,9,,,,,,,4,0,4,0,0,17,17,40,,,,,,,,,,,,,,5,0.8749987999908626,5,0.25,0.44999999999999996,16.21932,return,1.7658963999710977,,,,,,,,,,,,,,,,,p313,23,male,left_right_width,2025-12-02_12h00.26.549,exp1,2023.1.0,60.043651717684554,
,,,,,,,,,,,,,,,,4,9.3,9.766666666666667,10.233333333333333,10.7,0,0.4666666666666667,0.21666666666666665,0.25,1.65,10,match,36.05,335,352,369,386,0,9,9,9,9,0,,,,,,,4,0,4,0,0,18,18,8,,,,,,,,,,,,,,4,1.0404169000685215,4,0.4,0.30000000000000004,10.81288,return,1.1421549001242965,,,,,,,,,,,,,,,,,p313,23,male,left_right_width,2025-12-02_12h00.26.549,exp1,2023.1.0,60.043651717684554,
,,,,,,,,,,,,,,,,3,8.2,10,11.8,0,0,1.8,1.55,0.25,3.85,10,match,36.05,296,361,425,0,0,9,9,9,0,0,,,,,,,4,0,4,0,0,19,19,49,,,,,,,,,,,,,,3,1.0937069000210613,3,0.25,0.25,9.01073,return,0.9384407000616193,,,,,,,,,,,,,,,,,p313,23,male,left_right_width,2025-12-02_12h00.26.549,exp1,2023.1.0,60.043651717684554,
,,,,,,,,,,,,,,,,5,8.6,9.3,10,10.7,11.4,0.7,0.44999999999999996,0.25,3.05,10,initial,36.05,310,335,361,386,411,9,9,9,9,9,,,,,,,4,0,4,0,0,20,20,42,,,,,,,,,,,,,,5,0.8443354002665728,5,0.45,0.25000000000000006,9.01073,return,1.0178980000782758,,,,,,,,,,,,,,,,,p313,23,male,left_right_width,2025-12-02_12h00.26.549,exp1,2023.1.0,60.043651717684554,
,,,,,,,,,,,,,,,,3,8.9,10,11.1,0,0,1.1,0.7000000000000001,0.4,2.6000000000000005,10,initial,36.05,321,361,400,0,0,9,9,9,0,0,,,,,,,4,0,4,0,0,21,21,4,,,,,,,,,,,,,,3,0.8659599001985043,3,0.55,0.4,14.41717,return,1.0557585002388805,,,,,,,,,,,,,,,,,p313,23,male,left_right_width,2025-12-02_12h00.26.549,exp1,2023.1.0,60.043651717684554,
,,,,,,,,,,,,,,,,4,9.1,9.7,10.3,10.9,0,0.6000000000000001,0.20000000000000004,0.4,2.2,10,match,36.05,328,350,371,393,0,9,9,9,9,0,,,,,,,4,0,4,0,0,22,22,16,,,,,,,,,,,,,,4,0.8339966002386063,4,0.5,0.35000000000000003,12.61502,return,0.8798681001644582,,,,,,,,,,,,,,,,,p313,23,male,left_right_width,2025-12-02_12h00.26.549,exp1,2023.1.0,60.043651717684554,
,,,,,,,,,,,,,,,,3,8.6,10,11.4,0,0,1.4,1.15,0.25,3.05,10,match,36.05,310,361,411,0,0,9,9,9,0,0,,,,,,,4,0,4,0,0,23,23,43,,,,,,,,,,,,,,3,0.8680036002770066,3,0.55,0.35000000000000003,12.61502,return,1.1346340000163764,,,,,,,,,,,,,,,,,p313,23,male,left_right_width,2025-12-02_12h00.26.549,exp1,2023.1.0,60.043651717684554,
,,,,,,,,,,,,,,,,5,8.35,9.175,10,10.825,11.65,0.825,0.575,0.25,3.55,10,match,36.05,301,331,361,390,420,9,9,9,9,9,,,,,,,4,0,4,0,0,24,24,20,,,,,,,,,,,,,,5,1.081636599963531,5,0.3,0.3,10.81288,return,0.9418722002301365,,,,,,,,,,,,,,,,,p313,23,male,left_right_width,2025-12-02_12h00.26.549,exp1,2023.1.0,60.043651717684554,
,,,,,,,,,,,,,,,,5,8.2,9.1,10,10.9,11.8,0.9,0.65,0.25,3.85,10,initial,36.05,296,328,361,393,425,9,9,9,9,9,,,,,,,4,0,4,0,0,25,25,48,,,,,,,,,,,,,,5,0.7026476999744773,5,0.55,0.30000000000000004,10.81288,return,1.1057236001361161,,,,,,,,,,,,,,,,,p313,23,male,left_right_width,2025-12-02_12h00.26.549,exp1,2023.1.0,60.043651717684554,
,,,,,,,,,,,,,,,,4,8.65,9.55,10.45,11.35,0,0.9,0.35,0.55,3.25,10,initial,36.05,312,344,377,409,0,9,9,9,9,0,,,,,,,4,0,4,0,0,26,26,28,,,,,,,,,,,,,,4,0.6850940000731498,4,0.4,0.55,19.82361,return,1.0729257999919355,,,,,,,,,,,,,,,,,p313,23,male,left_right_width,2025-12-02_12h00.26.549,exp1,2023.1.0,60.043651717684554,
,,,,,,,,,,,,,,,,3,7.800000000000001,10,12.2,0,0,2.1999999999999997,1.7999999999999998,0.4,4.8,10,match,36.05,281,361,440,0,0,9,9,9,0,0,,,,,,,4,0,4,0,0,27,27,39,,,,,,,,,,,,,,3,1.1759569002315402,3,0.45,0.4,14.41717,return,1.8161939000710845,,,,,,,,,,,,,,,,,p313,23,male,left_right_width,2025-12-02_12h00.26.549,exp1,2023.1.0,60.043651717684554,
,,,,,,,,,,,,,,,,3,9.3,10,10.7,0,0,0.7,0.44999999999999996,0.25,1.65,10,initial,36.05,335,361,386,0,0,9,9,9,0,0,,,,,,,4,0,4,0,0,28,28,7,,,,,,,,,,,,,,4,1.1043833000585437,4,0.4,0.4,14.41717,return,0.9778518001548946,,,,,,,,,,,,,,,,,p313,23,male,left_right_width,2025-12-02_12h00.26.549,exp1,2023.1.0,60.043651717684554,
,,,,,,,,,,,,,,,,5,7.8,8.9,10,11.1,12.2,1.1,0.8500000000000001,0.25,4.65,10,initial,36.05,281,321,361,400,440,9,9,9,9,9,,,,,,,4,0,4,0,0,29,29,36,,,,,,,,,,,,,,5,1.6775400000624359,5,0.2,0.35,12.61502,return,1.304994400124997,,,,,,,,,,,,,,,,,p313,23,male,left_right_width,2025-12-02_12h00.26.549,exp1,2023.1.0,60.043651717684554,
,,,,,,,,,,,,,,,,3,8.6,10,11.4,0,0,1.4,0.85,0.55,3.35,10,match,36.05,310,361,411,0,0,9,9,9,0,0,,,,,,,4,0,4,0,0,30,30,41,,,,,,,,,,,,,,3,1.1600536000914872,3,0.3,0.49999999999999994,18.02146,return,1.2875381002668291,,,,,,,,,,,,,,,,,p313,23,male,left_right_width,2025-12-02_12h00.26.549,exp1,2023.1.0,60.043651717684554,
,,,,,,,,,,,,,,,,4,8.35,9.45,10.55,11.65,0,1.1,0.7000000000000001,0.4,3.7,10,initial,36.05,301,341,380,420,0,9,9,9,9,0,,,,,,,4,0,4,0,0,31,31,21,,,,,,,,,,,,,,4,1.478610800113529,4,0.2,0.35,12.61502,return,1.243097900180146,,,,,,,,,,,,,,,,,p313,23,male,left_right_width,2025-12-02_12h00.26.549,exp1,2023.1.0,60.043651717684554,
,,,,,,,,,,,,,,,,4,9.3,9.766666666666667,10.233333333333333,10.7,0,0.4666666666666667,0.06666666666666665,0.4,1.8,10,match,36.05,335,352,369,386,0,9,9,9,9,0,,,,,,,4,0,4,0,0,32,32,10,,,,,,,,,,,,,,3,1.7994935000315309,3,0.3,0.44999999999999996,16.21932,return,1.4374355000909418,,,,,,,,,,,,,,,,,p313,23,male,left_right_width,2025-12-02_12h00.26.549,exp1,2023.1.0,60.043651717684554,
,,,,,,,,,,,,,,,,4,8.35,9.45,10.55,11.65,0,1.1,0.55,0.55,3.8500000000000005,10,initial,36.05,301,341,380,420,0,9,9,9,9,0,,,,,,,4,0,4,0,0,33,33,17,,,,,,,,,,,,,,4,1.125749700004235,4,0.45,0.5,18.02146,return,0.7909208000637591,,,,,,,,,,,,,,,,,p313,23,male,left_right_width,2025-12-02_12h00.26.549,exp1,2023.1.0,60.043651717684554,
,,,,,,,,,,,,,,,,4,8.9,9.633333333333333,10.366666666666667,11.1,0,0.7333333333333333,0.18333333333333326,0.55,2.75,10,match,36.05,321,347,374,400,0,9,9,9,9,0,,,,,,,4,0,4,0,0,34,34,1,,,,,,,,,,,,,,4,0.47918949997983873,4,0.55,0.45,16.21932,return,0.9542553001083434,,,,,,,,,,,,,,,,,p313,23,male,left_right_width,2025-12-02_12h00.26.549,exp1,2023.1.0,60.043651717684554,
,,,,,,,,,,,,,,,,5,8.2,9.1,10,10.9,11.8,0.9,0.35,0.55,4.15,10,initial,36.05,296,328,361,393,425,9,9,9,9,9,,,,,,,4,0,4,0,0,35,35,46,,,,,,,,,,,,,,5,1.207738800207153,5,0.45,0.5,18.02146,return,0.8551512002013624,,,,,,,,,,,,,,,,,p313,23,male,left_right_width,2025-12-02_12h00.26.549,exp1,2023.1.0,60.043651717684554,
,,,,,,,,,,,,,,,,4,8.825,9.608333333333333,10.391666666666667,11.175,0,0.7833333333333333,0.5333333333333333,0.25,2.6,10,match,36.05,318,346,375,403,0,9,9,9,9,0,,,,,,,4,0,4,0,0,36,36,5,,,,,,,,,,,,,,4,1.0149743999354541,4,0.5,0.30000000000000004,10.81288,return,1.0545342001132667,,,,,,,,,,,,,,,,,p313,23,male,left_right_width,2025-12-02_12h00.26.549,exp1,2023.1.0,60.043651717684554,
,,,,,,,,,,,,,,,,3,9.1,10,10.9,0,0,0.9,0.65,0.25,2.05,10,initial,36.05,328,361,393,0,0,9,9,9,0,0,,,,,,,4,0,4,0,0,37,37,13,,,,,,,,,,,,,,3,1.126030100043863,3,0.3,0.2,7.20859,return,0.9361465002875775,,,,,,,,,,,,,,,,,p313,23,male,left_right_width,2025-12-02_12h00.26.549,exp1,2023.1.0,60.043651717684554,
,,,,,,,,,,,,,,,,5,8.2,9.1,10,10.9,11.8,0.9,0.5,0.4,4,10,initial,36.05,296,328,361,393,425,9,9,9,9,9,,,,,,,4,0,4,0,0,38,38,50,,,,,,,,,,,,,,5,1.2279769000597298,5,0.2,0.3,10.81288,return,1.4009003001265228,,,,,,,,,,,,,,,,,p313,23,male,left_right_width,2025-12-02_12h00.26.549,exp1,2023.1.0,60.043651717684554,
,,,,,,,,,,,,,,,,5,8.95,9.475,10,10.525,11.05,0.525,0.275,0.25,2.35,10,match,36.05,323,342,361,379,398,9,9,9,9,9,,,,,,,4,0,4,0,0,39,39,25,,,,,,,,,,,,,,5,1.1019580999854952,5,0.35,0.2,7.20859,return,0.9937616002280265,,,,,,,,,,,,,,,,,p313,23,male,left_right_width,2025-12-02_12h00.26.549,exp1,2023.1.0,60.043651717684554,
,,,,,,,,,,,,,,,,3,9.3,10,10.7,0,0,0.7,0.29999999999999993,0.4,1.8,10,initial,36.05,335,361,386,0,0,9,9,9,0,0,,,,,,,4,0,4,0,0,40,40,9,,,,,,,,,,,,,,3,1.0207636002451181,3,0.4,0.35000000000000003,12.61502,return,0.7058585002087057,,,,,,,,,,,,,,,,,p313,23,male,left_right_width,2025-12-02_12h00.26.549,exp1,2023.1.0,60.043651717684554,
,,,,,,,,,,,,,,,,5,8.35,9.175,10,10.825,11.65,0.8250000000000001,0.275,0.55,3.85,10,match,36.05,301,331,361,390,420,9,9,9,9,9,,,,,,,4,0,4,0,0,41,41,18,,,,,,,,,,,,,,5,1.056141400244087,5,0.5,0.55,19.82361,return,0.9961657002568245,,,,,,,,,,,,,,,,,p313,23,male,left_right_width,2025-12-02_12h00.26.549,exp1,2023.1.0,60.043651717684554,
,,,,,,,,,,,,,,,,3,7.8,10,12.2,0,0,2.2,1.9500000000000002,0.25,4.65,10,match,36.05,281,361,440,0,0,9,9,9,0,0,,,,,,,4,0,4,0,0,42,42,37,,,,,,,,,,,,,,3,1.0456715000327677,3,0.25,0.2,7.20859,return,1.2105154001619667,,,,,,,,,,,,,,,,,p313,23,male,left_right_width,2025-12-02_12h00.26.549,exp1,2023.1.0,60.043651717684554,
,,,,,,,,,,,,,,,,4,8.95,9.65,10.35,11.05,0,0.7,0.29999999999999993,0.4,2.5,10,initial,36.05,323,348,373,398,0,9,9,9,9,0,,,,,,,4,0,4,0,0,43,43,26,,,,,,,,,,,,,,4,0.6904782000929117,4,0.3,0.39999999999999997,14.41717,return,1.2230921001173556,,,,,,,,,,,,,,,,,p313,23,male,left_right_width,2025-12-02_12h00.26.549,exp1,2023.1.0,60.043651717684554,
,,,,,,,,,,,,,,,,5,7.8,8.9,10,11.1,12.2,1.1,0.55,0.55,4.95,10,initial,36.05,281,321,361,400,440,9,9,9,9,9,,,,,,,4,0,4,0,0,44,44,34,,,,,,,,,,,,,,5,1.004008000018075,5,0.45,0.4,14.41717,return,0.7064285001251847,,,,,,,,,,,,,,,,,p313,23,male,left_right_width,2025-12-02_12h00.26.549,exp1,2023.1.0,60.043651717684554,
,,,,,,,,,,,,,,,,3,8.2,10,11.8,0,0,1.7999999999999998,1.4,0.4,4,10,match,36.05,296,361,425,0,0,9,9,9,0,0,,,,,,,4,0,4,0,0,45,45,51,,,,,,,,,,,,,,3,1.2723146001808345,3,0.2,0.35,12.61502,return,1.396152500063181,,,,,,,,,,,,,,,,,p313,23,male,left_right_width,2025-12-02_12h00.26.549,exp1,2023.1.0,60.043651717684554,
,,,,,,,,,,,,,,,,3,8.9,10,11.1,0,0,1.1,0.8500000000000001,0.25,2.45,10,initial,36.05,321,361,400,0,0,9,9,9,0,0,,,,,,,4,0,4,0,0,46,46,2,,,,,,,,,,,,,,3,0.5159035001415759,3,0.55,0.25000000000000006,9.01073,return,1.7257450001779944,,,,,,,,,,,,,,,,,p313,23,male,left_right_width,2025-12-02_12h00.26.549,exp1,2023.1.0,60.043651717684554,
,,,,,,,,,,,,,,,,4,8.65,9.55,10.45,11.35,0,0.9,0.65,0.25,2.95,10,initial,36.05,312,344,377,409,0,9,9,9,9,0,,,,,,,4,0,4,0,0,47,47,30,,,,,,,,,,,,,,4,1.0412304000928998,4,0.25,0.25,9.01073,return,1.559220999944955,,,,,,,,,,,,,,,,,p313,23,male,left_right_width,2025-12-02_12h00.26.549,exp1,2023.1.0,60.043651717684554,
,,,,,,,,,,,,,,,,3,8.2,10,11.8,0,0,1.8,1.25,0.55,4.15,10,match,36.05,296,361,425,0,0,9,9,9,0,0,,,,,,,4,0,4,0,0,48,48,47,,,,,,,,,,,,,,3,1.098228100221604,3,0.3,0.49999999999999994,18.02146,return,1.149512000149116,,,,,,,,,,,,,,,,,p313,23,male,left_right_width,2025-12-02_12h00.26.549,exp1,2023.1.0,60.043651717684554,
,,,,,,,,,,,,,,,,4,8.9,9.633333333333333,10.366666666666667,11.1,0,0.7333333333333334,0.4833333333333334,0.25,2.45,10,match,36.05,321,347,374,400,0,9,9,9,9,0,,,,,,,4,0,4,0,0,49,49,3,,,,,,,,,,,,,,4,1.4997117002494633,4,0.35,0.25,9.01073,return,0.8484891999978572,,,,,,,,,,,,,,,,,p313,23,male,left_right_width,2025-12-02_12h00.26.549,exp1,2023.1.0,60.043651717684554,
,,,,,,,,,,,,,,,,3,9.1,10,10.9,0,0,0.9,0.35,0.55,2.35,10,initial,36.05,328,361,393,0,0,9,9,9,0,0,,,,,,,4,0,4,0,0,50,50,11,,,,,,,,,,,,,,3,1.055630600079894,3,0.5,0.45,16.21932,return,0.8197714001871645,,,,,,,,,,,,,,,,,p313,23,male,left_right_width,2025-12-02_12h00.26.549,exp1,2023.1.0,60.043651717684554,
,,,,,,,,,,,,,,,,5,8.275,9.1375,10,10.8625,11.725,0.8625,0.6125,0.25,3.7,10,match,36.05,298,329,361,392,423,9,9,9,9,9,,,,,,,4,0,4,0,0,51,51,22,,,,,,,,,,,,,,5,1.232253700029105,5,0.35,0.2,7.20859,return,0.8776605001185089,,,,,,,,,,,,,,,,,p313,23,male,left_right_width,2025-12-02_12h00.26.549,exp1,2023.1.0,60.043651717684554,
,,,,,,,,,,,,,,,,,,,,,,,,,,,,,,,,,,,,,,,,,,,,,4,0,4,0,,,,,,,,,,,,,,,,,,,,,,,,,,,,17365.783087699907,17365.783087699907,17365.783087699907,,,,,,,,,,,,p313,23,male,left_right_width,2025-12-02_12h00.26.549,exp1,2023.1.0,60.043651717684554,
,,,,,,,,,,,,,,,,4,9.3,9.766666666666667,10.233333333333333,10.7,0,0.4666666666666667,0.06666666666666665,0.4,1.8,10,match,36.05,335,352,369,386,0,9,9,9,9,0,,,,,,,5,0,5,0,0,0,0,10,,,,,,,,,,,,,,4,1.0365367003250867,4,0.4,0.4,14.41717,return,0.8659065002575517,,,,,,,,,,,,,,,,,p313,23,male,left_right_width,2025-12-02_12h00.26.549,exp1,2023.1.0,60.043651717684554,
,,,,,,,,,,,,,,,,3,9.1,10,10.9,0,0,0.9,0.5,0.4,2.2,10,initial,36.05,328,361,393,0,0,9,9,9,0,0,,,,,,,5,0,5,0,0,1,1,15,,,,,,,,,,,,,,3,0.9773466002661735,3,0.55,0.45,16.21932,return,1.03316430025734,,,,,,,,,,,,,,,,,p313,23,male,left_right_width,2025-12-02_12h00.26.549,exp1,2023.1.0,60.043651717684554,
,,,,,,,,,,,,,,,,5,8.6,9.3,10,10.7,11.4,0.7,0.1499999999999999,0.55,3.3499999999999996,10,initial,36.05,310,335,361,386,411,9,9,9,9,9,,,,,,,5,0,5,0,0,2,2,40,,,,,,,,,,,,,,5,0.8659008000977337,5,0.2,0.49999999999999994,18.02146,return,1.838088700082153,,,,,,,,,,,,,,,,,p313,23,male,left_right_width,2025-12-02_12h00.26.549,exp1,2023.1.0,60.043651717684554,
,,,,,,,,,,,,,,,,4,8.65,9.55,10.45,11.35,0,0.9,0.5,0.4,3.1,10,initial,36.05,312,344,377,409,0,9,9,9,9,0,,,,,,,5,0,5,0,0,3,3,32,,,,,,,,,,,,,,3,0.9660063001792878,3,0.2,0.44999999999999996,16.21932,return,1.1658922000788152,,,,,,,,,,,,,,,,,p313,23,male,left_right_width,2025-12-02_12h00.26.549,exp1,2023.1.0,60.043651717684554,
,,,,,,,,,,,,,,,,5,7.8,8.9,10,11.1,12.2,1.1,0.55,0.55,4.95,10,initial,36.05,281,321,361,400,440,9,9,9,9,9,,,,,,,5,0,5,0,0,4,4,34,,,,,,,,,,,,,,5,1.0145417002495378,5,0.35,0.49999999999999994,18.02146,return,1.2284544999711215,,,,,,,,,,,,,,,,,p313,23,male,left_right_width,2025-12-02_12h00.26.549,exp1,2023.1.0,60.043651717684554,
,,,,,,,,,,,,,,,,5,8.6,9.3,10,10.7,11.4,0.7,0.44999999999999996,0.25,3.05,10,initial,36.05,310,335,361,386,411,9,9,9,9,9,,,,,,,5,0,5,0,0,5,5,42,,,,,,,,,,,,,,5,0.9525416002143174,5,0.35,0.25,9.01073,return,0.7549415002577007,,,,,,,,,,,,,,,,,p313,23,male,left_right_width,2025-12-02_12h00.26.549,exp1,2023.1.0,60.043651717684554,
,,,,,,,,,,,,,,,,4,8.95,9.65,10.35,11.05,0,0.7,0.44999999999999996,0.25,2.3499999999999996,10,initial,36.05,323,348,373,398,0,9,9,9,9,0,,,,,,,5,0,5,0,0,6,6,24,,,,,,,,,,,,,,4,0.8197997999377549,4,0.5,0.25000000000000006,9.01073,return,1.3624797000084072,,,,,,,,,,,,,,,,,p313,23,male,left_right_width,2025-12-02_12h00.26.549,exp1,2023.1.0,60.043651717684554,
,,,,,,,,,,,,,,,,4,9.1,9.7,10.3,10.9,0,0.6000000000000001,0.20000000000000004,0.4,2.2,10,match,36.05,328,350,371,393,0,9,9,9,9,0,,,,,,,5,0,5,0,0,7,7,16,,,,,,,,,,,,,,4,0.8771514999680221,4,0.2,0.3,10.81288,return,1.3049855001736432,,,,,,,,,,,,,,,,,p313,23,male,left_right_width,2025-12-02_12h00.26.549,exp1,2023.1.0,60.043651717684554,
,,,,,,,,,,,,,,,,5,7.8,8.9,10,11.1,12.2,1.1,0.7000000000000001,0.4,4.800000000000001,10,initial,36.05,281,321,361,400,440,9,9,9,9,9,,,,,,,5,0,5,0,0,8,8,38,,,,,,,,,,,,,,5,1.174397500231862,5,0.3,0.39999999999999997,14.41717,return,0.7257213999982923,,,,,,,,,,,,,,,,,p313,23,male,left_right_width,2025-12-02_12h00.26.549,exp1,2023.1.0,60.043651717684554,
,,,,,,,,,,,,,,,,5,8.95,9.475,10,10.525,11.05,0.525,0.125,0.4,2.5,10,match,36.05,323,342,361,379,398,9,9,9,9,9,,,,,,,5,0,5,0,0,9,9,27,,,,,,,,,,,,,,5,0.6080289001110941,5,0.3,0.3,10.81288,return,0.8717098000925034,,,,,,,,,,,,,,,,,p313,23,male,left_right_width,2025-12-02_12h00.26.549,exp1,2023.1.0,60.043651717684554,
,,,,,,,,,,,,,,,,5,8.275,9.1375,10,10.8625,11.725,0.8625,0.6125,0.25,3.7,10,match,36.05,298,329,361,392,423,9,9,9,9,9,,,,,,,5,0,5,0,0,10,10,22,,,,,,,,,,,,,,5,1.0184474000707269,5,0.2,0.25,9.01073,return,0.8163152001798153,,,,,,,,,,,,,,,,,p313,23,male,left_right_width,2025-12-02_12h00.26.549,exp1,2023.1.0,60.043651717684554,
,,,,,,,,,,,,,,,,4,8.65,9.55,10.45,11.35,0,0.9,0.65,0.25,2.95,10,initial,36.05,312,344,377,409,0,9,9,9,9,0,,,,,,,5,0,5,0,0,11,11,30,,,,,,,,,,,,,,4,0.9090789000038058,4,0.55,0.30000000000000004,10.81288,return,1.3992624999955297,,,,,,,,,,,,,,,,,p313,23,male,left_right_width,2025-12-02_12h00.26.549,exp1,2023.1.0,60.043651717684554,
,,,,,,,,,,,,,,,,3,8.6,10,11.4,0,0,1.4,1.15,0.25,3.05,10,match,36.05,310,361,411,0,0,9,9,9,0,0,,,,,,,5,0,5,0,0,12,12,43,,,,,,,,,,,,,,3,0.9259264001157135,3,0.35,0.25,9.01073,return,1.832120900042355,,,,,,,,,,,,,,,,,p313,23,male,left_right_width,2025-12-02_12h00.26.549,exp1,2023.1.0,60.043651717684554,
,,,,,,,,,,,,,,,,4,8.95,9.65,10.35,11.05,0,0.7,0.29999999999999993,0.4,2.5,10,initial,36.05,323,348,373,398,0,9,9,9,9,0,,,,,,,5,0,5,0,0,13,13,26,,,,,,,,,,,,,,4,0.7796256002038717,4,0.45,0.35000000000000003,12.61502,return,1.803180200047791,,,,,,,,,,,,,,,,,p313,23,male,left_right_width,2025-12-02_12h00.26.549,exp1,2023.1.0,60.043651717684554,
,,,,,,,,,,,,,,,,5,8.65,9.325,10,10.675,11.35,0.675,0.125,0.55,3.25,10,match,36.05,312,336,361,385,409,9,9,9,9,9,,,,,,,5,0,5,0,0,14,14,29,,,,,,,,,,,,,,5,0.9919575999956578,5,0.55,0.45,16.21932,return,0.8238028001505882,,,,,,,,,,,,,,,,,p313,23,male,left_right_width,2025-12-02_12h00.26.549,exp1,2023.1.0,60.043651717684554,
,,,,,,,,,,,,,,,,5,8.65,9.325,10,10.675,11.35,0.675,0.42500000000000004,0.25,2.95,10,match,36.05,312,336,361,385,409,9,9,9,9,9,,,,,,,5,0,5,0,0,15,15,31,,,,,,,,,,,,,,5,1.0709611000493169,5,0.55,0.20000000000000007,7.20859,return,1.6986273999791592,,,,,,,,,,,,,,,,,p313,23,male,left_right_width,2025-12-02_12h00.26.549,exp1,2023.1.0,60.043651717684554,
,,,,,,,,,,,,,,,,3,9.1,10,10.9,0,0,0.9,0.65,0.25,2.05,10,initial,36.05,328,361,393,0,0,9,9,9,0,0,,,,,,,5,0,5,0,0,16,16,13,,,,,,,,,,,,,,3,1.0972053001169115,3,0.35,0.2,7.20859,return,0.8443864001892507,,,,,,,,,,,,,,,,,p313,23,male,left_right_width,2025-12-02_12h00.26.549,exp1,2023.1.0,60.043651717684554,
,,,,,,,,,,,,,,,,4,8.95,9.65,10.35,11.05,0,0.7,0.1499999999999999,0.55,2.65,10,initial,36.05,323,348,373,398,0,9,9,9,9,0,,,,,,,5,0,5,0,0,17,17,23,,,,,,,,,,,,,,4,1.025615300051868,4,0.35,0.44999999999999996,16.21932,return,1.191489500226453,,,,,,,,,,,,,,,,,p313,23,male,left_right_width,2025-12-02_12h00.26.549,exp1,2023.1.0,60.043651717684554,
,,,,,,,,,,,,,,,,4,8.35,9.45,10.55,11.65,0,1.1,0.55,0.55,3.8500000000000005,10,initial,36.05,301,341,380,420,0,9,9,9,9,0,,,,,,,5,0,5,0,0,18,18,17,,,,,,,,,,,,,,4,0.5677892002277076,4,0.55,0.5,18.02146,return,0.8651499003171921,,,,,,,,,,,,,,,,,p313,23,male,left_right_width,2025-12-02_12h00.26.549,exp1,2023.1.0,60.043651717684554,
,,,,,,,,,,,,,,,,3,9.3,10,10.7,0,0,0.7,0.1499999999999999,0.55,1.95,10,initial,36.05,335,361,386,0,0,9,9,9,0,0,,,,,,,5,0,5,0,0,19,19,6,,,,,,,,,,,,,,3,1.2053963001817465,3,0.45,0.45,16.21932,return,1.6676678999792784,,,,,,,,,,,,,,,,,p313,23,male,left_right_width,2025-12-02_12h00.26.549,exp1,2023.1.0,60.043651717684554,
,,,,,,,,,,,,,,,,3,9.1,10,10.9,0,0,0.9,0.35,0.55,2.35,10,initial,36.05,328,361,393,0,0,9,9,9,0,0,,,,,,,5,0,5,0,0,20,20,11,,,,,,,,,,,,,,3,0.6069792001508176,3,0.4,0.45,16.21932,return,0.7093529000412673,,,,,,,,,,,,,,,,,p313,23,male,left_right_width,2025-12-02_12h00.26.549,exp1,2023.1.0,60.043651717684554,
,,,,,,,,,,,,,,,,4,8.9,9.633333333333333,10.366666666666667,11.1,0,0.7333333333333334,0.4833333333333334,0.25,2.45,10,match,36.05,321,347,374,400,0,9,9,9,9,0,,,,,,,5,0,5,0,0,21,21,3,,,,,,,,,,,,,,4,1.1137430001981556,4,0.4,0.20000000000000007,7.20859,return,0.8603727002628148,,,,,,,,,,,,,,,,,p313,23,male,left_right_width,2025-12-02_12h00.26.549,exp1,2023.1.0,60.043651717684554,
,,,,,,,,,,,,,,,,4,8.35,9.45,10.55,11.65,0,1.1,0.8500000000000001,0.25,3.5500000000000003,10,initial,36.05,301,341,380,420,0,9,9,9,9,0,,,,,,,5,0,5,0,0,22,22,19,,,,,,,,,,,,,,4,1.00548080005683,4,0.25,0.25,9.01073,return,0.9484185001347214,,,,,,,,,,,,,,,,,p313,23,male,left_right_width,2025-12-02_12h00.26.549,exp1,2023.1.0,60.043651717684554,
,,,,,,,,,,,,,,,,3,7.8,10,12.2,0,0,2.2,1.9500000000000002,0.25,4.65,10,match,36.05,281,361,440,0,0,9,9,9,0,0,,,,,,,5,0,5,0,0,23,23,37,,,,,,,,,,,,,,3,0.9750541001558304,3,0.3,0.25,9.01073,return,0.6789111001417041,,,,,,,,,,,,,,,,,p313,23,male,left_right_width,2025-12-02_12h00.26.549,exp1,2023.1.0,60.043651717684554,
