amount_p,posx1_p,posx2_p,posx3_p,posx4_p,posx5_p,center_to_center_p,edge_to_edge_p,w_p,stim_lengt_p,eccentricity_p,line1_p,line2_p,line3_p,line4_p,line5_p,amount,posx1,posx2,posx3,posx4,posx5,center_to_center,edge_to_edge,w,stim_length,eccentricity,trial_type,deg_to_pix_index,posx1_in_pix,posx2_in_pix,posx3_in_pix,posx4_in_pix,posx5_in_pix,line1,line2,line3,line4,line5,posx,setsize_cobdi,trials.thisRepN,trials.thisTrialN,trials.thisN,trials.thisIndex,blocks.thisRepN,blocks.thisTrialN,blocks.thisN,blocks.thisIndex,loop.thisRepN,loop.thisTrialN,loop.thisN,loop.thisIndex,first.thisRepN,first.thisTrialN,first.thisN,first.thisIndex,second.thisRepN,second.thisTrialN,second.thisN,second.thisIndex,thisRow.t,notes,key_resp_3.started,key_resp_3.keys,key_resp_3.rt,key_resp.keys,key_resp.rt,response,starting_width_deg,response_width_degree,response_width_pixel,next_5.keys,next_5.rt,key_resp_4.keys,key_resp_4.rt,text_3.started,text_4.started,key_resp_2.started,text_2.started,key_resp_2.keys,key_resp_2.rt,adjusting.started,next.keys,next.rt,text_control2.started,key_resp.started,key_resp.corr,text_bye.started,text_bye.stopped,participant,age,gender,resp_group,date,expName,psychopyVersion,frameRate,
,,,,,,,,,,,,,,,,,,,,,,,,,,,,,,,,,,,,,,,,,,,,,,,,,,,,,,,,,,,,,,,19.009490200085565,c,163.23805539985187,,,,,,,,,,,,,,,,,,,,,,,,,p314,22,female,up_down_width,2025-12-02_12h57.48.407,exp1,2023.1.0,60.00214807928742,
4,9.5,9.833333333333334,10.166666666666666,10.5,0,0.33333333333333337,0.23333333333333336,0.1,1.1,10,9,9,9,9,0,,,,,,,,,,,,,,,,,,,,,,,,,,0,0,0,3,,,,,,,,,,,,,,,,,,,,,,4,4.00338129978627,4,0.2,0.10000000000000002,3.60429,return,4.291560999816284,,,,,,,,,,,,,,,,,p314,22,female,up_down_width,2025-12-02_12h57.48.407,exp1,2023.1.0,60.00214807928742,
5,9.25,9.625,10,10.375,10.75,0.375,0.125,0.25,1.75,10,9,9,9,9,9,,,,,,,,,,,,,,,,,,,,,,,,,,0,1,1,6,,,,,,,,,,,,,,,,,,,,,,4,2.6390730999410152,4,0.35,0.3,10.81288,return,3.764354599872604,,,,,,,,,,,,,,,,,p314,22,female,up_down_width,2025-12-02_12h57.48.407,exp1,2023.1.0,60.00214807928742,
4,9.25,9.75,10.25,10.75,0,0.5,0.25,0.25,1.75,10,9,9,9,9,0,,,,,,,,,,,,,,,,,,,,,,,,,,0,2,2,4,,,,,,,,,,,,,,,,,,,,,,3,1.6361941997893155,3,0.35,0.35,12.61502,return,1.3782204997260123,,,,,,,,,,,,,,,,,p314,22,female,up_down_width,2025-12-02_12h57.48.407,exp1,2023.1.0,60.00214807928742,
4,8.65,9.55,10.45,11.35,0,0.9,0.5,0.4,3.1,10,9,9,9,9,0,,,,,,,,,,,,,,,,,,,,,,,,,,0,3,3,5,,,,,,,,,,,,,,,,,,,,,,3,1.7619113998953253,3,0.2,0.35,12.61502,return,3.0829839997459203,,,,,,,,,,,,,,,,,p314,22,female,up_down_width,2025-12-02_12h57.48.407,exp1,2023.1.0,60.00214807928742,
5,9,9.5,10,10.5,11,0.5,0.09999999999999998,0.4,2.4,10,9,9,9,9,9,,,,,,,,,,,,,,,,,,,,,,,,,,0,4,4,8,,,,,,,,,,,,,,,,,,,,,,4,2.4960433999076486,4,0.55,0.6000000000000001,21.62576,return,3.3717188998125494,,,,,,,,,,,,,,,,,p314,22,female,up_down_width,2025-12-02_12h57.48.407,exp1,2023.1.0,60.00214807928742,
3,8.2,10,11.8,0,0,1.7999999999999998,1.4,0.4,4,10,9,9,9,0,0,,,,,,,,,,,,,,,,,,,,,,,,,,0,5,5,2,,,,,,,,,,,,,,,,,,,,,,3,1.6108487998135388,3,0.4,0.45,16.21932,return,2.745588099816814,,,,,,,,,,,,,,,,,p314,22,female,up_down_width,2025-12-02_12h57.48.407,exp1,2023.1.0,60.00214807928742,
3,9,10,11,0,0,1,0.9,0.1,2.1,10,9,9,9,0,0,,,,,,,,,,,,,,,,,,,,,,,,,,0,6,6,1,,,,,,,,,,,,,,,,,,,,,,2,1.8302684999071062,2,0.4,0.05000000000000007,1.80215,return,3.084155200049281,,,,,,,,,,,,,,,,,p314,22,female,up_down_width,2025-12-02_12h57.48.407,exp1,2023.1.0,60.00214807928742,
5,8.6,9.3,10,10.7,11.4,0.7,0.29999999999999993,0.4,3.1999999999999997,10,9,9,9,9,9,,,,,,,,,,,,,,,,,,,,,,,,,,0,7,7,7,,,,,,,,,,,,,,,,,,,,,,4,1.4216541999485344,4,0.4,0.35000000000000003,12.61502,return,2.1642839999403805,,,,,,,,,,,,,,,,,p314,22,female,up_down_width,2025-12-02_12h57.48.407,exp1,2023.1.0,60.00214807928742,
3,9.5,10,10.5,0,0,0.5,0.4,0.1,1.1,10,9,9,9,0,0,,,,,,,,,,,,,,,,,,,,,,,,,,0,8,8,0,,,,,,,,,,,,,,,,,,,,,,3,1.4822124999482185,3,0.25,0.10000000000000002,3.60429,return,3.7267919997684658,,,,,,,,,,,,,,,,,p314,22,female,up_down_width,2025-12-02_12h57.48.407,exp1,2023.1.0,60.00214807928742,
,,,,,,,,,,,,,,,,,,,,,,,,,,,,,,,,,,,,,,,,,,,,,,,,,,,,,,,,,,,,,,,,,,,,,,,,,,c,88.40803689975291,,,,,,,,,,,,,,,p314,22,female,up_down_width,2025-12-02_12h57.48.407,exp1,2023.1.0,60.00214807928742,
,,,,,,,,,,,,,,,,4,8.825,9.608333333333333,10.391666666666667,11.175,0,0.7833333333333333,0.5333333333333333,0.25,2.6,10,match,36.05,318,346,375,403,0,9,9,9,9,0,,,,,,,0,0,0,0,0,0,0,5,,,,,,,,,,,,,,3,1.5399871997069567,3,0.5,0.25000000000000006,9.01073,return,3.3968426999635994,,,,,,,,,,,,,,,,,p314,22,female,up_down_width,2025-12-02_12h57.48.407,exp1,2023.1.0,60.00214807928742,
,,,,,,,,,,,,,,,,4,8.95,9.65,10.35,11.05,0,0.7,0.44999999999999996,0.25,2.3499999999999996,10,initial,36.05,323,348,373,398,0,9,9,9,9,0,,,,,,,0,0,0,0,0,1,1,24,,,,,,,,,,,,,,3,1.7825336998794228,3,0.3,0.3,10.81288,return,1.40571349975653,,,,,,,,,,,,,,,,,p314,22,female,up_down_width,2025-12-02_12h57.48.407,exp1,2023.1.0,60.00214807928742,
,,,,,,,,,,,,,,,,5,7.8,8.9,10,11.1,12.2,1.1,0.8500000000000001,0.25,4.65,10,initial,36.05,281,321,361,400,440,9,9,9,9,9,,,,,,,0,0,0,0,0,2,2,36,,,,,,,,,,,,,,4,1.4204106000252068,4,0.55,0.25000000000000006,9.01073,return,3.010112299816683,,,,,,,,,,,,,,,,,p314,22,female,up_down_width,2025-12-02_12h57.48.407,exp1,2023.1.0,60.00214807928742,
,,,,,,,,,,,,,,,,3,7.800000000000001,10,12.2,0,0,2.1999999999999997,1.7999999999999998,0.4,4.8,10,match,36.05,281,361,440,0,0,9,9,9,0,0,,,,,,,0,0,0,0,0,3,3,39,,,,,,,,,,,,,,3,1.6028547999449074,3,0.35,0.35,12.61502,return,1.2979944997932762,,,,,,,,,,,,,,,,,p314,22,female,up_down_width,2025-12-02_12h57.48.407,exp1,2023.1.0,60.00214807928742,
,,,,,,,,,,,,,,,,3,7.8,10,12.2,0,0,2.2,1.9500000000000002,0.25,4.65,10,match,36.05,281,361,440,0,0,9,9,9,0,0,,,,,,,0,0,0,0,0,4,4,37,,,,,,,,,,,,,,3,1.3191881999373436,3,0.45,0.25000000000000006,9.01073,return,2.049582599895075,,,,,,,,,,,,,,,,,p314,22,female,up_down_width,2025-12-02_12h57.48.407,exp1,2023.1.0,60.00214807928742,
,,,,,,,,,,,,,,,,4,9.1,9.7,10.3,10.9,0,0.6000000000000001,0.20000000000000004,0.4,2.2,10,match,36.05,328,350,371,393,0,9,9,9,9,0,,,,,,,0,0,0,0,0,5,5,16,,,,,,,,,,,,,,3,1.6825025998987257,3,0.25,0.44999999999999996,16.21932,return,2.094412999926135,,,,,,,,,,,,,,,,,p314,22,female,up_down_width,2025-12-02_12h57.48.407,exp1,2023.1.0,60.00214807928742,
,,,,,,,,,,,,,,,,4,9.3,9.766666666666667,10.233333333333333,10.7,0,0.4666666666666667,0.06666666666666665,0.4,1.8,10,match,36.05,335,352,369,386,0,9,9,9,9,0,,,,,,,0,0,0,0,0,6,6,10,,,,,,,,,,,,,,3,1.384093999862671,3,0.2,0.49999999999999994,18.02146,return,3.7595210999716073,,,,,,,,,,,,,,,,,p314,22,female,up_down_width,2025-12-02_12h57.48.407,exp1,2023.1.0,60.00214807928742,
,,,,,,,,,,,,,,,,5,8.2,9.1,10,10.9,11.8,0.9,0.5,0.4,4,10,initial,36.05,296,328,361,393,425,9,9,9,9,9,,,,,,,0,0,0,0,0,7,7,50,,,,,,,,,,,,,,4,1.5673253999557346,4,0.2,0.35,12.61502,return,2.143457799917087,,,,,,,,,,,,,,,,,p314,22,female,up_down_width,2025-12-02_12h57.48.407,exp1,2023.1.0,60.00214807928742,
,,,,,,,,,,,,,,,,3,8.9,10,11.1,0,0,1.1,0.8500000000000001,0.25,2.45,10,initial,36.05,321,361,400,0,0,9,9,9,0,0,,,,,,,0,0,0,0,0,8,8,2,,,,,,,,,,,,,,3,1.354973599780351,3,0.25,0.2,7.20859,return,1.3802671998273581,,,,,,,,,,,,,,,,,p314,22,female,up_down_width,2025-12-02_12h57.48.407,exp1,2023.1.0,60.00214807928742,
,,,,,,,,,,,,,,,,5,8.35,9.175,10,10.825,11.65,0.8250000000000001,0.275,0.55,3.85,10,match,36.05,301,331,361,390,420,9,9,9,9,9,,,,,,,0,0,0,0,0,9,9,18,,,,,,,,,,,,,,4,1.7120163997169584,4,0.25,0.44999999999999996,16.21932,return,1.9148251998703927,,,,,,,,,,,,,,,,,p314,22,female,up_down_width,2025-12-02_12h57.48.407,exp1,2023.1.0,60.00214807928742,
,,,,,,,,,,,,,,,,5,8.65,9.325,10,10.675,11.35,0.675,0.275,0.4,3.1,10,match,36.05,312,336,361,385,409,9,9,9,9,9,,,,,,,0,0,0,0,0,10,10,33,,,,,,,,,,,,,,4,2.080897799693048,4,0.4,0.45,16.21932,return,1.1172941997647285,,,,,,,,,,,,,,,,,p314,22,female,up_down_width,2025-12-02_12h57.48.407,exp1,2023.1.0,60.00214807928742,
,,,,,,,,,,,,,,,,5,8.65,9.325,10,10.675,11.35,0.675,0.42500000000000004,0.25,2.95,10,match,36.05,312,336,361,385,409,9,9,9,9,9,,,,,,,0,0,0,0,0,11,11,31,,,,,,,,,,,,,,4,1.522302299970761,4,0.45,0.30000000000000004,10.81288,return,2.612025700043887,,,,,,,,,,,,,,,,,p314,22,female,up_down_width,2025-12-02_12h57.48.407,exp1,2023.1.0,60.00214807928742,
,,,,,,,,,,,,,,,,4,8.35,9.45,10.55,11.65,0,1.1,0.55,0.55,3.8500000000000005,10,initial,36.05,301,341,380,420,0,9,9,9,9,0,,,,,,,0,0,0,0,0,12,12,17,,,,,,,,,,,,,,4,1.555603499757126,4,0.4,0.55,19.82361,return,1.2365039000287652,,,,,,,,,,,,,,,,,p314,22,female,up_down_width,2025-12-02_12h57.48.407,exp1,2023.1.0,60.00214807928742,
,,,,,,,,,,,,,,,,3,9.1,10,10.9,0,0,0.9,0.35,0.55,2.35,10,initial,36.05,328,361,393,0,0,9,9,9,0,0,,,,,,,0,0,0,0,0,13,13,11,,,,,,,,,,,,,,3,1.4247665998991579,3,0.5,0.6000000000000001,21.62576,return,1.5264965000096709,,,,,,,,,,,,,,,,,p314,22,female,up_down_width,2025-12-02_12h57.48.407,exp1,2023.1.0,60.00214807928742,
,,,,,,,,,,,,,,,,5,7.8,8.9,10,11.1,12.2,1.1,0.7000000000000001,0.4,4.800000000000001,10,initial,36.05,281,321,361,400,440,9,9,9,9,9,,,,,,,0,0,0,0,0,14,14,38,,,,,,,,,,,,,,5,1.5325306998565793,5,0.55,0.45,16.21932,return,2.2217315998859704,,,,,,,,,,,,,,,,,p314,22,female,up_down_width,2025-12-02_12h57.48.407,exp1,2023.1.0,60.00214807928742,
,,,,,,,,,,,,,,,,4,9.3,9.766666666666667,10.233333333333333,10.7,0,0.4666666666666667,0.21666666666666665,0.25,1.65,10,match,36.05,335,352,369,386,0,9,9,9,9,0,,,,,,,0,0,0,0,0,15,15,8,,,,,,,,,,,,,,4,1.5635696998797357,4,0.35,0.3,10.81288,return,1.420493499841541,,,,,,,,,,,,,,,,,p314,22,female,up_down_width,2025-12-02_12h57.48.407,exp1,2023.1.0,60.00214807928742,
,,,,,,,,,,,,,,,,3,8.6,10,11.4,0,0,1.4,1.15,0.25,3.05,10,match,36.05,310,361,411,0,0,9,9,9,0,0,,,,,,,0,0,0,0,0,16,16,43,,,,,,,,,,,,,,3,2.058245699852705,3,0.5,0.25000000000000006,9.01073,return,2.1676112997811288,,,,,,,,,,,,,,,,,p314,22,female,up_down_width,2025-12-02_12h57.48.407,exp1,2023.1.0,60.00214807928742,
,,,,,,,,,,,,,,,,4,9.1,9.7,10.3,10.9,0,0.5999999999999999,0.3499999999999999,0.25,2.05,10,match,36.05,328,350,371,393,0,9,9,9,9,0,,,,,,,0,0,0,0,0,17,17,14,,,,,,,,,,,,,,3,1.982575599802658,3,0.35,0.25,9.01073,return,1.1015317998826504,,,,,,,,,,,,,,,,,p314,22,female,up_down_width,2025-12-02_12h57.48.407,exp1,2023.1.0,60.00214807928742,
,,,,,,,,,,,,,,,,3,8.9,10,11.1,0,0,1.1,0.55,0.55,2.75,10,initial,36.05,321,361,400,0,0,9,9,9,0,0,,,,,,,0,0,0,0,0,18,18,0,,,,,,,,,,,,,,3,1.253014599904418,3,0.55,0.6000000000000001,21.62576,return,1.0257061999291182,,,,,,,,,,,,,,,,,p314,22,female,up_down_width,2025-12-02_12h57.48.407,exp1,2023.1.0,60.00214807928742,
,,,,,,,,,,,,,,,,3,9.1,10,10.9,0,0,0.9,0.65,0.25,2.05,10,initial,36.05,328,361,393,0,0,9,9,9,0,0,,,,,,,0,0,0,0,0,19,19,13,,,,,,,,,,,,,,3,0.7296739998273551,3,0.45,0.30000000000000004,10.81288,return,1.2912541998084635,,,,,,,,,,,,,,,,,p314,22,female,up_down_width,2025-12-02_12h57.48.407,exp1,2023.1.0,60.00214807928742,
,,,,,,,,,,,,,,,,5,8.35,9.175,10,10.825,11.65,0.825,0.575,0.25,3.55,10,match,36.05,301,331,361,390,420,9,9,9,9,9,,,,,,,0,0,0,0,0,20,20,20,,,,,,,,,,,,,,5,1.6461363998241723,5,0.25,0.15000000000000002,5.40644,return,1.6755677999462932,,,,,,,,,,,,,,,,,p314,22,female,up_down_width,2025-12-02_12h57.48.407,exp1,2023.1.0,60.00214807928742,
,,,,,,,,,,,,,,,,4,9.1,9.7,10.3,10.9,0,0.6,0.04999999999999997,0.55,2.35,10,match,36.05,328,350,371,393,0,9,9,9,9,0,,,,,,,0,0,0,0,0,21,21,12,,,,,,,,,,,,,,3,1.6912863000761718,3,0.5,0.8000000000000003,28.83434,return,1.6215961000416428,,,,,,,,,,,,,,,,,p314,22,female,up_down_width,2025-12-02_12h57.48.407,exp1,2023.1.0,60.00214807928742,
,,,,,,,,,,,,,,,,5,8.95,9.475,10,10.525,11.05,0.525,0.125,0.4,2.5,10,match,36.05,323,342,361,379,398,9,9,9,9,9,,,,,,,0,0,0,0,0,22,22,27,,,,,,,,,,,,,,4,0.9991422998718917,4,0.45,0.55,19.82361,return,1.8705269999336451,,,,,,,,,,,,,,,,,p314,22,female,up_down_width,2025-12-02_12h57.48.407,exp1,2023.1.0,60.00214807928742,
,,,,,,,,,,,,,,,,3,9.3,10,10.7,0,0,0.7,0.1499999999999999,0.55,1.95,10,initial,36.05,335,361,386,0,0,9,9,9,0,0,,,,,,,0,0,0,0,0,23,23,6,,,,,,,,,,,,,,2,1.3094550997484475,2,0.2,0.8000000000000002,28.83434,return,5.160351999802515,,,,,,,,,,,,,,,,,p314,22,female,up_down_width,2025-12-02_12h57.48.407,exp1,2023.1.0,60.00214807928742,
,,,,,,,,,,,,,,,,3,9.3,10,10.7,0,0,0.7,0.44999999999999996,0.25,1.65,10,initial,36.05,335,361,386,0,0,9,9,9,0,0,,,,,,,0,0,0,0,0,24,24,7,,,,,,,,,,,,,,3,1.2069300999864936,3,0.35,0.2,7.20859,return,1.5888515000697225,,,,,,,,,,,,,,,,,p314,22,female,up_down_width,2025-12-02_12h57.48.407,exp1,2023.1.0,60.00214807928742,
,,,,,,,,,,,,,,,,4,8.35,9.45,10.55,11.65,0,1.1,0.7000000000000001,0.4,3.7,10,initial,36.05,301,341,380,420,0,9,9,9,9,0,,,,,,,0,0,0,0,0,25,25,21,,,,,,,,,,,,,,4,1.5158180000726134,4,0.45,0.30000000000000004,10.81288,return,1.486345199868083,,,,,,,,,,,,,,,,,p314,22,female,up_down_width,2025-12-02_12h57.48.407,exp1,2023.1.0,60.00214807928742,
,,,,,,,,,,,,,,,,4,8.65,9.55,10.45,11.35,0,0.9,0.5,0.4,3.1,10,initial,36.05,312,344,377,409,0,9,9,9,9,0,,,,,,,0,0,0,0,0,26,26,32,,,,,,,,,,,,,,4,1.2062470999080688,4,0.35,0.39999999999999997,14.41717,return,1.2051759997848421,,,,,,,,,,,,,,,,,p314,22,female,up_down_width,2025-12-02_12h57.48.407,exp1,2023.1.0,60.00214807928742,
,,,,,,,,,,,,,,,,5,8.275,9.1375,10,10.8625,11.725,0.8625,0.6125,0.25,3.7,10,match,36.05,298,329,361,392,423,9,9,9,9,9,,,,,,,0,0,0,0,0,27,27,22,,,,,,,,,,,,,,5,1.6613549997564405,5,0.4,0.25000000000000006,9.01073,return,1.1135759998578578,,,,,,,,,,,,,,,,,p314,22,female,up_down_width,2025-12-02_12h57.48.407,exp1,2023.1.0,60.00214807928742,
,,,,,,,,,,,,,,,,3,8.2,10,11.8,0,0,1.7999999999999998,1.4,0.4,4,10,match,36.05,296,361,425,0,0,9,9,9,0,0,,,,,,,0,0,0,0,0,28,28,51,,,,,,,,,,,,,,3,1.3711140998639166,3,0.45,0.35000000000000003,12.61502,return,0.9797101998701692,,,,,,,,,,,,,,,,,p314,22,female,up_down_width,2025-12-02_12h57.48.407,exp1,2023.1.0,60.00214807928742,
,,,,,,,,,,,,,,,,5,8.6,9.3,10,10.7,11.4,0.7,0.1499999999999999,0.55,3.3499999999999996,10,initial,36.05,310,335,361,386,411,9,9,9,9,9,,,,,,,0,0,0,0,0,29,29,40,,,,,,,,,,,,,,4,1.3788544998969883,4,0.45,0.55,19.82361,return,1.163323099957779,,,,,,,,,,,,,,,,,p314,22,female,up_down_width,2025-12-02_12h57.48.407,exp1,2023.1.0,60.00214807928742,
,,,,,,,,,,,,,,,,3,8.525,10,11.475,0,0,1.475,1.225,0.25,3.2,10,match,36.05,307,361,414,0,0,9,9,9,0,0,,,,,,,0,0,0,0,0,30,30,45,,,,,,,,,,,,,,3,1.321660699788481,3,0.2,0.10000000000000002,3.60429,return,0.851946999784559,,,,,,,,,,,,,,,,,p314,22,female,up_down_width,2025-12-02_12h57.48.407,exp1,2023.1.0,60.00214807928742,
,,,,,,,,,,,,,,,,5,8.65,9.325,10,10.675,11.35,0.675,0.125,0.55,3.25,10,match,36.05,312,336,361,385,409,9,9,9,9,9,,,,,,,0,0,0,0,0,31,31,29,,,,,,,,,,,,,,4,1.763093699933961,4,0.45,0.6500000000000001,23.4279,return,1.034650200046599,,,,,,,,,,,,,,,,,p314,22,female,up_down_width,2025-12-02_12h57.48.407,exp1,2023.1.0,60.00214807928742,
,,,,,,,,,,,,,,,,3,8.9,10,11.1,0,0,1.1,0.7000000000000001,0.4,2.6000000000000005,10,initial,36.05,321,361,400,0,0,9,9,9,0,0,,,,,,,0,0,0,0,0,32,32,4,,,,,,,,,,,,,,3,1.4827862998936325,3,0.2,0.3,10.81288,return,1.343612999888137,,,,,,,,,,,,,,,,,p314,22,female,up_down_width,2025-12-02_12h57.48.407,exp1,2023.1.0,60.00214807928742,
,,,,,,,,,,,,,,,,3,8.2,10,11.8,0,0,1.8,1.55,0.25,3.85,10,match,36.05,296,361,425,0,0,9,9,9,0,0,,,,,,,0,0,0,0,0,33,33,49,,,,,,,,,,,,,,3,0.922561899991706,3,0.25,0.2,7.20859,return,0.9797584998887032,,,,,,,,,,,,,,,,,p314,22,female,up_down_width,2025-12-02_12h57.48.407,exp1,2023.1.0,60.00214807928742,
,,,,,,,,,,,,,,,,3,9.1,10,10.9,0,0,0.9,0.5,0.4,2.2,10,initial,36.05,328,361,393,0,0,9,9,9,0,0,,,,,,,0,0,0,0,0,34,34,15,,,,,,,,,,,,,,3,0.8304442998487502,3,0.55,0.4,14.41717,return,2.284094499889761,,,,,,,,,,,,,,,,,p314,22,female,up_down_width,2025-12-02_12h57.48.407,exp1,2023.1.0,60.00214807928742,
,,,,,,,,,,,,,,,,4,8.35,9.45,10.55,11.65,0,1.1,0.8500000000000001,0.25,3.5500000000000003,10,initial,36.05,301,341,380,420,0,9,9,9,9,0,,,,,,,0,0,0,0,0,35,35,19,,,,,,,,,,,,,,4,1.4551159997936338,4,0.25,0.15000000000000002,5.40644,return,1.9715051997918636,,,,,,,,,,,,,,,,,p314,22,female,up_down_width,2025-12-02_12h57.48.407,exp1,2023.1.0,60.00214807928742,
,,,,,,,,,,,,,,,,5,8.95,9.475,10,10.525,11.05,0.525,0.275,0.25,2.35,10,match,36.05,323,342,361,379,398,9,9,9,9,9,,,,,,,0,0,0,0,0,36,36,25,,,,,,,,,,,,,,5,1.3129986999556422,5,0.4,0.20000000000000007,7.20859,return,1.9469979999121279,,,,,,,,,,,,,,,,,p314,22,female,up_down_width,2025-12-02_12h57.48.407,exp1,2023.1.0,60.00214807928742,
,,,,,,,,,,,,,,,,4,8.95,9.65,10.35,11.05,0,0.7,0.1499999999999999,0.55,2.65,10,initial,36.05,323,348,373,398,0,9,9,9,9,0,,,,,,,0,0,0,0,0,37,37,23,,,,,,,,,,,,,,3,1.569096300052479,3,0.5,0.6000000000000001,21.62576,return,1.120632000034675,,,,,,,,,,,,,,,,,p314,22,female,up_down_width,2025-12-02_12h57.48.407,exp1,2023.1.0,60.00214807928742,
,,,,,,,,,,,,,,,,3,8.2,10,11.8,0,0,1.8,1.25,0.55,4.15,10,match,36.05,296,361,425,0,0,9,9,9,0,0,,,,,,,0,0,0,0,0,38,38,47,,,,,,,,,,,,,,3,1.691435899818316,3,0.55,0.7000000000000002,25.23005,return,1.141461699968204,,,,,,,,,,,,,,,,,p314,22,female,up_down_width,2025-12-02_12h57.48.407,exp1,2023.1.0,60.00214807928742,
,,,,,,,,,,,,,,,,3,8.6,10,11.4,0,0,1.4,0.85,0.55,3.35,10,match,36.05,310,361,411,0,0,9,9,9,0,0,,,,,,,0,0,0,0,0,39,39,41,,,,,,,,,,,,,,3,2.049006399931386,3,0.3,0.6,21.62576,return,2.0469573999289423,,,,,,,,,,,,,,,,,p314,22,female,up_down_width,2025-12-02_12h57.48.407,exp1,2023.1.0,60.00214807928742,
,,,,,,,,,,,,,,,,3,9.3,10,10.7,0,0,0.7,0.29999999999999993,0.4,1.8,10,initial,36.05,335,361,386,0,0,9,9,9,0,0,,,,,,,0,0,0,0,0,40,40,9,,,,,,,,,,,,,,3,0.9930692999623716,3,0.25,0.35,12.61502,return,1.3833514999132603,,,,,,,,,,,,,,,,,p314,22,female,up_down_width,2025-12-02_12h57.48.407,exp1,2023.1.0,60.00214807928742,
,,,,,,,,,,,,,,,,5,8.6,9.3,10,10.7,11.4,0.7,0.29999999999999993,0.4,3.1999999999999997,10,initial,36.05,310,335,361,386,411,9,9,9,9,9,,,,,,,0,0,0,0,0,41,41,44,,,,,,,,,,,,,,5,1.3482377999462187,5,0.35,0.39999999999999997,14.41717,return,1.8683525000233203,,,,,,,,,,,,,,,,,p314,22,female,up_down_width,2025-12-02_12h57.48.407,exp1,2023.1.0,60.00214807928742,
,,,,,,,,,,,,,,,,5,7.8,8.9,10,11.1,12.2,1.1,0.55,0.55,4.95,10,initial,36.05,281,321,361,400,440,9,9,9,9,9,,,,,,,0,0,0,0,0,42,42,34,,,,,,,,,,,,,,5,1.5314527999144047,5,0.35,0.44999999999999996,16.21932,return,0.8936381000094116,,,,,,,,,,,,,,,,,p314,22,female,up_down_width,2025-12-02_12h57.48.407,exp1,2023.1.0,60.00214807928742,
,,,,,,,,,,,,,,,,4,8.65,9.55,10.45,11.35,0,0.9,0.35,0.55,3.25,10,initial,36.05,312,344,377,409,0,9,9,9,9,0,,,,,,,0,0,0,0,0,43,43,28,,,,,,,,,,,,,,4,1.4941957998089492,4,0.4,0.5,18.02146,return,1.0977835999801755,,,,,,,,,,,,,,,,,p314,22,female,up_down_width,2025-12-02_12h57.48.407,exp1,2023.1.0,60.00214807928742,
,,,,,,,,,,,,,,,,4,8.65,9.55,10.45,11.35,0,0.9,0.65,0.25,2.95,10,initial,36.05,312,344,377,409,0,9,9,9,9,0,,,,,,,0,0,0,0,0,44,44,30,,,,,,,,,,,,,,4,1.435013100039214,4,0.35,0.2,7.20859,return,1.1358138998039067,,,,,,,,,,,,,,,,,p314,22,female,up_down_width,2025-12-02_12h57.48.407,exp1,2023.1.0,60.00214807928742,
,,,,,,,,,,,,,,,,3,7.8,10,12.2,0,0,2.2,1.65,0.55,4.95,10,match,36.05,281,361,440,0,0,9,9,9,0,0,,,,,,,0,0,0,0,0,45,45,35,,,,,,,,,,,,,,3,1.2191190999001265,3,0.3,0.49999999999999994,18.02146,return,1.1372377998195589,,,,,,,,,,,,,,,,,p314,22,female,up_down_width,2025-12-02_12h57.48.407,exp1,2023.1.0,60.00214807928742,
,,,,,,,,,,,,,,,,4,8.9,9.633333333333333,10.366666666666667,11.1,0,0.7333333333333334,0.4833333333333334,0.25,2.45,10,match,36.05,321,347,374,400,0,9,9,9,9,0,,,,,,,0,0,0,0,0,46,46,3,,,,,,,,,,,,,,4,1.7708670997526497,4,0.4,0.25000000000000006,9.01073,return,1.1543203997425735,,,,,,,,,,,,,,,,,p314,22,female,up_down_width,2025-12-02_12h57.48.407,exp1,2023.1.0,60.00214807928742,
,,,,,,,,,,,,,,,,4,8.95,9.65,10.35,11.05,0,0.7,0.29999999999999993,0.4,2.5,10,initial,36.05,323,348,373,398,0,9,9,9,9,0,,,,,,,0,0,0,0,0,47,47,26,,,,,,,,,,,,,,4,1.3889453997835517,4,0.55,0.35000000000000003,12.61502,return,1.3163139999378473,,,,,,,,,,,,,,,,,p314,22,female,up_down_width,2025-12-02_12h57.48.407,exp1,2023.1.0,60.00214807928742,
,,,,,,,,,,,,,,,,4,8.9,9.633333333333333,10.366666666666667,11.1,0,0.7333333333333333,0.18333333333333326,0.55,2.75,10,match,36.05,321,347,374,400,0,9,9,9,9,0,,,,,,,0,0,0,0,0,48,48,1,,,,,,,,,,,,,,4,1.876208399888128,4,0.5,0.6000000000000001,21.62576,return,1.3993463998194784,,,,,,,,,,,,,,,,,p314,22,female,up_down_width,2025-12-02_12h57.48.407,exp1,2023.1.0,60.00214807928742,
,,,,,,,,,,,,,,,,5,8.2,9.1,10,10.9,11.8,0.9,0.65,0.25,3.85,10,initial,36.05,296,328,361,393,425,9,9,9,9,9,,,,,,,0,0,0,0,0,49,49,48,,,,,,,,,,,,,,5,1.488478799816221,5,0.2,0.15000000000000002,5.40644,return,1.4770968998782337,,,,,,,,,,,,,,,,,p314,22,female,up_down_width,2025-12-02_12h57.48.407,exp1,2023.1.0,60.00214807928742,
,,,,,,,,,,,,,,,,5,8.2,9.1,10,10.9,11.8,0.9,0.35,0.55,4.15,10,initial,36.05,296,328,361,393,425,9,9,9,9,9,,,,,,,0,0,0,0,0,50,50,46,,,,,,,,,,,,,,5,1.7883261998649687,5,0.2,0.49999999999999994,18.02146,return,2.099012800026685,,,,,,,,,,,,,,,,,p314,22,female,up_down_width,2025-12-02_12h57.48.407,exp1,2023.1.0,60.00214807928742,
,,,,,,,,,,,,,,,,5,8.6,9.3,10,10.7,11.4,0.7,0.44999999999999996,0.25,3.05,10,initial,36.05,310,335,361,386,411,9,9,9,9,9,,,,,,,0,0,0,0,0,51,51,42,,,,,,,,,,,,,,4,1.5288402999285609,4,0.4,0.15000000000000008,5.40644,return,2.7630233999807388,,,,,,,,,,,,,,,,,p314,22,female,up_down_width,2025-12-02_12h57.48.407,exp1,2023.1.0,60.00214807928742,
,,,,,,,,,,,,,,,,,,,,,,,,,,,,,,,,,,,,,,,,,,,,,0,0,0,0,,,,,,,,,,,,,,,,,,,,,,,,,,,,587.2117000001017,587.2117000001017,587.2117000001017,,,,,,,,,,,,p314,22,female,up_down_width,2025-12-02_12h57.48.407,exp1,2023.1.0,60.00214807928742,
,,,,,,,,,,,,,,,,4,8.65,9.55,10.45,11.35,0,0.9,0.35,0.55,3.25,10,initial,36.05,312,344,377,409,0,9,9,9,9,0,,,,,,,1,0,1,0,0,0,0,28,,,,,,,,,,,,,,4,2.0810716999694705,4,0.5,0.55,19.82361,return,1.1487275999970734,,,,,,,,,,,,,,,,,p314,22,female,up_down_width,2025-12-02_12h57.48.407,exp1,2023.1.0,60.00214807928742,
,,,,,,,,,,,,,,,,3,8.6,10,11.4,0,0,1.4,1.15,0.25,3.05,10,match,36.05,310,361,411,0,0,9,9,9,0,0,,,,,,,1,0,1,0,0,1,1,43,,,,,,,,,,,,,,3,1.0481149000115693,3,0.5,0.20000000000000007,7.20859,return,2.093399199889973,,,,,,,,,,,,,,,,,p314,22,female,up_down_width,2025-12-02_12h57.48.407,exp1,2023.1.0,60.00214807928742,
,,,,,,,,,,,,,,,,5,8.65,9.325,10,10.675,11.35,0.675,0.42500000000000004,0.25,2.95,10,match,36.05,312,336,361,385,409,9,9,9,9,9,,,,,,,1,0,1,0,0,2,2,31,,,,,,,,,,,,,,5,1.2223465000279248,5,0.4,0.15000000000000008,5.40644,return,1.7806001000571996,,,,,,,,,,,,,,,,,p314,22,female,up_down_width,2025-12-02_12h57.48.407,exp1,2023.1.0,60.00214807928742,
,,,,,,,,,,,,,,,,5,8.35,9.175,10,10.825,11.65,0.8250000000000001,0.275,0.55,3.85,10,match,36.05,301,331,361,390,420,9,9,9,9,9,,,,,,,1,0,1,0,0,3,3,18,,,,,,,,,,,,,,5,1.258209099760279,5,0.2,0.44999999999999996,16.21932,return,2.055298199877143,,,,,,,,,,,,,,,,,p314,22,female,up_down_width,2025-12-02_12h57.48.407,exp1,2023.1.0,60.00214807928742,
,,,,,,,,,,,,,,,,5,8.2,9.1,10,10.9,11.8,0.9,0.35,0.55,4.15,10,initial,36.05,296,328,361,393,425,9,9,9,9,9,,,,,,,1,0,1,0,0,4,4,46,,,,,,,,,,,,,,5,1.084974399767816,5,0.45,0.55,19.82361,return,0.9767940999008715,,,,,,,,,,,,,,,,,p314,22,female,up_down_width,2025-12-02_12h57.48.407,exp1,2023.1.0,60.00214807928742,
,,,,,,,,,,,,,,,,4,8.95,9.65,10.35,11.05,0,0.7,0.1499999999999999,0.55,2.65,10,initial,36.05,323,348,373,398,0,9,9,9,9,0,,,,,,,1,0,1,0,0,5,5,23,,,,,,,,,,,,,,4,1.335158399771899,4,0.4,0.55,19.82361,return,2.99271749984473,,,,,,,,,,,,,,,,,p314,22,female,up_down_width,2025-12-02_12h57.48.407,exp1,2023.1.0,60.00214807928742,
,,,,,,,,,,,,,,,,4,9.1,9.7,10.3,10.9,0,0.6,0.04999999999999997,0.55,2.35,10,match,36.05,328,350,371,393,0,9,9,9,9,0,,,,,,,1,0,1,0,0,6,6,12,,,,,,,,,,,,,,4,1.6819375997874886,4,0.55,0.8000000000000003,28.83434,return,2.3652901998721063,,,,,,,,,,,,,,,,,p314,22,female,up_down_width,2025-12-02_12h57.48.407,exp1,2023.1.0,60.00214807928742,
,,,,,,,,,,,,,,,,5,8.6,9.3,10,10.7,11.4,0.7,0.44999999999999996,0.25,3.05,10,initial,36.05,310,335,361,386,411,9,9,9,9,9,,,,,,,1,0,1,0,0,7,7,42,,,,,,,,,,,,,,5,1.1610143000725657,5,0.2,0.15000000000000002,5.40644,return,1.4973911996930838,,,,,,,,,,,,,,,,,p314,22,female,up_down_width,2025-12-02_12h57.48.407,exp1,2023.1.0,60.00214807928742,
,,,,,,,,,,,,,,,,4,9.3,9.766666666666667,10.233333333333333,10.7,0,0.4666666666666667,0.06666666666666665,0.4,1.8,10,match,36.05,335,352,369,386,0,9,9,9,9,0,,,,,,,1,0,1,0,0,8,8,10,,,,,,,,,,,,,,4,1.2844972000457346,4,0.3,0.39999999999999997,14.41717,return,1.5039436998777092,,,,,,,,,,,,,,,,,p314,22,female,up_down_width,2025-12-02_12h57.48.407,exp1,2023.1.0,60.00214807928742,
,,,,,,,,,,,,,,,,3,8.2,10,11.8,0,0,1.8,1.25,0.55,4.15,10,match,36.05,296,361,425,0,0,9,9,9,0,0,,,,,,,1,0,1,0,0,9,9,47,,,,,,,,,,,,,,3,1.2767707998864353,3,0.55,0.55,19.82361,return,1.384150099940598,,,,,,,,,,,,,,,,,p314,22,female,up_down_width,2025-12-02_12h57.48.407,exp1,2023.1.0,60.00214807928742,
,,,,,,,,,,,,,,,,3,8.2,10,11.8,0,0,1.7999999999999998,1.4,0.4,4,10,match,36.05,296,361,425,0,0,9,9,9,0,0,,,,,,,1,0,1,0,0,10,10,51,,,,,,,,,,,,,,3,1.247205999912694,3,0.35,0.49999999999999994,18.02146,return,1.211600200040266,,,,,,,,,,,,,,,,,p314,22,female,up_down_width,2025-12-02_12h57.48.407,exp1,2023.1.0,60.00214807928742,
,,,,,,,,,,,,,,,,5,8.275,9.1375,10,10.8625,11.725,0.8625,0.6125,0.25,3.7,10,match,36.05,298,329,361,392,423,9,9,9,9,9,,,,,,,1,0,1,0,0,11,11,22,,,,,,,,,,,,,,4,1.223599499789998,4,0.25,0.35,12.61502,return,0.9829414000269026,,,,,,,,,,,,,,,,,p314,22,female,up_down_width,2025-12-02_12h57.48.407,exp1,2023.1.0,60.00214807928742,
,,,,,,,,,,,,,,,,4,8.35,9.45,10.55,11.65,0,1.1,0.7000000000000001,0.4,3.7,10,initial,36.05,301,341,380,420,0,9,9,9,9,0,,,,,,,1,0,1,0,0,12,12,21,,,,,,,,,,,,,,4,0.8162021997850388,4,0.25,0.44999999999999996,16.21932,return,0.9270788000430912,,,,,,,,,,,,,,,,,p314,22,female,up_down_width,2025-12-02_12h57.48.407,exp1,2023.1.0,60.00214807928742,
,,,,,,,,,,,,,,,,5,8.65,9.325,10,10.675,11.35,0.675,0.275,0.4,3.1,10,match,36.05,312,336,361,385,409,9,9,9,9,9,,,,,,,1,0,1,0,0,13,13,33,,,,,,,,,,,,,,5,1.2710731998085976,5,0.55,0.45,16.21932,return,2.1462733999360353,,,,,,,,,,,,,,,,,p314,22,female,up_down_width,2025-12-02_12h57.48.407,exp1,2023.1.0,60.00214807928742,
,,,,,,,,,,,,,,,,4,9.1,9.7,10.3,10.9,0,0.5999999999999999,0.3499999999999999,0.25,2.05,10,match,36.05,328,350,371,393,0,9,9,9,9,0,,,,,,,1,0,1,0,0,14,14,14,,,,,,,,,,,,,,4,1.2516377998981625,4,0.35,0.44999999999999996,16.21932,return,0.9928999999538064,,,,,,,,,,,,,,,,,p314,22,female,up_down_width,2025-12-02_12h57.48.407,exp1,2023.1.0,60.00214807928742,
,,,,,,,,,,,,,,,,4,8.65,9.55,10.45,11.35,0,0.9,0.65,0.25,2.95,10,initial,36.05,312,344,377,409,0,9,9,9,9,0,,,,,,,1,0,1,0,0,15,15,30,,,,,,,,,,,,,,3,1.2741983998566866,3,0.5,0.25000000000000006,9.01073,return,1.078836499946192,,,,,,,,,,,,,,,,,p314,22,female,up_down_width,2025-12-02_12h57.48.407,exp1,2023.1.0,60.00214807928742,
,,,,,,,,,,,,,,,,3,9.3,10,10.7,0,0,0.7,0.29999999999999993,0.4,1.8,10,initial,36.05,335,361,386,0,0,9,9,9,0,0,,,,,,,1,0,1,0,0,16,16,9,,,,,,,,,,,,,,3,1.3629022997338325,3,0.2,0.39999999999999997,14.41717,return,1.5623633998911828,,,,,,,,,,,,,,,,,p314,22,female,up_down_width,2025-12-02_12h57.48.407,exp1,2023.1.0,60.00214807928742,
,,,,,,,,,,,,,,,,5,8.65,9.325,10,10.675,11.35,0.675,0.125,0.55,3.25,10,match,36.05,312,336,361,385,409,9,9,9,9,9,,,,,,,1,0,1,0,0,17,17,29,,,,,,,,,,,,,,4,0.9902781997807324,4,0.5,0.55,19.82361,return,1.1729194996878505,,,,,,,,,,,,,,,,,p314,22,female,up_down_width,2025-12-02_12h57.48.407,exp1,2023.1.0,60.00214807928742,
,,,,,,,,,,,,,,,,5,8.35,9.175,10,10.825,11.65,0.825,0.575,0.25,3.55,10,match,36.05,301,331,361,390,420,9,9,9,9,9,,,,,,,1,0,1,0,0,18,18,20,,,,,,,,,,,,,,5,0.9949521999806166,5,0.2,0.10000000000000002,3.60429,return,0.7781648996751755,,,,,,,,,,,,,,,,,p314,22,female,up_down_width,2025-12-02_12h57.48.407,exp1,2023.1.0,60.00214807928742,
,,,,,,,,,,,,,,,,3,9.1,10,10.9,0,0,0.9,0.5,0.4,2.2,10,initial,36.05,328,361,393,0,0,9,9,9,0,0,,,,,,,1,0,1,0,0,19,19,15,,,,,,,,,,,,,,3,1.0389689998701215,3,0.3,0.35,12.61502,return,0.931993399746716,,,,,,,,,,,,,,,,,p314,22,female,up_down_width,2025-12-02_12h57.48.407,exp1,2023.1.0,60.00214807928742,
,,,,,,,,,,,,,,,,3,9.3,10,10.7,0,0,0.7,0.44999999999999996,0.25,1.65,10,initial,36.05,335,361,386,0,0,9,9,9,0,0,,,,,,,1,0,1,0,0,20,20,7,,,,,,,,,,,,,,3,0.9780530999414623,3,0.5,0.30000000000000004,10.81288,return,1.0341931998264045,,,,,,,,,,,,,,,,,p314,22,female,up_down_width,2025-12-02_12h57.48.407,exp1,2023.1.0,60.00214807928742,
,,,,,,,,,,,,,,,,5,8.95,9.475,10,10.525,11.05,0.525,0.275,0.25,2.35,10,match,36.05,323,342,361,379,398,9,9,9,9,9,,,,,,,1,0,1,0,0,21,21,25,,,,,,,,,,,,,,4,0.7339971999172121,4,0.55,0.25000000000000006,9.01073,return,1.8223279998637736,,,,,,,,,,,,,,,,,p314,22,female,up_down_width,2025-12-02_12h57.48.407,exp1,2023.1.0,60.00214807928742,
,,,,,,,,,,,,,,,,3,7.8,10,12.2,0,0,2.2,1.65,0.55,4.95,10,match,36.05,281,361,440,0,0,9,9,9,0,0,,,,,,,1,0,1,0,0,22,22,35,,,,,,,,,,,,,,3,1.182583699701354,3,0.35,0.6,21.62576,return,1.0867127999663353,,,,,,,,,,,,,,,,,p314,22,female,up_down_width,2025-12-02_12h57.48.407,exp1,2023.1.0,60.00214807928742,
,,,,,,,,,,,,,,,,5,8.2,9.1,10,10.9,11.8,0.9,0.65,0.25,3.85,10,initial,36.05,296,328,361,393,425,9,9,9,9,9,,,,,,,1,0,1,0,0,23,23,48,,,,,,,,,,,,,,5,1.142146599944681,5,0.2,0.15000000000000002,5.40644,return,1.1759037000592798,,,,,,,,,,,,,,,,,p314,22,female,up_down_width,2025-12-02_12h57.48.407,exp1,2023.1.0,60.00214807928742,
,,,,,,,,,,,,,,,,3,9.1,10,10.9,0,0,0.9,0.65,0.25,2.05,10,initial,36.05,328,361,393,0,0,9,9,9,0,0,,,,,,,1,0,1,0,0,24,24,13,,,,,,,,,,,,,,2,1.1963432000484318,2,0.45,0.20000000000000007,7.20859,return,1.7072780998423696,,,,,,,,,,,,,,,,,p314,22,female,up_down_width,2025-12-02_12h57.48.407,exp1,2023.1.0,60.00214807928742,
,,,,,,,,,,,,,,,,3,8.525,10,11.475,0,0,1.475,1.225,0.25,3.2,10,match,36.05,307,361,414,0,0,9,9,9,0,0,,,,,,,1,0,1,0,0,25,25,45,,,,,,,,,,,,,,3,1.3995682999957353,3,0.25,0.15000000000000002,5.40644,return,0.7673828999977559,,,,,,,,,,,,,,,,,p314,22,female,up_down_width,2025-12-02_12h57.48.407,exp1,2023.1.0,60.00214807928742,
,,,,,,,,,,,,,,,,4,8.825,9.608333333333333,10.391666666666667,11.175,0,0.7833333333333333,0.5333333333333333,0.25,2.6,10,match,36.05,318,346,375,403,0,9,9,9,9,0,,,,,,,1,0,1,0,0,26,26,5,,,,,,,,,,,,,,4,0.9067319999448955,4,0.2,0.3,10.81288,return,0.8045937998685986,,,,,,,,,,,,,,,,,p314,22,female,up_down_width,2025-12-02_12h57.48.407,exp1,2023.1.0,60.00214807928742,
,,,,,,,,,,,,,,,,5,8.2,9.1,10,10.9,11.8,0.9,0.5,0.4,4,10,initial,36.05,296,328,361,393,425,9,9,9,9,9,,,,,,,1,0,1,0,0,27,27,50,,,,,,,,,,,,,,5,1.2059016998391598,5,0.25,0.39999999999999997,14.41717,return,0.8035609000362456,,,,,,,,,,,,,,,,,p314,22,female,up_down_width,2025-12-02_12h57.48.407,exp1,2023.1.0,60.00214807928742,
,,,,,,,,,,,,,,,,4,8.9,9.633333333333333,10.366666666666667,11.1,0,0.7333333333333334,0.4833333333333334,0.25,2.45,10,match,36.05,321,347,374,400,0,9,9,9,9,0,,,,,,,1,0,1,0,0,28,28,3,,,,,,,,,,,,,,4,1.0083551998250186,4,0.45,0.25000000000000006,9.01073,return,1.6239692999515682,,,,,,,,,,,,,,,,,p314,22,female,up_down_width,2025-12-02_12h57.48.407,exp1,2023.1.0,60.00214807928742,
,,,,,,,,,,,,,,,,4,8.95,9.65,10.35,11.05,0,0.7,0.44999999999999996,0.25,2.3499999999999996,10,initial,36.05,323,348,373,398,0,9,9,9,9,0,,,,,,,1,0,1,0,0,29,29,24,,,,,,,,,,,,,,4,1.5174116000998765,4,0.45,0.25000000000000006,9.01073,return,1.0706050998996943,,,,,,,,,,,,,,,,,p314,22,female,up_down_width,2025-12-02_12h57.48.407,exp1,2023.1.0,60.00214807928742,
,,,,,,,,,,,,,,,,3,8.2,10,11.8,0,0,1.8,1.55,0.25,3.85,10,match,36.05,296,361,425,0,0,9,9,9,0,0,,,,,,,1,0,1,0,0,30,30,49,,,,,,,,,,,,,,3,1.402938999934122,3,0.35,0.15000000000000002,5.40644,return,0.9769524000585079,,,,,,,,,,,,,,,,,p314,22,female,up_down_width,2025-12-02_12h57.48.407,exp1,2023.1.0,60.00214807928742,
,,,,,,,,,,,,,,,,4,9.1,9.7,10.3,10.9,0,0.6000000000000001,0.20000000000000004,0.4,2.2,10,match,36.05,328,350,371,393,0,9,9,9,9,0,,,,,,,1,0,1,0,0,31,31,16,,,,,,,,,,,,,,4,0.983601399930194,4,0.2,0.44999999999999996,16.21932,return,0.960264999885112,,,,,,,,,,,,,,,,,p314,22,female,up_down_width,2025-12-02_12h57.48.407,exp1,2023.1.0,60.00214807928742,
,,,,,,,,,,,,,,,,4,8.95,9.65,10.35,11.05,0,0.7,0.29999999999999993,0.4,2.5,10,initial,36.05,323,348,373,398,0,9,9,9,9,0,,,,,,,1,0,1,0,0,32,32,26,,,,,,,,,,,,,,4,0.7648340000305325,4,0.25,0.44999999999999996,16.21932,return,0.9403643999248743,,,,,,,,,,,,,,,,,p314,22,female,up_down_width,2025-12-02_12h57.48.407,exp1,2023.1.0,60.00214807928742,
,,,,,,,,,,,,,,,,5,8.6,9.3,10,10.7,11.4,0.7,0.1499999999999999,0.55,3.3499999999999996,10,initial,36.05,310,335,361,386,411,9,9,9,9,9,,,,,,,1,0,1,0,0,33,33,40,,,,,,,,,,,,,,4,1.4157912998925894,4,0.25,0.6,21.62576,return,1.278906699968502,,,,,,,,,,,,,,,,,p314,22,female,up_down_width,2025-12-02_12h57.48.407,exp1,2023.1.0,60.00214807928742,
,,,,,,,,,,,,,,,,3,7.8,10,12.2,0,0,2.2,1.9500000000000002,0.25,4.65,10,match,36.05,281,361,440,0,0,9,9,9,0,0,,,,,,,1,0,1,0,0,34,34,37,,,,,,,,,,,,,,3,1.0756594997365028,3,0.25,0.15000000000000002,5.40644,return,1.3994768999982625,,,,,,,,,,,,,,,,,p314,22,female,up_down_width,2025-12-02_12h57.48.407,exp1,2023.1.0,60.00214807928742,
,,,,,,,,,,,,,,,,5,7.8,8.9,10,11.1,12.2,1.1,0.8500000000000001,0.25,4.65,10,initial,36.05,281,321,361,400,440,9,9,9,9,9,,,,,,,1,0,1,0,0,35,35,36,,,,,,,,,,,,,,5,1.1839999000076205,5,0.25,0.15000000000000002,5.40644,return,2.048822100041434,,,,,,,,,,,,,,,,,p314,22,female,up_down_width,2025-12-02_12h57.48.407,exp1,2023.1.0,60.00214807928742,
,,,,,,,,,,,,,,,,4,8.9,9.633333333333333,10.366666666666667,11.1,0,0.7333333333333333,0.18333333333333326,0.55,2.75,10,match,36.05,321,347,374,400,0,9,9,9,9,0,,,,,,,1,0,1,0,0,36,36,1,,,,,,,,,,,,,,4,1.1512971997726709,4,0.25,0.35,12.61502,return,1.376353999832645,,,,,,,,,,,,,,,,,p314,22,female,up_down_width,2025-12-02_12h57.48.407,exp1,2023.1.0,60.00214807928742,
,,,,,,,,,,,,,,,,3,8.9,10,11.1,0,0,1.1,0.7000000000000001,0.4,2.6000000000000005,10,initial,36.05,321,361,400,0,0,9,9,9,0,0,,,,,,,1,0,1,0,0,37,37,4,,,,,,,,,,,,,,3,1.046420499915257,3,0.45,0.35000000000000003,12.61502,return,1.451006299816072,,,,,,,,,,,,,,,,,p314,22,female,up_down_width,2025-12-02_12h57.48.407,exp1,2023.1.0,60.00214807928742,
,,,,,,,,,,,,,,,,5,8.95,9.475,10,10.525,11.05,0.525,0.125,0.4,2.5,10,match,36.05,323,342,361,379,398,9,9,9,9,9,,,,,,,1,0,1,0,0,38,38,27,,,,,,,,,,,,,,4,1.0492263999767601,4,0.3,0.5499999999999999,19.82361,return,1.0385291997808963,,,,,,,,,,,,,,,,,p314,22,female,up_down_width,2025-12-02_12h57.48.407,exp1,2023.1.0,60.00214807928742,
,,,,,,,,,,,,,,,,4,8.35,9.45,10.55,11.65,0,1.1,0.8500000000000001,0.25,3.5500000000000003,10,initial,36.05,301,341,380,420,0,9,9,9,9,0,,,,,,,1,0,1,0,0,39,39,19,,,,,,,,,,,,,,3,0.9735034997574985,3,0.55,0.20000000000000007,7.20859,return,1.7166647999547422,,,,,,,,,,,,,,,,,p314,22,female,up_down_width,2025-12-02_12h57.48.407,exp1,2023.1.0,60.00214807928742,
,,,,,,,,,,,,,,,,5,7.8,8.9,10,11.1,12.2,1.1,0.55,0.55,4.95,10,initial,36.05,281,321,361,400,440,9,9,9,9,9,,,,,,,1,0,1,0,0,40,40,34,,,,,,,,,,,,,,5,1.0421326998621225,5,0.4,0.35000000000000003,12.61502,return,1.0957506000995636,,,,,,,,,,,,,,,,,p314,22,female,up_down_width,2025-12-02_12h57.48.407,exp1,2023.1.0,60.00214807928742,
,,,,,,,,,,,,,,,,3,8.6,10,11.4,0,0,1.4,0.85,0.55,3.35,10,match,36.05,310,361,411,0,0,9,9,9,0,0,,,,,,,1,0,1,0,0,41,41,41,,,,,,,,,,,,,,2,0.9880806999281049,2,0.5,0.6500000000000001,23.4279,return,0.6444711999502033,,,,,,,,,,,,,,,,,p314,22,female,up_down_width,2025-12-02_12h57.48.407,exp1,2023.1.0,60.00214807928742,
,,,,,,,,,,,,,,,,3,9.1,10,10.9,0,0,0.9,0.35,0.55,2.35,10,initial,36.05,328,361,393,0,0,9,9,9,0,0,,,,,,,1,0,1,0,0,42,42,11,,,,,,,,,,,,,,2,0.7863436997868121,2,0.35,0.6,21.62576,return,1.106328499969095,,,,,,,,,,,,,,,,,p314,22,female,up_down_width,2025-12-02_12h57.48.407,exp1,2023.1.0,60.00214807928742,
,,,,,,,,,,,,,,,,4,8.35,9.45,10.55,11.65,0,1.1,0.55,0.55,3.8500000000000005,10,initial,36.05,301,341,380,420,0,9,9,9,9,0,,,,,,,1,0,1,0,0,43,43,17,,,,,,,,,,,,,,4,1.1028913999907672,4,0.5,0.6000000000000001,21.62576,return,0.6737630998250097,,,,,,,,,,,,,,,,,p314,22,female,up_down_width,2025-12-02_12h57.48.407,exp1,2023.1.0,60.00214807928742,
,,,,,,,,,,,,,,,,5,8.6,9.3,10,10.7,11.4,0.7,0.29999999999999993,0.4,3.1999999999999997,10,initial,36.05,310,335,361,386,411,9,9,9,9,9,,,,,,,1,0,1,0,0,44,44,44,,,,,,,,,,,,,,4,1.976356799947098,4,0.3,0.35,12.61502,return,1.1436358999926597,,,,,,,,,,,,,,,,,p314,22,female,up_down_width,2025-12-02_12h57.48.407,exp1,2023.1.0,60.00214807928742,
,,,,,,,,,,,,,,,,4,8.65,9.55,10.45,11.35,0,0.9,0.5,0.4,3.1,10,initial,36.05,312,344,377,409,0,9,9,9,9,0,,,,,,,1,0,1,0,0,45,45,32,,,,,,,,,,,,,,4,1.2236082998570055,4,0.5,0.6000000000000001,21.62576,return,0.5817815999034792,,,,,,,,,,,,,,,,,p314,22,female,up_down_width,2025-12-02_12h57.48.407,exp1,2023.1.0,60.00214807928742,
,,,,,,,,,,,,,,,,5,7.8,8.9,10,11.1,12.2,1.1,0.7000000000000001,0.4,4.800000000000001,10,initial,36.05,281,321,361,400,440,9,9,9,9,9,,,,,,,1,0,1,0,0,46,46,38,,,,,,,,,,,,,,5,0.9937592998612672,5,0.4,0.55,19.82361,return,0.8563266000710428,,,,,,,,,,,,,,,,,p314,22,female,up_down_width,2025-12-02_12h57.48.407,exp1,2023.1.0,60.00214807928742,
,,,,,,,,,,,,,,,,3,7.800000000000001,10,12.2,0,0,2.1999999999999997,1.7999999999999998,0.4,4.8,10,match,36.05,281,361,440,0,0,9,9,9,0,0,,,,,,,1,0,1,0,0,47,47,39,,,,,,,,,,,,,,3,1.252079299883917,3,0.5,0.4,14.41717,return,2.480233799898997,,,,,,,,,,,,,,,,,p314,22,female,up_down_width,2025-12-02_12h57.48.407,exp1,2023.1.0,60.00214807928742,
,,,,,,,,,,,,,,,,3,8.9,10,11.1,0,0,1.1,0.55,0.55,2.75,10,initial,36.05,321,361,400,0,0,9,9,9,0,0,,,,,,,1,0,1,0,0,48,48,0,,,,,,,,,,,,,,3,1.0975250997580588,3,0.4,0.4,14.41717,return,1.1009866998065263,,,,,,,,,,,,,,,,,p314,22,female,up_down_width,2025-12-02_12h57.48.407,exp1,2023.1.0,60.00214807928742,
,,,,,,,,,,,,,,,,3,8.9,10,11.1,0,0,1.1,0.8500000000000001,0.25,2.45,10,initial,36.05,321,361,400,0,0,9,9,9,0,0,,,,,,,1,0,1,0,0,49,49,2,,,,,,,,,,,,,,2,1.000283899717033,2,0.35,0.2,7.20859,return,1.8069637999869883,,,,,,,,,,,,,,,,,p314,22,female,up_down_width,2025-12-02_12h57.48.407,exp1,2023.1.0,60.00214807928742,
,,,,,,,,,,,,,,,,4,9.3,9.766666666666667,10.233333333333333,10.7,0,0.4666666666666667,0.21666666666666665,0.25,1.65,10,match,36.05,335,352,369,386,0,9,9,9,9,0,,,,,,,1,0,1,0,0,50,50,8,,,,,,,,,,,,,,3,1.0071226998697966,3,0.45,0.25000000000000006,9.01073,return,1.1091624998953193,,,,,,,,,,,,,,,,,p314,22,female,up_down_width,2025-12-02_12h57.48.407,exp1,2023.1.0,60.00214807928742,
,,,,,,,,,,,,,,,,3,9.3,10,10.7,0,0,0.7,0.1499999999999999,0.55,1.95,10,initial,36.05,335,361,386,0,0,9,9,9,0,0,,,,,,,1,0,1,0,0,51,51,6,,,,,,,,,,,,,,3,1.1101054998580366,3,0.2,0.35,12.61502,return,1.4329013999085873,,,,,,,,,,,,,,,,,p314,22,female,up_down_width,2025-12-02_12h57.48.407,exp1,2023.1.0,60.00214807928742,
,,,,,,,,,,,,,,,,,,,,,,,,,,,,,,,,,,,,,,,,,,,,,1,0,1,0,,,,,,,,,,,,,,,,,,,,,,,,,,,,851.1971345001366,851.1971345001366,851.1971345001366,,,,,,,,,,,,p314,22,female,up_down_width,2025-12-02_12h57.48.407,exp1,2023.1.0,60.00214807928742,
,,,,,,,,,,,,,,,,4,8.825,9.608333333333333,10.391666666666667,11.175,0,0.7833333333333333,0.5333333333333333,0.25,2.6,10,match,36.05,318,346,375,403,0,9,9,9,9,0,,,,,,,2,0,2,0,0,0,0,5,,,,,,,,,,,,,,4,2.265863699838519,4,0.2,0.2,7.20859,return,1.0863280999474227,,,,,,,,,,,,,,,,,p314,22,female,up_down_width,2025-12-02_12h57.48.407,exp1,2023.1.0,60.00214807928742,
,,,,,,,,,,,,,,,,5,8.35,9.175,10,10.825,11.65,0.825,0.575,0.25,3.55,10,match,36.05,301,331,361,390,420,9,9,9,9,9,,,,,,,2,0,2,0,0,1,1,20,,,,,,,,,,,,,,4,0.5562081998214126,4,0.45,0.20000000000000007,7.20859,return,1.4774680999107659,,,,,,,,,,,,,,,,,p314,22,female,up_down_width,2025-12-02_12h57.48.407,exp1,2023.1.0,60.00214807928742,
,,,,,,,,,,,,,,,,3,8.9,10,11.1,0,0,1.1,0.55,0.55,2.75,10,initial,36.05,321,361,400,0,0,9,9,9,0,0,,,,,,,2,0,2,0,0,2,2,0,,,,,,,,,,,,,,2,1.2006675999145955,2,0.3,0.39999999999999997,14.41717,return,0.864320799941197,,,,,,,,,,,,,,,,,p314,22,female,up_down_width,2025-12-02_12h57.48.407,exp1,2023.1.0,60.00214807928742,
,,,,,,,,,,,,,,,,3,9.1,10,10.9,0,0,0.9,0.35,0.55,2.35,10,initial,36.05,328,361,393,0,0,9,9,9,0,0,,,,,,,2,0,2,0,0,3,3,11,,,,,,,,,,,,,,3,1.184481999836862,3,0.5,0.6000000000000001,21.62576,return,0.6562339998781681,,,,,,,,,,,,,,,,,p314,22,female,up_down_width,2025-12-02_12h57.48.407,exp1,2023.1.0,60.00214807928742,
,,,,,,,,,,,,,,,,4,8.65,9.55,10.45,11.35,0,0.9,0.65,0.25,2.95,10,initial,36.05,312,344,377,409,0,9,9,9,9,0,,,,,,,2,0,2,0,0,4,4,30,,,,,,,,,,,,,,3,0.7069262997247279,3,0.4,0.25000000000000006,9.01073,return,1.0122671998105943,,,,,,,,,,,,,,,,,p314,22,female,up_down_width,2025-12-02_12h57.48.407,exp1,2023.1.0,60.00214807928742,
,,,,,,,,,,,,,,,,3,8.6,10,11.4,0,0,1.4,0.85,0.55,3.35,10,match,36.05,310,361,411,0,0,9,9,9,0,0,,,,,,,2,0,2,0,0,5,5,41,,,,,,,,,,,,,,2,1.20391929987818,2,0.45,0.6000000000000001,21.62576,return,0.8826014997903258,,,,,,,,,,,,,,,,,p314,22,female,up_down_width,2025-12-02_12h57.48.407,exp1,2023.1.0,60.00214807928742,
,,,,,,,,,,,,,,,,3,9.1,10,10.9,0,0,0.9,0.65,0.25,2.05,10,initial,36.05,328,361,393,0,0,9,9,9,0,0,,,,,,,2,0,2,0,0,6,6,13,,,,,,,,,,,,,,2,0.6325186998583376,2,0.2,0.15000000000000002,5.40644,return,0.7992518998216838,,,,,,,,,,,,,,,,,p314,22,female,up_down_width,2025-12-02_12h57.48.407,exp1,2023.1.0,60.00214807928742,
,,,,,,,,,,,,,,,,5,8.65,9.325,10,10.675,11.35,0.675,0.42500000000000004,0.25,2.95,10,match,36.05,312,336,361,385,409,9,9,9,9,9,,,,,,,2,0,2,0,0,7,7,31,,,,,,,,,,,,,,3,0.549125999910757,3,0.25,0.39999999999999997,14.41717,return,2.671514199813828,,,,,,,,,,,,,,,,,p314,22,female,up_down_width,2025-12-02_12h57.48.407,exp1,2023.1.0,60.00214807928742,
,,,,,,,,,,,,,,,,3,8.2,10,11.8,0,0,1.8,1.25,0.55,4.15,10,match,36.05,296,361,425,0,0,9,9,9,0,0,,,,,,,2,0,2,0,0,8,8,47,,,,,,,,,,,,,,3,0.7209999000187963,3,0.55,0.7000000000000002,25.23005,return,0.8832137996796519,,,,,,,,,,,,,,,,,p314,22,female,up_down_width,2025-12-02_12h57.48.407,exp1,2023.1.0,60.00214807928742,
,,,,,,,,,,,,,,,,3,9.3,10,10.7,0,0,0.7,0.29999999999999993,0.4,1.8,10,initial,36.05,335,361,386,0,0,9,9,9,0,0,,,,,,,2,0,2,0,0,9,9,9,,,,,,,,,,,,,,3,1.2968726998660713,3,0.35,0.5499999999999999,19.82361,return,0.9078298998065293,,,,,,,,,,,,,,,,,p314,22,female,up_down_width,2025-12-02_12h57.48.407,exp1,2023.1.0,60.00214807928742,
,,,,,,,,,,,,,,,,3,8.2,10,11.8,0,0,1.7999999999999998,1.4,0.4,4,10,match,36.05,296,361,425,0,0,9,9,9,0,0,,,,,,,2,0,2,0,0,10,10,51,,,,,,,,,,,,,,3,0.8918113999534398,3,0.4,0.6000000000000001,21.62576,return,1.030757199972868,,,,,,,,,,,,,,,,,p314,22,female,up_down_width,2025-12-02_12h57.48.407,exp1,2023.1.0,60.00214807928742,
,,,,,,,,,,,,,,,,5,8.6,9.3,10,10.7,11.4,0.7,0.1499999999999999,0.55,3.3499999999999996,10,initial,36.05,310,335,361,386,411,9,9,9,9,9,,,,,,,2,0,2,0,0,11,11,40,,,,,,,,,,,,,,5,1.5746205998584628,5,0.5,0.6000000000000001,21.62576,return,0.6947788998950273,,,,,,,,,,,,,,,,,p314,22,female,up_down_width,2025-12-02_12h57.48.407,exp1,2023.1.0,60.00214807928742,
,,,,,,,,,,,,,,,,5,8.65,9.325,10,10.675,11.35,0.675,0.275,0.4,3.1,10,match,36.05,312,336,361,385,409,9,9,9,9,9,,,,,,,2,0,2,0,0,12,12,33,,,,,,,,,,,,,,4,0.871487399796024,4,0.3,0.44999999999999996,16.21932,return,0.7713222997263074,,,,,,,,,,,,,,,,,p314,22,female,up_down_width,2025-12-02_12h57.48.407,exp1,2023.1.0,60.00214807928742,
,,,,,,,,,,,,,,,,5,8.95,9.475,10,10.525,11.05,0.525,0.125,0.4,2.5,10,match,36.05,323,342,361,379,398,9,9,9,9,9,,,,,,,2,0,2,0,0,13,13,27,,,,,,,,,,,,,,5,0.9355795998126268,5,0.4,0.45,16.21932,return,0.7375146998092532,,,,,,,,,,,,,,,,,p314,22,female,up_down_width,2025-12-02_12h57.48.407,exp1,2023.1.0,60.00214807928742,
,,,,,,,,,,,,,,,,4,8.35,9.45,10.55,11.65,0,1.1,0.55,0.55,3.8500000000000005,10,initial,36.05,301,341,380,420,0,9,9,9,9,0,,,,,,,2,0,2,0,0,14,14,17,,,,,,,,,,,,,,5,1.388726499862969,5,0.2,0.44999999999999996,16.21932,return,1.2513102998491377,,,,,,,,,,,,,,,,,p314,22,female,up_down_width,2025-12-02_12h57.48.407,exp1,2023.1.0,60.00214807928742,
,,,,,,,,,,,,,,,,4,9.1,9.7,10.3,10.9,0,0.6000000000000001,0.20000000000000004,0.4,2.2,10,match,36.05,328,350,371,393,0,9,9,9,9,0,,,,,,,2,0,2,0,0,15,15,16,,,,,,,,,,,,,,4,1.192896799882874,4,0.35,0.44999999999999996,16.21932,return,0.8079106998629868,,,,,,,,,,,,,,,,,p314,22,female,up_down_width,2025-12-02_12h57.48.407,exp1,2023.1.0,60.00214807928742,
,,,,,,,,,,,,,,,,5,8.2,9.1,10,10.9,11.8,0.9,0.5,0.4,4,10,initial,36.05,296,328,361,393,425,9,9,9,9,9,,,,,,,2,0,2,0,0,16,16,50,,,,,,,,,,,,,,6,1.924838799983263,6,0.3,0.44999999999999996,16.21932,return,1.0949661997146904,,,,,,,,,,,,,,,,,p314,22,female,up_down_width,2025-12-02_12h57.48.407,exp1,2023.1.0,60.00214807928742,
,,,,,,,,,,,,,,,,4,9.1,9.7,10.3,10.9,0,0.6,0.04999999999999997,0.55,2.35,10,match,36.05,328,350,371,393,0,9,9,9,9,0,,,,,,,2,0,2,0,0,17,17,12,,,,,,,,,,,,,,4,1.5964743997901678,4,0.35,0.44999999999999996,16.21932,return,0.8119979999028146,,,,,,,,,,,,,,,,,p314,22,female,up_down_width,2025-12-02_12h57.48.407,exp1,2023.1.0,60.00214807928742,
,,,,,,,,,,,,,,,,5,8.2,9.1,10,10.9,11.8,0.9,0.35,0.55,4.15,10,initial,36.05,296,328,361,393,425,9,9,9,9,9,,,,,,,2,0,2,0,0,18,18,46,,,,,,,,,,,,,,6,1.3962018000893295,6,0.4,0.5,18.02146,return,0.8279767998028547,,,,,,,,,,,,,,,,,p314,22,female,up_down_width,2025-12-02_12h57.48.407,exp1,2023.1.0,60.00214807928742,
,,,,,,,,,,,,,,,,3,9.1,10,10.9,0,0,0.9,0.5,0.4,2.2,10,initial,36.05,328,361,393,0,0,9,9,9,0,0,,,,,,,2,0,2,0,0,19,19,15,,,,,,,,,,,,,,2,1.5220077000558376,2,0.5,0.6000000000000001,21.62576,return,2.052390099968761,,,,,,,,,,,,,,,,,p314,22,female,up_down_width,2025-12-02_12h57.48.407,exp1,2023.1.0,60.00214807928742,
,,,,,,,,,,,,,,,,4,9.3,9.766666666666667,10.233333333333333,10.7,0,0.4666666666666667,0.21666666666666665,0.25,1.65,10,match,36.05,335,352,369,386,0,9,9,9,9,0,,,,,,,2,0,2,0,0,20,20,8,,,,,,,,,,,,,,4,1.2590307998470962,4,0.5,0.30000000000000004,10.81288,return,2.2154478998854756,,,,,,,,,,,,,,,,,p314,22,female,up_down_width,2025-12-02_12h57.48.407,exp1,2023.1.0,60.00214807928742,
,,,,,,,,,,,,,,,,5,8.35,9.175,10,10.825,11.65,0.8250000000000001,0.275,0.55,3.85,10,match,36.05,301,331,361,390,420,9,9,9,9,9,,,,,,,2,0,2,0,0,21,21,18,,,,,,,,,,,,,,5,1.0557723997626454,5,0.5,0.45,16.21932,return,0.8678981000557542,,,,,,,,,,,,,,,,,p314,22,female,up_down_width,2025-12-02_12h57.48.407,exp1,2023.1.0,60.00214807928742,
,,,,,,,,,,,,,,,,5,8.95,9.475,10,10.525,11.05,0.525,0.275,0.25,2.35,10,match,36.05,323,342,361,379,398,9,9,9,9,9,,,,,,,2,0,2,0,0,22,22,25,,,,,,,,,,,,,,5,1.1869620999787003,5,0.35,0.2,7.20859,return,0.9950141997542232,,,,,,,,,,,,,,,,,p314,22,female,up_down_width,2025-12-02_12h57.48.407,exp1,2023.1.0,60.00214807928742,
,,,,,,,,,,,,,,,,3,8.9,10,11.1,0,0,1.1,0.8500000000000001,0.25,2.45,10,initial,36.05,321,361,400,0,0,9,9,9,0,0,,,,,,,2,0,2,0,0,23,23,2,,,,,,,,,,,,,,2,1.1070331998635083,2,0.35,0.2,7.20859,return,1.2845347998663783,,,,,,,,,,,,,,,,,p314,22,female,up_down_width,2025-12-02_12h57.48.407,exp1,2023.1.0,60.00214807928742,
,,,,,,,,,,,,,,,,5,8.6,9.3,10,10.7,11.4,0.7,0.29999999999999993,0.4,3.1999999999999997,10,initial,36.05,310,335,361,386,411,9,9,9,9,9,,,,,,,2,0,2,0,0,24,24,44,,,,,,,,,,,,,,5,1.0700332999695092,5,0.4,0.35000000000000003,12.61502,return,1.9851653997320682,,,,,,,,,,,,,,,,,p314,22,female,up_down_width,2025-12-02_12h57.48.407,exp1,2023.1.0,60.00214807928742,
,,,,,,,,,,,,,,,,4,8.9,9.633333333333333,10.366666666666667,11.1,0,0.7333333333333334,0.4833333333333334,0.25,2.45,10,match,36.05,321,347,374,400,0,9,9,9,9,0,,,,,,,2,0,2,0,0,25,25,3,,,,,,,,,,,,,,3,1.1188514998648316,3,0.35,0.2,7.20859,return,0.914224699838087,,,,,,,,,,,,,,,,,p314,22,female,up_down_width,2025-12-02_12h57.48.407,exp1,2023.1.0,60.00214807928742,
,,,,,,,,,,,,,,,,4,9.1,9.7,10.3,10.9,0,0.5999999999999999,0.3499999999999999,0.25,2.05,10,match,36.05,328,350,371,393,0,9,9,9,9,0,,,,,,,2,0,2,0,0,26,26,14,,,,,,,,,,,,,,4,0.6782612998504192,4,0.25,0.15000000000000002,5.40644,return,0.8744779999833554,,,,,,,,,,,,,,,,,p314,22,female,up_down_width,2025-12-02_12h57.48.407,exp1,2023.1.0,60.00214807928742,
,,,,,,,,,,,,,,,,3,8.2,10,11.8,0,0,1.8,1.55,0.25,3.85,10,match,36.05,296,361,425,0,0,9,9,9,0,0,,,,,,,2,0,2,0,0,27,27,49,,,,,,,,,,,,,,3,1.6580287998076528,3,0.55,0.15000000000000008,5.40644,return,3.68660519993864,,,,,,,,,,,,,,,,,p314,22,female,up_down_width,2025-12-02_12h57.48.407,exp1,2023.1.0,60.00214807928742,
,,,,,,,,,,,,,,,,3,9.3,10,10.7,0,0,0.7,0.44999999999999996,0.25,1.65,10,initial,36.05,335,361,386,0,0,9,9,9,0,0,,,,,,,2,0,2,0,0,28,28,7,,,,,,,,,,,,,,2,1.072434099856764,2,0.45,0.15000000000000008,5.40644,return,1.6031916998326778,,,,,,,,,,,,,,,,,p314,22,female,up_down_width,2025-12-02_12h57.48.407,exp1,2023.1.0,60.00214807928742,
,,,,,,,,,,,,,,,,3,8.9,10,11.1,0,0,1.1,0.7000000000000001,0.4,2.6000000000000005,10,initial,36.05,321,361,400,0,0,9,9,9,0,0,,,,,,,2,0,2,0,0,29,29,4,,,,,,,,,,,,,,2,0.8808279999066144,2,0.3,0.49999999999999994,18.02146,return,2.059834399726242,,,,,,,,,,,,,,,,,p314,22,female,up_down_width,2025-12-02_12h57.48.407,exp1,2023.1.0,60.00214807928742,
,,,,,,,,,,,,,,,,3,7.8,10,12.2,0,0,2.2,1.9500000000000002,0.25,4.65,10,match,36.05,281,361,440,0,0,9,9,9,0,0,,,,,,,2,0,2,0,0,30,30,37,,,,,,,,,,,,,,3,0.8397782000247389,3,0.4,0.25000000000000006,9.01073,return,2.4045559999067336,,,,,,,,,,,,,,,,,p314,22,female,up_down_width,2025-12-02_12h57.48.407,exp1,2023.1.0,60.00214807928742,
,,,,,,,,,,,,,,,,5,8.275,9.1375,10,10.8625,11.725,0.8625,0.6125,0.25,3.7,10,match,36.05,298,329,361,392,423,9,9,9,9,9,,,,,,,2,0,2,0,0,31,31,22,,,,,,,,,,,,,,5,1.147219399921596,5,0.2,0.15000000000000002,5.40644,return,0.9084488998632878,,,,,,,,,,,,,,,,,p314,22,female,up_down_width,2025-12-02_12h57.48.407,exp1,2023.1.0,60.00214807928742,
,,,,,,,,,,,,,,,,5,8.6,9.3,10,10.7,11.4,0.7,0.44999999999999996,0.25,3.05,10,initial,36.05,310,335,361,386,411,9,9,9,9,9,,,,,,,2,0,2,0,0,32,32,42,,,,,,,,,,,,,,5,1.1835301998071373,5,0.4,0.20000000000000007,7.20859,return,3.8072238999884576,,,,,,,,,,,,,,,,,p314,22,female,up_down_width,2025-12-02_12h57.48.407,exp1,2023.1.0,60.00214807928742,
,,,,,,,,,,,,,,,,4,9.3,9.766666666666667,10.233333333333333,10.7,0,0.4666666666666667,0.06666666666666665,0.4,1.8,10,match,36.05,335,352,369,386,0,9,9,9,9,0,,,,,,,2,0,2,0,0,33,33,10,,,,,,,,,,,,,,3,1.0875731999985874,3,0.45,0.35000000000000003,12.61502,return,1.9232008999679238,,,,,,,,,,,,,,,,,p314,22,female,up_down_width,2025-12-02_12h57.48.407,exp1,2023.1.0,60.00214807928742,
,,,,,,,,,,,,,,,,4,8.95,9.65,10.35,11.05,0,0.7,0.44999999999999996,0.25,2.3499999999999996,10,initial,36.05,323,348,373,398,0,9,9,9,9,0,,,,,,,2,0,2,0,0,34,34,24,,,,,,,,,,,,,,3,1.0916438999120146,3,0.35,0.10000000000000002,3.60429,return,1.0458935997448862,,,,,,,,,,,,,,,,,p314,22,female,up_down_width,2025-12-02_12h57.48.407,exp1,2023.1.0,60.00214807928742,
,,,,,,,,,,,,,,,,5,7.8,8.9,10,11.1,12.2,1.1,0.55,0.55,4.95,10,initial,36.05,281,321,361,400,440,9,9,9,9,9,,,,,,,2,0,2,0,0,35,35,34,,,,,,,,,,,,,,5,1.12014179979451,5,0.5,0.35000000000000003,12.61502,return,1.3619337999261916,,,,,,,,,,,,,,,,,p314,22,female,up_down_width,2025-12-02_12h57.48.407,exp1,2023.1.0,60.00214807928742,
,,,,,,,,,,,,,,,,3,7.800000000000001,10,12.2,0,0,2.1999999999999997,1.7999999999999998,0.4,4.8,10,match,36.05,281,361,440,0,0,9,9,9,0,0,,,,,,,2,0,2,0,0,36,36,39,,,,,,,,,,,,,,3,1.0271295998245478,3,0.45,0.30000000000000004,10.81288,return,0.9364693998359144,,,,,,,,,,,,,,,,,p314,22,female,up_down_width,2025-12-02_12h57.48.407,exp1,2023.1.0,60.00214807928742,
,,,,,,,,,,,,,,,,5,7.8,8.9,10,11.1,12.2,1.1,0.8500000000000001,0.25,4.65,10,initial,36.05,281,321,361,400,440,9,9,9,9,9,,,,,,,2,0,2,0,0,37,37,36,,,,,,,,,,,,,,4,0.7137248998042196,4,0.4,0.20000000000000007,7.20859,return,2.2685652999207377,,,,,,,,,,,,,,,,,p314,22,female,up_down_width,2025-12-02_12h57.48.407,exp1,2023.1.0,60.00214807928742,
,,,,,,,,,,,,,,,,4,8.95,9.65,10.35,11.05,0,0.7,0.1499999999999999,0.55,2.65,10,initial,36.05,323,348,373,398,0,9,9,9,9,0,,,,,,,2,0,2,0,0,38,38,23,,,,,,,,,,,,,,4,1.0643573999404907,4,0.3,0.49999999999999994,18.02146,return,0.9730728997383267,,,,,,,,,,,,,,,,,p314,22,female,up_down_width,2025-12-02_12h57.48.407,exp1,2023.1.0,60.00214807928742,
,,,,,,,,,,,,,,,,3,8.525,10,11.475,0,0,1.475,1.225,0.25,3.2,10,match,36.05,307,361,414,0,0,9,9,9,0,0,,,,,,,2,0,2,0,0,39,39,45,,,,,,,,,,,,,,3,0.9826851999387145,3,0.3,0.2,7.20859,return,0.8952771998010576,,,,,,,,,,,,,,,,,p314,22,female,up_down_width,2025-12-02_12h57.48.407,exp1,2023.1.0,60.00214807928742,
,,,,,,,,,,,,,,,,3,8.6,10,11.4,0,0,1.4,1.15,0.25,3.05,10,match,36.05,310,361,411,0,0,9,9,9,0,0,,,,,,,2,0,2,0,0,40,40,43,,,,,,,,,,,,,,3,0.8824030999094248,3,0.25,0.15000000000000002,5.40644,return,0.6703089999500662,,,,,,,,,,,,,,,,,p314,22,female,up_down_width,2025-12-02_12h57.48.407,exp1,2023.1.0,60.00214807928742,
,,,,,,,,,,,,,,,,5,8.2,9.1,10,10.9,11.8,0.9,0.65,0.25,3.85,10,initial,36.05,296,328,361,393,425,9,9,9,9,9,,,,,,,2,0,2,0,0,41,41,48,,,,,,,,,,,,,,5,1.07261659973301,5,0.45,0.15000000000000008,5.40644,return,1.6363427999895066,,,,,,,,,,,,,,,,,p314,22,female,up_down_width,2025-12-02_12h57.48.407,exp1,2023.1.0,60.00214807928742,
,,,,,,,,,,,,,,,,4,8.95,9.65,10.35,11.05,0,0.7,0.29999999999999993,0.4,2.5,10,initial,36.05,323,348,373,398,0,9,9,9,9,0,,,,,,,2,0,2,0,0,42,42,26,,,,,,,,,,,,,,3,1.023670099908486,3,0.2,0.44999999999999996,16.21932,return,1.1896973999682814,,,,,,,,,,,,,,,,,p314,22,female,up_down_width,2025-12-02_12h57.48.407,exp1,2023.1.0,60.00214807928742,
,,,,,,,,,,,,,,,,3,7.8,10,12.2,0,0,2.2,1.65,0.55,4.95,10,match,36.05,281,361,440,0,0,9,9,9,0,0,,,,,,,2,0,2,0,0,43,43,35,,,,,,,,,,,,,,3,0.9626895999535918,3,0.3,0.5499999999999999,19.82361,return,1.115660599898547,,,,,,,,,,,,,,,,,p314,22,female,up_down_width,2025-12-02_12h57.48.407,exp1,2023.1.0,60.00214807928742,
,,,,,,,,,,,,,,,,4,8.9,9.633333333333333,10.366666666666667,11.1,0,0.7333333333333333,0.18333333333333326,0.55,2.75,10,match,36.05,321,347,374,400,0,9,9,9,9,0,,,,,,,2,0,2,0,0,44,44,1,,,,,,,,,,,,,,3,0.8176563000306487,3,0.2,0.6,21.62576,return,1.8219198000151664,,,,,,,,,,,,,,,,,p314,22,female,up_down_width,2025-12-02_12h57.48.407,exp1,2023.1.0,60.00214807928742,
,,,,,,,,,,,,,,,,5,7.8,8.9,10,11.1,12.2,1.1,0.7000000000000001,0.4,4.800000000000001,10,initial,36.05,281,321,361,400,440,9,9,9,9,9,,,,,,,2,0,2,0,0,45,45,38,,,,,,,,,,,,,,5,1.0363776998128742,5,0.3,0.65,23.4279,return,1.4102805997245014,,,,,,,,,,,,,,,,,p314,22,female,up_down_width,2025-12-02_12h57.48.407,exp1,2023.1.0,60.00214807928742,
,,,,,,,,,,,,,,,,5,8.65,9.325,10,10.675,11.35,0.675,0.125,0.55,3.25,10,match,36.05,312,336,361,385,409,9,9,9,9,9,,,,,,,2,0,2,0,0,46,46,29,,,,,,,,,,,,,,4,0.8544534998945892,4,0.35,0.6,21.62576,return,1.1392681999132037,,,,,,,,,,,,,,,,,p314,22,female,up_down_width,2025-12-02_12h57.48.407,exp1,2023.1.0,60.00214807928742,
,,,,,,,,,,,,,,,,3,9.3,10,10.7,0,0,0.7,0.1499999999999999,0.55,1.95,10,initial,36.05,335,361,386,0,0,9,9,9,0,0,,,,,,,2,0,2,0,0,47,47,6,,,,,,,,,,,,,,2,0.9950455997604877,2,0.25,0.5499999999999999,19.82361,return,1.817623500013724,,,,,,,,,,,,,,,,,p314,22,female,up_down_width,2025-12-02_12h57.48.407,exp1,2023.1.0,60.00214807928742,
,,,,,,,,,,,,,,,,4,8.35,9.45,10.55,11.65,0,1.1,0.8500000000000001,0.25,3.5500000000000003,10,initial,36.05,301,341,380,420,0,9,9,9,9,0,,,,,,,2,0,2,0,0,48,48,19,,,,,,,,,,,,,,4,0.9543430998455733,4,0.4,0.05000000000000007,1.80215,return,2.866761599900201,,,,,,,,,,,,,,,,,p314,22,female,up_down_width,2025-12-02_12h57.48.407,exp1,2023.1.0,60.00214807928742,
,,,,,,,,,,,,,,,,4,8.65,9.55,10.45,11.35,0,0.9,0.5,0.4,3.1,10,initial,36.05,312,344,377,409,0,9,9,9,9,0,,,,,,,2,0,2,0,0,49,49,32,,,,,,,,,,,,,,4,1.1821398998145014,4,0.35,0.3,10.81288,return,1.18276649992913,,,,,,,,,,,,,,,,,p314,22,female,up_down_width,2025-12-02_12h57.48.407,exp1,2023.1.0,60.00214807928742,
,,,,,,,,,,,,,,,,4,8.35,9.45,10.55,11.65,0,1.1,0.7000000000000001,0.4,3.7,10,initial,36.05,301,341,380,420,0,9,9,9,9,0,,,,,,,2,0,2,0,0,50,50,21,,,,,,,,,,,,,,5,1.2155833998695016,5,0.3,0.49999999999999994,18.02146,return,0.9905933998525143,,,,,,,,,,,,,,,,,p314,22,female,up_down_width,2025-12-02_12h57.48.407,exp1,2023.1.0,60.00214807928742,
,,,,,,,,,,,,,,,,4,8.65,9.55,10.45,11.35,0,0.9,0.35,0.55,3.25,10,initial,36.05,312,344,377,409,0,9,9,9,9,0,,,,,,,2,0,2,0,0,51,51,28,,,,,,,,,,,,,,5,1.6964457998983562,5,0.55,0.45,16.21932,return,1.7385641997680068,,,,,,,,,,,,,,,,,p314,22,female,up_down_width,2025-12-02_12h57.48.407,exp1,2023.1.0,60.00214807928742,
,,,,,,,,,,,,,,,,,,,,,,,,,,,,,,,,,,,,,,,,,,,,,2,0,2,0,,,,,,,,,,,,,,,,,,,,,,,,,,,,1104.9945398001,1104.9945398001,1104.9945398001,,,,,,,,,,,,p314,22,female,up_down_width,2025-12-02_12h57.48.407,exp1,2023.1.0,60.00214807928742,
,,,,,,,,,,,,,,,,3,9.3,10,10.7,0,0,0.7,0.44999999999999996,0.25,1.65,10,initial,36.05,335,361,386,0,0,9,9,9,0,0,,,,,,,3,0,3,0,0,0,0,7,,,,,,,,,,,,,,2,0.8717517999466509,2,0.5,0.15000000000000008,5.40644,return,3.411375500028953,,,,,,,,,,,,,,,,,p314,22,female,up_down_width,2025-12-02_12h57.48.407,exp1,2023.1.0,60.00214807928742,
,,,,,,,,,,,,,,,,5,8.95,9.475,10,10.525,11.05,0.525,0.125,0.4,2.5,10,match,36.05,323,342,361,379,398,9,9,9,9,9,,,,,,,3,0,3,0,0,1,1,27,,,,,,,,,,,,,,4,0.9564690000843257,4,0.35,0.35,12.61502,return,1.285002299817279,,,,,,,,,,,,,,,,,p314,22,female,up_down_width,2025-12-02_12h57.48.407,exp1,2023.1.0,60.00214807928742,
,,,,,,,,,,,,,,,,3,9.1,10,10.9,0,0,0.9,0.5,0.4,2.2,10,initial,36.05,328,361,393,0,0,9,9,9,0,0,,,,,,,3,0,3,0,0,2,2,15,,,,,,,,,,,,,,2,0.9381284997798502,2,0.25,0.44999999999999996,16.21932,return,0.994916999945417,,,,,,,,,,,,,,,,,p314,22,female,up_down_width,2025-12-02_12h57.48.407,exp1,2023.1.0,60.00214807928742,
,,,,,,,,,,,,,,,,3,8.2,10,11.8,0,0,1.7999999999999998,1.4,0.4,4,10,match,36.05,296,361,425,0,0,9,9,9,0,0,,,,,,,3,0,3,0,0,3,3,51,,,,,,,,,,,,,,3,0.9014602997340262,3,0.25,0.39999999999999997,14.41717,return,0.8630945000331849,,,,,,,,,,,,,,,,,p314,22,female,up_down_width,2025-12-02_12h57.48.407,exp1,2023.1.0,60.00214807928742,
,,,,,,,,,,,,,,,,4,8.35,9.45,10.55,11.65,0,1.1,0.55,0.55,3.8500000000000005,10,initial,36.05,301,341,380,420,0,9,9,9,9,0,,,,,,,3,0,3,0,0,4,4,17,,,,,,,,,,,,,,3,0.9920321998652071,3,0.5,0.45,16.21932,return,1.7673848997801542,,,,,,,,,,,,,,,,,p314,22,female,up_down_width,2025-12-02_12h57.48.407,exp1,2023.1.0,60.00214807928742,
,,,,,,,,,,,,,,,,5,8.6,9.3,10,10.7,11.4,0.7,0.1499999999999999,0.55,3.3499999999999996,10,initial,36.05,310,335,361,386,411,9,9,9,9,9,,,,,,,3,0,3,0,0,5,5,40,,,,,,,,,,,,,,4,1.1173656997270882,4,0.3,0.49999999999999994,18.02146,return,1.0721234998200089,,,,,,,,,,,,,,,,,p314,22,female,up_down_width,2025-12-02_12h57.48.407,exp1,2023.1.0,60.00214807928742,
,,,,,,,,,,,,,,,,5,7.8,8.9,10,11.1,12.2,1.1,0.55,0.55,4.95,10,initial,36.05,281,321,361,400,440,9,9,9,9,9,,,,,,,3,0,3,0,0,6,6,34,,,,,,,,,,,,,,5,1.0037959998007864,5,0.2,0.44999999999999996,16.21932,return,1.2344756999518722,,,,,,,,,,,,,,,,,p314,22,female,up_down_width,2025-12-02_12h57.48.407,exp1,2023.1.0,60.00214807928742,
,,,,,,,,,,,,,,,,5,8.95,9.475,10,10.525,11.05,0.525,0.275,0.25,2.35,10,match,36.05,323,342,361,379,398,9,9,9,9,9,,,,,,,3,0,3,0,0,7,7,25,,,,,,,,,,,,,,5,1.3058891999535263,5,0.4,0.25000000000000006,9.01073,return,1.5245422997977585,,,,,,,,,,,,,,,,,p314,22,female,up_down_width,2025-12-02_12h57.48.407,exp1,2023.1.0,60.00214807928742,
,,,,,,,,,,,,,,,,3,8.6,10,11.4,0,0,1.4,0.85,0.55,3.35,10,match,36.05,310,361,411,0,0,9,9,9,0,0,,,,,,,3,0,3,0,0,8,8,41,,,,,,,,,,,,,,4,0.9174098998773843,4,0.45,0.45,16.21932,return,1.5184601000510156,,,,,,,,,,,,,,,,,p314,22,female,up_down_width,2025-12-02_12h57.48.407,exp1,2023.1.0,60.00214807928742,
,,,,,,,,,,,,,,,,4,8.825,9.608333333333333,10.391666666666667,11.175,0,0.7833333333333333,0.5333333333333333,0.25,2.6,10,match,36.05,318,346,375,403,0,9,9,9,9,0,,,,,,,3,0,3,0,0,9,9,5,,,,,,,,,,,,,,3,0.8669524998404086,3,0.45,0.15000000000000008,5.40644,return,1.647856299765408,,,,,,,,,,,,,,,,,p314,22,female,up_down_width,2025-12-02_12h57.48.407,exp1,2023.1.0,60.00214807928742,
,,,,,,,,,,,,,,,,5,8.65,9.325,10,10.675,11.35,0.675,0.275,0.4,3.1,10,match,36.05,312,336,361,385,409,9,9,9,9,9,,,,,,,3,0,3,0,0,10,10,33,,,,,,,,,,,,,,4,1.0823503998108208,4,0.35,0.39999999999999997,14.41717,return,1.165987899992615,,,,,,,,,,,,,,,,,p314,22,female,up_down_width,2025-12-02_12h57.48.407,exp1,2023.1.0,60.00214807928742,
,,,,,,,,,,,,,,,,3,8.9,10,11.1,0,0,1.1,0.7000000000000001,0.4,2.6000000000000005,10,initial,36.05,321,361,400,0,0,9,9,9,0,0,,,,,,,3,0,3,0,0,11,11,4,,,,,,,,,,,,,,2,1.095441699726507,2,0.4,0.5,18.02146,return,1.0515473999548703,,,,,,,,,,,,,,,,,p314,22,female,up_down_width,2025-12-02_12h57.48.407,exp1,2023.1.0,60.00214807928742,
,,,,,,,,,,,,,,,,3,7.8,10,12.2,0,0,2.2,1.65,0.55,4.95,10,match,36.05,281,361,440,0,0,9,9,9,0,0,,,,,,,3,0,3,0,0,12,12,35,,,,,,,,,,,,,,3,1.0113068998325616,3,0.25,0.44999999999999996,16.21932,return,1.38554980000481,,,,,,,,,,,,,,,,,p314,22,female,up_down_width,2025-12-02_12h57.48.407,exp1,2023.1.0,60.00214807928742,
,,,,,,,,,,,,,,,,4,8.95,9.65,10.35,11.05,0,0.7,0.1499999999999999,0.55,2.65,10,initial,36.05,323,348,373,398,0,9,9,9,9,0,,,,,,,3,0,3,0,0,13,13,23,,,,,,,,,,,,,,3,0.7516248999163508,3,0.35,0.44999999999999996,16.21932,return,0.6240695000160486,,,,,,,,,,,,,,,,,p314,22,female,up_down_width,2025-12-02_12h57.48.407,exp1,2023.1.0,60.00214807928742,
,,,,,,,,,,,,,,,,4,9.3,9.766666666666667,10.233333333333333,10.7,0,0.4666666666666667,0.06666666666666665,0.4,1.8,10,match,36.05,335,352,369,386,0,9,9,9,9,0,,,,,,,3,0,3,0,0,14,14,10,,,,,,,,,,,,,,4,1.159724999917671,4,0.55,0.6500000000000001,23.4279,return,0.7124456998426467,,,,,,,,,,,,,,,,,p314,22,female,up_down_width,2025-12-02_12h57.48.407,exp1,2023.1.0,60.00214807928742,
,,,,,,,,,,,,,,,,5,7.8,8.9,10,11.1,12.2,1.1,0.8500000000000001,0.25,4.65,10,initial,36.05,281,321,361,400,440,9,9,9,9,9,,,,,,,3,0,3,0,0,15,15,36,,,,,,,,,,,,,,5,1.221178999869153,5,0.2,0.10000000000000002,3.60429,return,1.0592069998383522,,,,,,,,,,,,,,,,,p314,22,female,up_down_width,2025-12-02_12h57.48.407,exp1,2023.1.0,60.00214807928742,
,,,,,,,,,,,,,,,,4,8.35,9.45,10.55,11.65,0,1.1,0.8500000000000001,0.25,3.5500000000000003,10,initial,36.05,301,341,380,420,0,9,9,9,9,0,,,,,,,3,0,3,0,0,16,16,19,,,,,,,,,,,,,,4,0.9722811998799443,4,0.3,0.15000000000000002,5.40644,return,1.731951099820435,,,,,,,,,,,,,,,,,p314,22,female,up_down_width,2025-12-02_12h57.48.407,exp1,2023.1.0,60.00214807928742,
,,,,,,,,,,,,,,,,4,8.95,9.65,10.35,11.05,0,0.7,0.29999999999999993,0.4,2.5,10,initial,36.05,323,348,373,398,0,9,9,9,9,0,,,,,,,3,0,3,0,0,17,17,26,,,,,,,,,,,,,,4,1.1484226000029594,4,0.25,0.44999999999999996,16.21932,return,1.1496709997300059,,,,,,,,,,,,,,,,,p314,22,female,up_down_width,2025-12-02_12h57.48.407,exp1,2023.1.0,60.00214807928742,
,,,,,,,,,,,,,,,,3,8.525,10,11.475,0,0,1.475,1.225,0.25,3.2,10,match,36.05,307,361,414,0,0,9,9,9,0,0,,,,,,,3,0,3,0,0,18,18,45,,,,,,,,,,,,,,2,1.0722787999548018,2,0.2,0.2,7.20859,return,1.1577017998788506,,,,,,,,,,,,,,,,,p314,22,female,up_down_width,2025-12-02_12h57.48.407,exp1,2023.1.0,60.00214807928742,
,,,,,,,,,,,,,,,,3,8.6,10,11.4,0,0,1.4,1.15,0.25,3.05,10,match,36.05,310,361,411,0,0,9,9,9,0,0,,,,,,,3,0,3,0,0,19,19,43,,,,,,,,,,,,,,2,1.0435022998135537,2,0.4,0.15000000000000008,5.40644,return,1.3844290999695659,,,,,,,,,,,,,,,,,p314,22,female,up_down_width,2025-12-02_12h57.48.407,exp1,2023.1.0,60.00214807928742,
,,,,,,,,,,,,,,,,5,8.35,9.175,10,10.825,11.65,0.825,0.575,0.25,3.55,10,match,36.05,301,331,361,390,420,9,9,9,9,9,,,,,,,3,0,3,0,0,20,20,20,,,,,,,,,,,,,,4,0.9791843998245895,4,0.25,0.10000000000000002,3.60429,return,1.082822399912402,,,,,,,,,,,,,,,,,p314,22,female,up_down_width,2025-12-02_12h57.48.407,exp1,2023.1.0,60.00214807928742,
,,,,,,,,,,,,,,,,4,8.65,9.55,10.45,11.35,0,0.9,0.65,0.25,2.95,10,initial,36.05,312,344,377,409,0,9,9,9,9,0,,,,,,,3,0,3,0,0,21,21,30,,,,,,,,,,,,,,3,1.3309645999688655,3,0.5,0.15000000000000008,5.40644,return,3.516429399838671,,,,,,,,,,,,,,,,,p314,22,female,up_down_width,2025-12-02_12h57.48.407,exp1,2023.1.0,60.00214807928742,
,,,,,,,,,,,,,,,,3,9.1,10,10.9,0,0,0.9,0.35,0.55,2.35,10,initial,36.05,328,361,393,0,0,9,9,9,0,0,,,,,,,3,0,3,0,0,22,22,11,,,,,,,,,,,,,,2,0.9954300997778773,2,0.25,0.6,21.62576,return,1.530684500001371,,,,,,,,,,,,,,,,,p314,22,female,up_down_width,2025-12-02_12h57.48.407,exp1,2023.1.0,60.00214807928742,
,,,,,,,,,,,,,,,,5,8.65,9.325,10,10.675,11.35,0.675,0.125,0.55,3.25,10,match,36.05,312,336,361,385,409,9,9,9,9,9,,,,,,,3,0,3,0,0,23,23,29,,,,,,,,,,,,,,4,0.9980450000148267,4,0.5,0.45,16.21932,return,1.1660177998710424,,,,,,,,,,,,,,,,,p314,22,female,up_down_width,2025-12-02_12h57.48.407,exp1,2023.1.0,60.00214807928742,
,,,,,,,,,,,,,,,,5,8.275,9.1375,10,10.8625,11.725,0.8625,0.6125,0.25,3.7,10,match,36.05,298,329,361,392,423,9,9,9,9,9,,,,,,,3,0,3,0,0,24,24,22,,,,,,,,,,,,,,5,1.167911799857393,5,0.2,0.2,7.20859,return,0.7521604998037219,,,,,,,,,,,,,,,,,p314,22,female,up_down_width,2025-12-02_12h57.48.407,exp1,2023.1.0,60.00214807928742,
,,,,,,,,,,,,,,,,3,9.3,10,10.7,0,0,0.7,0.29999999999999993,0.4,1.8,10,initial,36.05,335,361,386,0,0,9,9,9,0,0,,,,,,,3,0,3,0,0,25,25,9,,,,,,,,,,,,,,2,0.9874847999308258,2,0.5,0.35000000000000003,12.61502,return,1.4423942998982966,,,,,,,,,,,,,,,,,p314,22,female,up_down_width,2025-12-02_12h57.48.407,exp1,2023.1.0,60.00214807928742,
,,,,,,,,,,,,,,,,4,9.3,9.766666666666667,10.233333333333333,10.7,0,0.4666666666666667,0.21666666666666665,0.25,1.65,10,match,36.05,335,352,369,386,0,9,9,9,9,0,,,,,,,3,0,3,0,0,26,26,8,,,,,,,,,,,,,,3,0.8892402998171747,3,0.4,0.25000000000000006,9.01073,return,0.8374170998577029,,,,,,,,,,,,,,,,,p314,22,female,up_down_width,2025-12-02_12h57.48.407,exp1,2023.1.0,60.00214807928742,
,,,,,,,,,,,,,,,,4,9.1,9.7,10.3,10.9,0,0.6000000000000001,0.20000000000000004,0.4,2.2,10,match,36.05,328,350,371,393,0,9,9,9,9,0,,,,,,,3,0,3,0,0,27,27,16,,,,,,,,,,,,,,3,0.7463546998333186,3,0.2,0.39999999999999997,14.41717,return,1.5962710997555405,,,,,,,,,,,,,,,,,p314,22,female,up_down_width,2025-12-02_12h57.48.407,exp1,2023.1.0,60.00214807928742,
,,,,,,,,,,,,,,,,3,9.3,10,10.7,0,0,0.7,0.1499999999999999,0.55,1.95,10,initial,36.05,335,361,386,0,0,9,9,9,0,0,,,,,,,3,0,3,0,0,28,28,6,,,,,,,,,,,,,,2,0.6591777999419719,2,0.45,0.45,16.21932,return,1.0803025998175144,,,,,,,,,,,,,,,,,p314,22,female,up_down_width,2025-12-02_12h57.48.407,exp1,2023.1.0,60.00214807928742,
,,,,,,,,,,,,,,,,4,9.1,9.7,10.3,10.9,0,0.6,0.04999999999999997,0.55,2.35,10,match,36.05,328,350,371,393,0,9,9,9,9,0,,,,,,,3,0,3,0,0,29,29,12,,,,,,,,,,,,,,3,0.9637182999867946,3,0.25,0.6,21.62576,return,1.4682300998829305,,,,,,,,,,,,,,,,,p314,22,female,up_down_width,2025-12-02_12h57.48.407,exp1,2023.1.0,60.00214807928742,
,,,,,,,,,,,,,,,,4,8.65,9.55,10.45,11.35,0,0.9,0.35,0.55,3.25,10,initial,36.05,312,344,377,409,0,9,9,9,9,0,,,,,,,3,0,3,0,0,30,30,28,,,,,,,,,,,,,,4,0.9546056999824941,4,0.2,0.5499999999999999,19.82361,return,1.5879818999674171,,,,,,,,,,,,,,,,,p314,22,female,up_down_width,2025-12-02_12h57.48.407,exp1,2023.1.0,60.00214807928742,
,,,,,,,,,,,,,,,,3,8.9,10,11.1,0,0,1.1,0.55,0.55,2.75,10,initial,36.05,321,361,400,0,0,9,9,9,0,0,,,,,,,3,0,3,0,0,31,31,0,,,,,,,,,,,,,,3,1.4195818998850882,3,0.35,0.49999999999999994,18.02146,return,1.137293899897486,,,,,,,,,,,,,,,,,p314,22,female,up_down_width,2025-12-02_12h57.48.407,exp1,2023.1.0,60.00214807928742,
,,,,,,,,,,,,,,,,5,8.6,9.3,10,10.7,11.4,0.7,0.29999999999999993,0.4,3.1999999999999997,10,initial,36.05,310,335,361,386,411,9,9,9,9,9,,,,,,,3,0,3,0,0,32,32,44,,,,,,,,,,,,,,5,1.1623132997192442,5,0.35,0.49999999999999994,18.02146,return,1.03590719983913,,,,,,,,,,,,,,,,,p314,22,female,up_down_width,2025-12-02_12h57.48.407,exp1,2023.1.0,60.00214807928742,
,,,,,,,,,,,,,,,,5,8.35,9.175,10,10.825,11.65,0.8250000000000001,0.275,0.55,3.85,10,match,36.05,301,331,361,390,420,9,9,9,9,9,,,,,,,3,0,3,0,0,33,33,18,,,,,,,,,,,,,,5,0.8404967000242323,5,0.45,0.45,16.21932,return,1.0623384998179972,,,,,,,,,,,,,,,,,p314,22,female,up_down_width,2025-12-02_12h57.48.407,exp1,2023.1.0,60.00214807928742,
,,,,,,,,,,,,,,,,5,8.6,9.3,10,10.7,11.4,0.7,0.44999999999999996,0.25,3.05,10,initial,36.05,310,335,361,386,411,9,9,9,9,9,,,,,,,3,0,3,0,0,34,34,42,,,,,,,,,,,,,,6,1.7521789998281747,6,0.55,0.10000000000000007,3.60429,return,3.409194699721411,,,,,,,,,,,,,,,,,p314,22,female,up_down_width,2025-12-02_12h57.48.407,exp1,2023.1.0,60.00214807928742,
,,,,,,,,,,,,,,,,5,8.2,9.1,10,10.9,11.8,0.9,0.65,0.25,3.85,10,initial,36.05,296,328,361,393,425,9,9,9,9,9,,,,,,,3,0,3,0,0,35,35,48,,,,,,,,,,,,,,5,1.0497852999251336,5,0.25,0.10000000000000002,3.60429,return,1.2161234999075532,,,,,,,,,,,,,,,,,p314,22,female,up_down_width,2025-12-02_12h57.48.407,exp1,2023.1.0,60.00214807928742,
,,,,,,,,,,,,,,,,4,8.95,9.65,10.35,11.05,0,0.7,0.44999999999999996,0.25,2.3499999999999996,10,initial,36.05,323,348,373,398,0,9,9,9,9,0,,,,,,,3,0,3,0,0,36,36,24,,,,,,,,,,,,,,4,1.023845599964261,4,0.2,0.10000000000000002,3.60429,return,0.9176822998560965,,,,,,,,,,,,,,,,,p314,22,female,up_down_width,2025-12-02_12h57.48.407,exp1,2023.1.0,60.00214807928742,
,,,,,,,,,,,,,,,,4,8.35,9.45,10.55,11.65,0,1.1,0.7000000000000001,0.4,3.7,10,initial,36.05,301,341,380,420,0,9,9,9,9,0,,,,,,,3,0,3,0,0,37,37,21,,,,,,,,,,,,,,5,1.0325183998793364,5,0.35,0.25,9.01073,return,1.2628381999675184,,,,,,,,,,,,,,,,,p314,22,female,up_down_width,2025-12-02_12h57.48.407,exp1,2023.1.0,60.00214807928742,
,,,,,,,,,,,,,,,,3,8.2,10,11.8,0,0,1.8,1.25,0.55,4.15,10,match,36.05,296,361,425,0,0,9,9,9,0,0,,,,,,,3,0,3,0,0,38,38,47,,,,,,,,,,,,,,3,1.2306061000563204,3,0.4,0.25000000000000006,9.01073,return,0.8130788998678327,,,,,,,,,,,,,,,,,p314,22,female,up_down_width,2025-12-02_12h57.48.407,exp1,2023.1.0,60.00214807928742,
,,,,,,,,,,,,,,,,4,8.9,9.633333333333333,10.366666666666667,11.1,0,0.7333333333333333,0.18333333333333326,0.55,2.75,10,match,36.05,321,347,374,400,0,9,9,9,9,0,,,,,,,3,0,3,0,0,39,39,1,,,,,,,,,,,,,,3,0.9155998998321593,3,0.5,0.45,16.21932,return,1.2628033999353647,,,,,,,,,,,,,,,,,p314,22,female,up_down_width,2025-12-02_12h57.48.407,exp1,2023.1.0,60.00214807928742,
,,,,,,,,,,,,,,,,5,7.8,8.9,10,11.1,12.2,1.1,0.7000000000000001,0.4,4.800000000000001,10,initial,36.05,281,321,361,400,440,9,9,9,9,9,,,,,,,3,0,3,0,0,40,40,38,,,,,,,,,,,,,,6,1.1226334997918457,6,0.4,0.35000000000000003,12.61502,return,1.4286782997660339,,,,,,,,,,,,,,,,,p314,22,female,up_down_width,2025-12-02_12h57.48.407,exp1,2023.1.0,60.00214807928742,
,,,,,,,,,,,,,,,,5,8.2,9.1,10,10.9,11.8,0.9,0.5,0.4,4,10,initial,36.05,296,328,361,393,425,9,9,9,9,9,,,,,,,3,0,3,0,0,41,41,50,,,,,,,,,,,,,,6,1.747747799847275,6,0.4,0.4,14.41717,return,1.5805274997837842,,,,,,,,,,,,,,,,,p314,22,female,up_down_width,2025-12-02_12h57.48.407,exp1,2023.1.0,60.00214807928742,
,,,,,,,,,,,,,,,,5,8.2,9.1,10,10.9,11.8,0.9,0.35,0.55,4.15,10,initial,36.05,296,328,361,393,425,9,9,9,9,9,,,,,,,3,0,3,0,0,42,42,46,,,,,,,,,,,,,,5,1.0350740000139922,5,0.4,0.45,16.21932,return,0.879235299769789,,,,,,,,,,,,,,,,,p314,22,female,up_down_width,2025-12-02_12h57.48.407,exp1,2023.1.0,60.00214807928742,
,,,,,,,,,,,,,,,,3,9.1,10,10.9,0,0,0.9,0.65,0.25,2.05,10,initial,36.05,328,361,393,0,0,9,9,9,0,0,,,,,,,3,0,3,0,0,43,43,13,,,,,,,,,,,,,,2,1.013876099837944,2,0.4,0.30000000000000004,10.81288,return,0.9729411997832358,,,,,,,,,,,,,,,,,p314,22,female,up_down_width,2025-12-02_12h57.48.407,exp1,2023.1.0,60.00214807928742,
,,,,,,,,,,,,,,,,4,9.1,9.7,10.3,10.9,0,0.5999999999999999,0.3499999999999999,0.25,2.05,10,match,36.05,328,350,371,393,0,9,9,9,9,0,,,,,,,3,0,3,0,0,44,44,14,,,,,,,,,,,,,,3,0.8923196997493505,3,0.2,0.3,10.81288,return,1.2715753999073058,,,,,,,,,,,,,,,,,p314,22,female,up_down_width,2025-12-02_12h57.48.407,exp1,2023.1.0,60.00214807928742,
,,,,,,,,,,,,,,,,5,8.65,9.325,10,10.675,11.35,0.675,0.42500000000000004,0.25,2.95,10,match,36.05,312,336,361,385,409,9,9,9,9,9,,,,,,,3,0,3,0,0,45,45,31,,,,,,,,,,,,,,4,1.0362005000934005,4,0.3,0.2,7.20859,return,0.9765712998341769,,,,,,,,,,,,,,,,,p314,22,female,up_down_width,2025-12-02_12h57.48.407,exp1,2023.1.0,60.00214807928742,
,,,,,,,,,,,,,,,,3,7.800000000000001,10,12.2,0,0,2.1999999999999997,1.7999999999999998,0.4,4.8,10,match,36.05,281,361,440,0,0,9,9,9,0,0,,,,,,,3,0,3,0,0,46,46,39,,,,,,,,,,,,,,3,1.6293694998603314,3,0.35,0.39999999999999997,14.41717,return,1.115361999720335,,,,,,,,,,,,,,,,,p314,22,female,up_down_width,2025-12-02_12h57.48.407,exp1,2023.1.0,60.00214807928742,
,,,,,,,,,,,,,,,,4,8.65,9.55,10.45,11.35,0,0.9,0.5,0.4,3.1,10,initial,36.05,312,344,377,409,0,9,9,9,9,0,,,,,,,3,0,3,0,0,47,47,32,,,,,,,,,,,,,,4,0.9400882998015732,4,0.2,0.35,12.61502,return,1.3972311997786164,,,,,,,,,,,,,,,,,p314,22,female,up_down_width,2025-12-02_12h57.48.407,exp1,2023.1.0,60.00214807928742,
,,,,,,,,,,,,,,,,4,8.9,9.633333333333333,10.366666666666667,11.1,0,0.7333333333333334,0.4833333333333334,0.25,2.45,10,match,36.05,321,347,374,400,0,9,9,9,9,0,,,,,,,3,0,3,0,0,48,48,3,,,,,,,,,,,,,,4,1.0027667998801917,4,0.25,0.25,9.01073,return,1.1053674998693168,,,,,,,,,,,,,,,,,p314,22,female,up_down_width,2025-12-02_12h57.48.407,exp1,2023.1.0,60.00214807928742,
,,,,,,,,,,,,,,,,3,8.2,10,11.8,0,0,1.8,1.55,0.25,3.85,10,match,36.05,296,361,425,0,0,9,9,9,0,0,,,,,,,3,0,3,0,0,49,49,49,,,,,,,,,,,,,,3,1.3242798997089267,3,0.5,0.35000000000000003,12.61502,return,5.317624199902639,,,,,,,,,,,,,,,,,p314,22,female,up_down_width,2025-12-02_12h57.48.407,exp1,2023.1.0,60.00214807928742,
,,,,,,,,,,,,,,,,3,7.8,10,12.2,0,0,2.2,1.9500000000000002,0.25,4.65,10,match,36.05,281,361,440,0,0,9,9,9,0,0,,,,,,,3,0,3,0,0,50,50,37,,,,,,,,,,,,,,3,1.049050600035116,3,0.45,0.20000000000000007,7.20859,return,1.4695640997961164,,,,,,,,,,,,,,,,,p314,22,female,up_down_width,2025-12-02_12h57.48.407,exp1,2023.1.0,60.00214807928742,
,,,,,,,,,,,,,,,,3,8.9,10,11.1,0,0,1.1,0.8500000000000001,0.25,2.45,10,initial,36.05,321,361,400,0,0,9,9,9,0,0,,,,,,,3,0,3,0,0,51,51,2,,,,,,,,,,,,,,2,0.9853740998078138,2,0.3,0.2,7.20859,return,0.7206691999454051,,,,,,,,,,,,,,,,,p314,22,female,up_down_width,2025-12-02_12h57.48.407,exp1,2023.1.0,60.00214807928742,
,,,,,,,,,,,,,,,,,,,,,,,,,,,,,,,,,,,,,,,,,,,,,3,0,3,0,,,,,,,,,,,,,,,,,,,,,,,,,,,,1421.8278614999726,1421.8278614999726,1421.8278614999726,,,,,,,,,,,,p314,22,female,up_down_width,2025-12-02_12h57.48.407,exp1,2023.1.0,60.00214807928742,
,,,,,,,,,,,,,,,,3,8.2,10,11.8,0,0,1.8,1.55,0.25,3.85,10,match,36.05,296,361,425,0,0,9,9,9,0,0,,,,,,,4,0,4,0,0,0,0,49,,,,,,,,,,,,,,2,0.9126074998639524,2,0.2,0.15000000000000002,5.40644,return,1.7386312999296933,,,,,,,,,,,,,,,,,p314,22,female,up_down_width,2025-12-02_12h57.48.407,exp1,2023.1.0,60.00214807928742,
,,,,,,,,,,,,,,,,5,8.35,9.175,10,10.825,11.65,0.8250000000000001,0.275,0.55,3.85,10,match,36.05,301,331,361,390,420,9,9,9,9,9,,,,,,,4,0,4,0,0,1,1,18,,,,,,,,,,,,,,4,1.4303779997862875,4,0.45,0.5,18.02146,return,1.8359613998327404,,,,,,,,,,,,,,,,,p314,22,female,up_down_width,2025-12-02_12h57.48.407,exp1,2023.1.0,60.00214807928742,
,,,,,,,,,,,,,,,,3,8.9,10,11.1,0,0,1.1,0.7000000000000001,0.4,2.6000000000000005,10,initial,36.05,321,361,400,0,0,9,9,9,0,0,,,,,,,4,0,4,0,0,2,2,4,,,,,,,,,,,,,,2,0.9114619998726994,2,0.5,0.5,18.02146,return,1.161458499962464,,,,,,,,,,,,,,,,,p314,22,female,up_down_width,2025-12-02_12h57.48.407,exp1,2023.1.0,60.00214807928742,
,,,,,,,,,,,,,,,,3,7.800000000000001,10,12.2,0,0,2.1999999999999997,1.7999999999999998,0.4,4.8,10,match,36.05,281,361,440,0,0,9,9,9,0,0,,,,,,,4,0,4,0,0,3,3,39,,,,,,,,,,,,,,3,1.0076127997599542,3,0.4,0.5,18.02146,return,1.0129428000655025,,,,,,,,,,,,,,,,,p314,22,female,up_down_width,2025-12-02_12h57.48.407,exp1,2023.1.0,60.00214807928742,
,,,,,,,,,,,,,,,,3,7.8,10,12.2,0,0,2.2,1.65,0.55,4.95,10,match,36.05,281,361,440,0,0,9,9,9,0,0,,,,,,,4,0,4,0,0,4,4,35,,,,,,,,,,,,,,3,0.8490031000692397,3,0.45,0.6000000000000001,21.62576,return,1.1327162000816315,,,,,,,,,,,,,,,,,p314,22,female,up_down_width,2025-12-02_12h57.48.407,exp1,2023.1.0,60.00214807928742,
,,,,,,,,,,,,,,,,4,8.65,9.55,10.45,11.35,0,0.9,0.65,0.25,2.95,10,initial,36.05,312,344,377,409,0,9,9,9,9,0,,,,,,,4,0,4,0,0,5,5,30,,,,,,,,,,,,,,4,1.1912467000074685,4,0.5,0.30000000000000004,10.81288,return,1.2379631998483092,,,,,,,,,,,,,,,,,p314,22,female,up_down_width,2025-12-02_12h57.48.407,exp1,2023.1.0,60.00214807928742,
,,,,,,,,,,,,,,,,5,8.35,9.175,10,10.825,11.65,0.825,0.575,0.25,3.55,10,match,36.05,301,331,361,390,420,9,9,9,9,9,,,,,,,4,0,4,0,0,6,6,20,,,,,,,,,,,,,,5,1.1535707998555154,5,0.3,0.2,7.20859,return,0.8980346997268498,,,,,,,,,,,,,,,,,p314,22,female,up_down_width,2025-12-02_12h57.48.407,exp1,2023.1.0,60.00214807928742,
,,,,,,,,,,,,,,,,5,7.8,8.9,10,11.1,12.2,1.1,0.7000000000000001,0.4,4.800000000000001,10,initial,36.05,281,321,361,400,440,9,9,9,9,9,,,,,,,4,0,4,0,0,7,7,38,,,,,,,,,,,,,,6,1.0256850998848677,6,0.2,0.3,10.81288,return,1.0638758998829871,,,,,,,,,,,,,,,,,p314,22,female,up_down_width,2025-12-02_12h57.48.407,exp1,2023.1.0,60.00214807928742,
,,,,,,,,,,,,,,,,5,8.65,9.325,10,10.675,11.35,0.675,0.275,0.4,3.1,10,match,36.05,312,336,361,385,409,9,9,9,9,9,,,,,,,4,0,4,0,0,8,8,33,,,,,,,,,,,,,,5,1.3324780000839382,5,0.3,0.39999999999999997,14.41717,return,1.3103741998784244,,,,,,,,,,,,,,,,,p314,22,female,up_down_width,2025-12-02_12h57.48.407,exp1,2023.1.0,60.00214807928742,
,,,,,,,,,,,,,,,,5,8.275,9.1375,10,10.8625,11.725,0.8625,0.6125,0.25,3.7,10,match,36.05,298,329,361,392,423,9,9,9,9,9,,,,,,,4,0,4,0,0,9,9,22,,,,,,,,,,,,,,5,1.4059098998550326,5,0.3,0.10000000000000002,3.60429,return,1.0764075997285545,,,,,,,,,,,,,,,,,p314,22,female,up_down_width,2025-12-02_12h57.48.407,exp1,2023.1.0,60.00214807928742,
,,,,,,,,,,,,,,,,3,8.9,10,11.1,0,0,1.1,0.8500000000000001,0.25,2.45,10,initial,36.05,321,361,400,0,0,9,9,9,0,0,,,,,,,4,0,4,0,0,10,10,2,,,,,,,,,,,,,,2,1.0658403998240829,2,0.3,0.15000000000000002,5.40644,return,0.8786057999823242,,,,,,,,,,,,,,,,,p314,22,female,up_down_width,2025-12-02_12h57.48.407,exp1,2023.1.0,60.00214807928742,
,,,,,,,,,,,,,,,,3,9.1,10,10.9,0,0,0.9,0.65,0.25,2.05,10,initial,36.05,328,361,393,0,0,9,9,9,0,0,,,,,,,4,0,4,0,0,11,11,13,,,,,,,,,,,,,,2,0.5424903999082744,2,0.35,0.10000000000000002,3.60429,return,1.224027499789372,,,,,,,,,,,,,,,,,p314,22,female,up_down_width,2025-12-02_12h57.48.407,exp1,2023.1.0,60.00214807928742,
,,,,,,,,,,,,,,,,3,7.8,10,12.2,0,0,2.2,1.9500000000000002,0.25,4.65,10,match,36.05,281,361,440,0,0,9,9,9,0,0,,,,,,,4,0,4,0,0,12,12,37,,,,,,,,,,,,,,3,1.0238618000876158,3,0.5,0.15000000000000008,5.40644,return,2.4859336998779327,,,,,,,,,,,,,,,,,p314,22,female,up_down_width,2025-12-02_12h57.48.407,exp1,2023.1.0,60.00214807928742,
,,,,,,,,,,,,,,,,4,8.825,9.608333333333333,10.391666666666667,11.175,0,0.7833333333333333,0.5333333333333333,0.25,2.6,10,match,36.05,318,346,375,403,0,9,9,9,9,0,,,,,,,4,0,4,0,0,13,13,5,,,,,,,,,,,,,,4,1.2276933998800814,4,0.4,0.15000000000000008,5.40644,return,1.1132454997859895,,,,,,,,,,,,,,,,,p314,22,female,up_down_width,2025-12-02_12h57.48.407,exp1,2023.1.0,60.00214807928742,
,,,,,,,,,,,,,,,,5,8.2,9.1,10,10.9,11.8,0.9,0.5,0.4,4,10,initial,36.05,296,328,361,393,425,9,9,9,9,9,,,,,,,4,0,4,0,0,14,14,50,,,,,,,,,,,,,,5,1.0297800998669118,5,0.35,0.44999999999999996,16.21932,return,0.8278224000241607,,,,,,,,,,,,,,,,,p314,22,female,up_down_width,2025-12-02_12h57.48.407,exp1,2023.1.0,60.00214807928742,
,,,,,,,,,,,,,,,,3,9.3,10,10.7,0,0,0.7,0.29999999999999993,0.4,1.8,10,initial,36.05,335,361,386,0,0,9,9,9,0,0,,,,,,,4,0,4,0,0,15,15,9,,,,,,,,,,,,,,3,1.0958108000922948,3,0.4,0.4,14.41717,return,1.0998041997663677,,,,,,,,,,,,,,,,,p314,22,female,up_down_width,2025-12-02_12h57.48.407,exp1,2023.1.0,60.00214807928742,
,,,,,,,,,,,,,,,,4,8.65,9.55,10.45,11.35,0,0.9,0.35,0.55,3.25,10,initial,36.05,312,344,377,409,0,9,9,9,9,0,,,,,,,4,0,4,0,0,16,16,28,,,,,,,,,,,,,,4,0.9348150999285281,4,0.5,0.55,19.82361,return,1.264007399789989,,,,,,,,,,,,,,,,,p314,22,female,up_down_width,2025-12-02_12h57.48.407,exp1,2023.1.0,60.00214807928742,
,,,,,,,,,,,,,,,,5,7.8,8.9,10,11.1,12.2,1.1,0.8500000000000001,0.25,4.65,10,initial,36.05,281,321,361,400,440,9,9,9,9,9,,,,,,,4,0,4,0,0,17,17,36,,,,,,,,,,,,,,5,1.115134800085798,5,0.25,0.2,7.20859,return,1.1012132000178099,,,,,,,,,,,,,,,,,p314,22,female,up_down_width,2025-12-02_12h57.48.407,exp1,2023.1.0,60.00214807928742,
,,,,,,,,,,,,,,,,3,9.1,10,10.9,0,0,0.9,0.5,0.4,2.2,10,initial,36.05,328,361,393,0,0,9,9,9,0,0,,,,,,,4,0,4,0,0,18,18,15,,,,,,,,,,,,,,2,1.0002114998642355,2,0.5,0.5,18.02146,return,0.8152745997067541,,,,,,,,,,,,,,,,,p314,22,female,up_down_width,2025-12-02_12h57.48.407,exp1,2023.1.0,60.00214807928742,
,,,,,,,,,,,,,,,,4,9.1,9.7,10.3,10.9,0,0.6,0.04999999999999997,0.55,2.35,10,match,36.05,328,350,371,393,0,9,9,9,9,0,,,,,,,4,0,4,0,0,19,19,12,,,,,,,,,,,,,,3,1.6717444998212159,3,0.35,0.5499999999999999,19.82361,return,1.18804379994981,,,,,,,,,,,,,,,,,p314,22,female,up_down_width,2025-12-02_12h57.48.407,exp1,2023.1.0,60.00214807928742,
,,,,,,,,,,,,,,,,4,9.1,9.7,10.3,10.9,0,0.5999999999999999,0.3499999999999999,0.25,2.05,10,match,36.05,328,350,371,393,0,9,9,9,9,0,,,,,,,4,0,4,0,0,20,20,14,,,,,,,,,,,,,,4,1.1466554999351501,4,0.3,0.2,7.20859,return,1.741205899976194,,,,,,,,,,,,,,,,,p314,22,female,up_down_width,2025-12-02_12h57.48.407,exp1,2023.1.0,60.00214807928742,
,,,,,,,,,,,,,,,,3,9.3,10,10.7,0,0,0.7,0.1499999999999999,0.55,1.95,10,initial,36.05,335,361,386,0,0,9,9,9,0,0,,,,,,,4,0,4,0,0,21,21,6,,,,,,,,,,,,,,2,1.1280938999261707,2,0.45,0.7000000000000002,25.23005,return,1.1143809999339283,,,,,,,,,,,,,,,,,p314,22,female,up_down_width,2025-12-02_12h57.48.407,exp1,2023.1.0,60.00214807928742,
,,,,,,,,,,,,,,,,4,8.35,9.45,10.55,11.65,0,1.1,0.7000000000000001,0.4,3.7,10,initial,36.05,301,341,380,420,0,9,9,9,9,0,,,,,,,4,0,4,0,0,22,22,21,,,,,,,,,,,,,,4,1.1299282999243587,4,0.3,0.49999999999999994,18.02146,return,1.0040583999361843,,,,,,,,,,,,,,,,,p314,22,female,up_down_width,2025-12-02_12h57.48.407,exp1,2023.1.0,60.00214807928742,
,,,,,,,,,,,,,,,,5,8.65,9.325,10,10.675,11.35,0.675,0.125,0.55,3.25,10,match,36.05,312,336,361,385,409,9,9,9,9,9,,,,,,,4,0,4,0,0,23,23,29,,,,,,,,,,,,,,4,1.3937274997588247,4,0.4,0.6500000000000001,23.4279,return,1.032804399728775,,,,,,,,,,,,,,,,,p314,22,female,up_down_width,2025-12-02_12h57.48.407,exp1,2023.1.0,60.00214807928742,
,,,,,,,,,,,,,,,,4,9.1,9.7,10.3,10.9,0,0.6000000000000001,0.20000000000000004,0.4,2.2,10,match,36.05,328,350,371,393,0,9,9,9,9,0,,,,,,,4,0,4,0,0,24,24,16,,,,,,,,,,,,,,4,1.3732499000616372,4,0.45,0.4,14.41717,return,1.8126927998382598,,,,,,,,,,,,,,,,,p314,22,female,up_down_width,2025-12-02_12h57.48.407,exp1,2023.1.0,60.00214807928742,
,,,,,,,,,,,,,,,,3,8.2,10,11.8,0,0,1.7999999999999998,1.4,0.4,4,10,match,36.05,296,361,425,0,0,9,9,9,0,0,,,,,,,4,0,4,0,0,25,25,51,,,,,,,,,,,,,,2,1.1016140999272466,2,0.5,0.5,18.02146,return,2.7677601997274905,,,,,,,,,,,,,,,,,p314,22,female,up_down_width,2025-12-02_12h57.48.407,exp1,2023.1.0,60.00214807928742,
,,,,,,,,,,,,,,,,3,9.1,10,10.9,0,0,0.9,0.35,0.55,2.35,10,initial,36.05,328,361,393,0,0,9,9,9,0,0,,,,,,,4,0,4,0,0,26,26,11,,,,,,,,,,,,,,2,1.0860860999673605,2,0.25,0.5499999999999999,19.82361,return,1.34572169999592,,,,,,,,,,,,,,,,,p314,22,female,up_down_width,2025-12-02_12h57.48.407,exp1,2023.1.0,60.00214807928742,
,,,,,,,,,,,,,,,,4,8.95,9.65,10.35,11.05,0,0.7,0.44999999999999996,0.25,2.3499999999999996,10,initial,36.05,323,348,373,398,0,9,9,9,9,0,,,,,,,4,0,4,0,0,27,27,24,,,,,,,,,,,,,,4,1.0215844998601824,4,0.2,0.2,7.20859,return,1.2028126998338848,,,,,,,,,,,,,,,,,p314,22,female,up_down_width,2025-12-02_12h57.48.407,exp1,2023.1.0,60.00214807928742,
,,,,,,,,,,,,,,,,4,9.3,9.766666666666667,10.233333333333333,10.7,0,0.4666666666666667,0.06666666666666665,0.4,1.8,10,match,36.05,335,352,369,386,0,9,9,9,9,0,,,,,,,4,0,4,0,0,28,28,10,,,,,,,,,,,,,,4,0.8513167998753488,4,0.4,0.4,14.41717,return,1.697063700063154,,,,,,,,,,,,,,,,,p314,22,female,up_down_width,2025-12-02_12h57.48.407,exp1,2023.1.0,60.00214807928742,
,,,,,,,,,,,,,,,,5,8.2,9.1,10,10.9,11.8,0.9,0.65,0.25,3.85,10,initial,36.05,296,328,361,393,425,9,9,9,9,9,,,,,,,4,0,4,0,0,29,29,48,,,,,,,,,,,,,,5,1.0064479997381568,5,0.55,0.15000000000000008,5.40644,return,4.021808699937537,,,,,,,,,,,,,,,,,p314,22,female,up_down_width,2025-12-02_12h57.48.407,exp1,2023.1.0,60.00214807928742,
,,,,,,,,,,,,,,,,5,8.6,9.3,10,10.7,11.4,0.7,0.1499999999999999,0.55,3.3499999999999996,10,initial,36.05,310,335,361,386,411,9,9,9,9,9,,,,,,,4,0,4,0,0,30,30,40,,,,,,,,,,,,,,5,1.3971875999122858,5,0.45,0.5,18.02146,return,0.8276711998041719,,,,,,,,,,,,,,,,,p314,22,female,up_down_width,2025-12-02_12h57.48.407,exp1,2023.1.0,60.00214807928742,
,,,,,,,,,,,,,,,,3,8.6,10,11.4,0,0,1.4,0.85,0.55,3.35,10,match,36.05,310,361,411,0,0,9,9,9,0,0,,,,,,,4,0,4,0,0,31,31,41,,,,,,,,,,,,,,3,3.687766799936071,3,0.2,0.49999999999999994,18.02146,return,1.8753736999351531,,,,,,,,,,,,,,,,,p314,22,female,up_down_width,2025-12-02_12h57.48.407,exp1,2023.1.0,60.00214807928742,
,,,,,,,,,,,,,,,,5,7.8,8.9,10,11.1,12.2,1.1,0.55,0.55,4.95,10,initial,36.05,281,321,361,400,440,9,9,9,9,9,,,,,,,4,0,4,0,0,32,32,34,,,,,,,,,,,,,,6,1.0997273998800665,6,0.3,0.49999999999999994,18.02146,return,1.0544257999863476,,,,,,,,,,,,,,,,,p314,22,female,up_down_width,2025-12-02_12h57.48.407,exp1,2023.1.0,60.00214807928742,
,,,,,,,,,,,,,,,,3,8.525,10,11.475,0,0,1.475,1.225,0.25,3.2,10,match,36.05,307,361,414,0,0,9,9,9,0,0,,,,,,,4,0,4,0,0,33,33,45,,,,,,,,,,,,,,2,1.121271199779585,2,0.3,0.10000000000000002,3.60429,return,1.5072612999938428,,,,,,,,,,,,,,,,,p314,22,female,up_down_width,2025-12-02_12h57.48.407,exp1,2023.1.0,60.00214807928742,
,,,,,,,,,,,,,,,,4,8.65,9.55,10.45,11.35,0,0.9,0.5,0.4,3.1,10,initial,36.05,312,344,377,409,0,9,9,9,9,0,,,,,,,4,0,4,0,0,34,34,32,,,,,,,,,,,,,,4,0.9584492999128997,4,0.35,0.3,10.81288,return,1.271298399893567,,,,,,,,,,,,,,,,,p314,22,female,up_down_width,2025-12-02_12h57.48.407,exp1,2023.1.0,60.00214807928742,
,,,,,,,,,,,,,,,,4,8.9,9.633333333333333,10.366666666666667,11.1,0,0.7333333333333334,0.4833333333333334,0.25,2.45,10,match,36.05,321,347,374,400,0,9,9,9,9,0,,,,,,,4,0,4,0,0,35,35,3,,,,,,,,,,,,,,3,0.9340745997615159,3,0.55,0.15000000000000008,5.40644,return,2.831421500071883,,,,,,,,,,,,,,,,,p314,22,female,up_down_width,2025-12-02_12h57.48.407,exp1,2023.1.0,60.00214807928742,
,,,,,,,,,,,,,,,,5,8.65,9.325,10,10.675,11.35,0.675,0.42500000000000004,0.25,2.95,10,match,36.05,312,336,361,385,409,9,9,9,9,9,,,,,,,4,0,4,0,0,36,36,31,,,,,,,,,,,,,,4,1.023960500024259,4,0.4,0.15000000000000008,5.40644,return,1.415707599837333,,,,,,,,,,,,,,,,,p314,22,female,up_down_width,2025-12-02_12h57.48.407,exp1,2023.1.0,60.00214807928742,
,,,,,,,,,,,,,,,,4,9.3,9.766666666666667,10.233333333333333,10.7,0,0.4666666666666667,0.21666666666666665,0.25,1.65,10,match,36.05,335,352,369,386,0,9,9,9,9,0,,,,,,,4,0,4,0,0,37,37,8,,,,,,,,,,,,,,4,0.9661436998285353,4,0.2,0.10000000000000002,3.60429,return,0.6057048998773098,,,,,,,,,,,,,,,,,p314,22,female,up_down_width,2025-12-02_12h57.48.407,exp1,2023.1.0,60.00214807928742,
,,,,,,,,,,,,,,,,3,8.9,10,11.1,0,0,1.1,0.55,0.55,2.75,10,initial,36.05,321,361,400,0,0,9,9,9,0,0,,,,,,,4,0,4,0,0,38,38,0,,,,,,,,,,,,,,2,0.9046635997947305,2,0.4,0.6500000000000001,23.4279,return,1.2353984999936074,,,,,,,,,,,,,,,,,p314,22,female,up_down_width,2025-12-02_12h57.48.407,exp1,2023.1.0,60.00214807928742,
,,,,,,,,,,,,,,,,4,8.95,9.65,10.35,11.05,0,0.7,0.1499999999999999,0.55,2.65,10,initial,36.05,323,348,373,398,0,9,9,9,9,0,,,,,,,4,0,4,0,0,39,39,23,,,,,,,,,,,,,,3,1.107223899802193,3,0.35,0.65,23.4279,return,1.4937523999251425,,,,,,,,,,,,,,,,,p314,22,female,up_down_width,2025-12-02_12h57.48.407,exp1,2023.1.0,60.00214807928742,
,,,,,,,,,,,,,,,,5,8.95,9.475,10,10.525,11.05,0.525,0.275,0.25,2.35,10,match,36.05,323,342,361,379,398,9,9,9,9,9,,,,,,,4,0,4,0,0,40,40,25,,,,,,,,,,,,,,4,0.8223743997514248,4,0.2,0.25,9.01073,return,1.188427599845454,,,,,,,,,,,,,,,,,p314,22,female,up_down_width,2025-12-02_12h57.48.407,exp1,2023.1.0,60.00214807928742,
,,,,,,,,,,,,,,,,3,9.3,10,10.7,0,0,0.7,0.44999999999999996,0.25,1.65,10,initial,36.05,335,361,386,0,0,9,9,9,0,0,,,,,,,4,0,4,0,0,41,41,7,,,,,,,,,,,,,,2,0.9239091998897493,2,0.25,0.15000000000000002,5.40644,return,0.710305199958384,,,,,,,,,,,,,,,,,p314,22,female,up_down_width,2025-12-02_12h57.48.407,exp1,2023.1.0,60.00214807928742,
,,,,,,,,,,,,,,,,3,8.6,10,11.4,0,0,1.4,1.15,0.25,3.05,10,match,36.05,310,361,411,0,0,9,9,9,0,0,,,,,,,4,0,4,0,0,42,42,43,,,,,,,,,,,,,,2,0.6515213998500258,2,0.45,0.15000000000000008,5.40644,return,1.3592531997710466,,,,,,,,,,,,,,,,,p314,22,female,up_down_width,2025-12-02_12h57.48.407,exp1,2023.1.0,60.00214807928742,
,,,,,,,,,,,,,,,,5,8.2,9.1,10,10.9,11.8,0.9,0.35,0.55,4.15,10,initial,36.05,296,328,361,393,425,9,9,9,9,9,,,,,,,4,0,4,0,0,43,43,46,,,,,,,,,,,,,,5,1.2057826998643577,5,0.55,0.6500000000000001,23.4279,return,0.8843881997745484,,,,,,,,,,,,,,,,,p314,22,female,up_down_width,2025-12-02_12h57.48.407,exp1,2023.1.0,60.00214807928742,
,,,,,,,,,,,,,,,,4,8.95,9.65,10.35,11.05,0,0.7,0.29999999999999993,0.4,2.5,10,initial,36.05,323,348,373,398,0,9,9,9,9,0,,,,,,,4,0,4,0,0,44,44,26,,,,,,,,,,,,,,4,0.8471563998609781,4,0.4,0.30000000000000004,10.81288,return,0.9721410998608917,,,,,,,,,,,,,,,,,p314,22,female,up_down_width,2025-12-02_12h57.48.407,exp1,2023.1.0,60.00214807928742,
,,,,,,,,,,,,,,,,4,8.9,9.633333333333333,10.366666666666667,11.1,0,0.7333333333333333,0.18333333333333326,0.55,2.75,10,match,36.05,321,347,374,400,0,9,9,9,9,0,,,,,,,4,0,4,0,0,45,45,1,,,,,,,,,,,,,,4,1.7622090000659227,4,0.4,0.35000000000000003,12.61502,return,0.7150639998726547,,,,,,,,,,,,,,,,,p314,22,female,up_down_width,2025-12-02_12h57.48.407,exp1,2023.1.0,60.00214807928742,
,,,,,,,,,,,,,,,,5,8.6,9.3,10,10.7,11.4,0.7,0.44999999999999996,0.25,3.05,10,initial,36.05,310,335,361,386,411,9,9,9,9,9,,,,,,,4,0,4,0,0,46,46,42,,,,,,,,,,,,,,5,0.9927378997672349,5,0.25,0.15000000000000002,5.40644,return,0.8726726998575032,,,,,,,,,,,,,,,,,p314,22,female,up_down_width,2025-12-02_12h57.48.407,exp1,2023.1.0,60.00214807928742,
,,,,,,,,,,,,,,,,4,8.35,9.45,10.55,11.65,0,1.1,0.55,0.55,3.8500000000000005,10,initial,36.05,301,341,380,420,0,9,9,9,9,0,,,,,,,4,0,4,0,0,47,47,17,,,,,,,,,,,,,,4,1.1970536999870092,4,0.3,0.44999999999999996,16.21932,return,1.0033289999701083,,,,,,,,,,,,,,,,,p314,22,female,up_down_width,2025-12-02_12h57.48.407,exp1,2023.1.0,60.00214807928742,
,,,,,,,,,,,,,,,,5,8.6,9.3,10,10.7,11.4,0.7,0.29999999999999993,0.4,3.1999999999999997,10,initial,36.05,310,335,361,386,411,9,9,9,9,9,,,,,,,4,0,4,0,0,48,48,44,,,,,,,,,,,,,,5,0.934669699985534,5,0.45,0.4,14.41717,return,0.9603019999340177,,,,,,,,,,,,,,,,,p314,22,female,up_down_width,2025-12-02_12h57.48.407,exp1,2023.1.0,60.00214807928742,
,,,,,,,,,,,,,,,,5,8.95,9.475,10,10.525,11.05,0.525,0.125,0.4,2.5,10,match,36.05,323,342,361,379,398,9,9,9,9,9,,,,,,,4,0,4,0,0,49,49,27,,,,,,,,,,,,,,4,0.8986136997118592,4,0.55,0.55,19.82361,return,1.374396599829197,,,,,,,,,,,,,,,,,p314,22,female,up_down_width,2025-12-02_12h57.48.407,exp1,2023.1.0,60.00214807928742,
,,,,,,,,,,,,,,,,3,8.2,10,11.8,0,0,1.8,1.25,0.55,4.15,10,match,36.05,296,361,425,0,0,9,9,9,0,0,,,,,,,4,0,4,0,0,50,50,47,,,,,,,,,,,,,,3,1.0878311998676509,3,0.2,0.6,21.62576,return,1.7323137999046594,,,,,,,,,,,,,,,,,p314,22,female,up_down_width,2025-12-02_12h57.48.407,exp1,2023.1.0,60.00214807928742,
,,,,,,,,,,,,,,,,4,8.35,9.45,10.55,11.65,0,1.1,0.8500000000000001,0.25,3.5500000000000003,10,initial,36.05,301,341,380,420,0,9,9,9,9,0,,,,,,,4,0,4,0,0,51,51,19,,,,,,,,,,,,,,4,0.7158244997262955,4,0.4,0.15000000000000008,5.40644,return,1.6621061998885125,,,,,,,,,,,,,,,,,p314,22,female,up_down_width,2025-12-02_12h57.48.407,exp1,2023.1.0,60.00214807928742,
,,,,,,,,,,,,,,,,,,,,,,,,,,,,,,,,,,,,,,,,,,,,,4,0,4,0,,,,,,,,,,,,,,,,,,,,,,,,,,,,1641.2444734999444,1641.2444734999444,1641.2444734999444,,,,,,,,,,,,p314,22,female,up_down_width,2025-12-02_12h57.48.407,exp1,2023.1.0,60.00214807928742,
,,,,,,,,,,,,,,,,4,8.95,9.65,10.35,11.05,0,0.7,0.1499999999999999,0.55,2.65,10,initial,36.05,323,348,373,398,0,9,9,9,9,0,,,,,,,5,0,5,0,0,0,0,23,,,,,,,,,,,,,,3,0.8723978998605162,3,0.25,0.49999999999999994,18.02146,return,1.1238119998015463,,,,,,,,,,,,,,,,,p314,22,female,up_down_width,2025-12-02_12h57.48.407,exp1,2023.1.0,60.00214807928742,
,,,,,,,,,,,,,,,,5,7.8,8.9,10,11.1,12.2,1.1,0.7000000000000001,0.4,4.800000000000001,10,initial,36.05,281,321,361,400,440,9,9,9,9,9,,,,,,,5,0,5,0,0,1,1,38,,,,,,,,,,,,,,5,1.0963314997497946,5,0.35,0.39999999999999997,14.41717,return,0.7956834998913109,,,,,,,,,,,,,,,,,p314,22,female,up_down_width,2025-12-02_12h57.48.407,exp1,2023.1.0,60.00214807928742,
,,,,,,,,,,,,,,,,4,8.95,9.65,10.35,11.05,0,0.7,0.44999999999999996,0.25,2.3499999999999996,10,initial,36.05,323,348,373,398,0,9,9,9,9,0,,,,,,,5,0,5,0,0,2,2,24,,,,,,,,,,,,,,3,1.3407970000989735,3,0.5,0.20000000000000007,7.20859,return,1.4940340998582542,,,,,,,,,,,,,,,,,p314,22,female,up_down_width,2025-12-02_12h57.48.407,exp1,2023.1.0,60.00214807928742,
,,,,,,,,,,,,,,,,3,8.9,10,11.1,0,0,1.1,0.7000000000000001,0.4,2.6000000000000005,10,initial,36.05,321,361,400,0,0,9,9,9,0,0,,,,,,,5,0,5,0,0,3,3,4,,,,,,,,,,,,,,2,0.9350872999057174,2,0.5,0.6000000000000001,21.62576,return,0.6403510998934507,,,,,,,,,,,,,,,,,p314,22,female,up_down_width,2025-12-02_12h57.48.407,exp1,2023.1.0,60.00214807928742,
,,,,,,,,,,,,,,,,4,8.65,9.55,10.45,11.35,0,0.9,0.65,0.25,2.95,10,initial,36.05,312,344,377,409,0,9,9,9,9,0,,,,,,,5,0,5,0,0,4,4,30,,,,,,,,,,,,,,3,0.9112578998319805,3,0.5,0.20000000000000007,7.20859,return,2.393984599970281,,,,,,,,,,,,,,,,,p314,22,female,up_down_width,2025-12-02_12h57.48.407,exp1,2023.1.0,60.00214807928742,
,,,,,,,,,,,,,,,,4,9.1,9.7,10.3,10.9,0,0.6,0.04999999999999997,0.55,2.35,10,match,36.05,328,350,371,393,0,9,9,9,9,0,,,,,,,5,0,5,0,0,5,5,12,,,,,,,,,,,,,,3,1.1376642999239266,3,0.25,0.6,21.62576,return,1.8274414998013526,,,,,,,,,,,,,,,,,p314,22,female,up_down_width,2025-12-02_12h57.48.407,exp1,2023.1.0,60.00214807928742,
,,,,,,,,,,,,,,,,3,9.1,10,10.9,0,0,0.9,0.65,0.25,2.05,10,initial,36.05,328,361,393,0,0,9,9,9,0,0,,,,,,,5,0,5,0,0,6,6,13,,,,,,,,,,,,,,2,0.8180471998639405,2,0.3,0.35,12.61502,return,0.7681099998299032,,,,,,,,,,,,,,,,,p314,22,female,up_down_width,2025-12-02_12h57.48.407,exp1,2023.1.0,60.00214807928742,
,,,,,,,,,,,,,,,,3,7.800000000000001,10,12.2,0,0,2.1999999999999997,1.7999999999999998,0.4,4.8,10,match,36.05,281,361,440,0,0,9,9,9,0,0,,,,,,,5,0,5,0,0,7,7,39,,,,,,,,,,,,,,3,0.8554097998421639,3,0.35,0.25,9.01073,return,0.7241065998096019,,,,,,,,,,,,,,,,,p314,22,female,up_down_width,2025-12-02_12h57.48.407,exp1,2023.1.0,60.00214807928742,
,,,,,,,,,,,,,,,,5,8.65,9.325,10,10.675,11.35,0.675,0.125,0.55,3.25,10,match,36.05,312,336,361,385,409,9,9,9,9,9,,,,,,,5,0,5,0,0,8,8,29,,,,,,,,,,,,,,4,1.0762787000276148,4,0.45,0.5,18.02146,return,0.984043899923563,,,,,,,,,,,,,,,,,p314,22,female,up_down_width,2025-12-02_12h57.48.407,exp1,2023.1.0,60.00214807928742,
,,,,,,,,,,,,,,,,3,7.8,10,12.2,0,0,2.2,1.65,0.55,4.95,10,match,36.05,281,361,440,0,0,9,9,9,0,0,,,,,,,5,0,5,0,0,9,9,35,,,,,,,,,,,,,,3,0.9473719999659806,3,0.2,0.5499999999999999,19.82361,return,1.3409539996646345,,,,,,,,,,,,,,,,,p314,22,female,up_down_width,2025-12-02_12h57.48.407,exp1,2023.1.0,60.00214807928742,
,,,,,,,,,,,,,,,,3,9.3,10,10.7,0,0,0.7,0.44999999999999996,0.25,1.65,10,initial,36.05,335,361,386,0,0,9,9,9,0,0,,,,,,,5,0,5,0,0,10,10,7,,,,,,,,,,,,,,2,0.7884943999815732,2,0.35,0.15000000000000002,5.40644,return,0.8996622997801751,,,,,,,,,,,,,,,,,p314,22,female,up_down_width,2025-12-02_12h57.48.407,exp1,2023.1.0,60.00214807928742,
,,,,,,,,,,,,,,,,5,8.2,9.1,10,10.9,11.8,0.9,0.65,0.25,3.85,10,initial,36.05,296,328,361,393,425,9,9,9,9,9,,,,,,,5,0,5,0,0,11,11,48,,,,,,,,,,,,,,4,1.0324633999262005,4,0.25,0.15000000000000002,5.40644,return,0.940945599693805,,,,,,,,,,,,,,,,,p314,22,female,up_down_width,2025-12-02_12h57.48.407,exp1,2023.1.0,60.00214807928742,
,,,,,,,,,,,,,,,,5,8.35,9.175,10,10.825,11.65,0.825,0.575,0.25,3.55,10,match,36.05,301,331,361,390,420,9,9,9,9,9,,,,,,,5,0,5,0,0,12,12,20,,,,,,,,,,,,,,5,0.954927199985832,5,0.55,0.15000000000000008,5.40644,return,1.618701099883765,,,,,,,,,,,,,,,,,p314,22,female,up_down_width,2025-12-02_12h57.48.407,exp1,2023.1.0,60.00214807928742,
,,,,,,,,,,,,,,,,4,8.9,9.633333333333333,10.366666666666667,11.1,0,0.7333333333333333,0.18333333333333326,0.55,2.75,10,match,36.05,321,347,374,400,0,9,9,9,9,0,,,,,,,5,0,5,0,0,13,13,1,,,,,,,,,,,,,,4,1.0350979000795633,4,0.45,0.5,18.02146,return,1.1054637997876853,,,,,,,,,,,,,,,,,p314,22,female,up_down_width,2025-12-02_12h57.48.407,exp1,2023.1.0,60.00214807928742,
,,,,,,,,,,,,,,,,4,9.3,9.766666666666667,10.233333333333333,10.7,0,0.4666666666666667,0.21666666666666665,0.25,1.65,10,match,36.05,335,352,369,386,0,9,9,9,9,0,,,,,,,5,0,5,0,0,14,14,8,,,,,,,,,,,,,,4,1.0194127999711782,4,0.55,0.20000000000000007,7.20859,return,1.5046478000003844,,,,,,,,,,,,,,,,,p314,22,female,up_down_width,2025-12-02_12h57.48.407,exp1,2023.1.0,60.00214807928742,
,,,,,,,,,,,,,,,,4,8.95,9.65,10.35,11.05,0,0.7,0.29999999999999993,0.4,2.5,10,initial,36.05,323,348,373,398,0,9,9,9,9,0,,,,,,,5,0,5,0,0,15,15,26,,,,,,,,,,,,,,3,1.2766040000133216,3,0.4,0.30000000000000004,10.81288,return,0.9037615999113768,,,,,,,,,,,,,,,,,p314,22,female,up_down_width,2025-12-02_12h57.48.407,exp1,2023.1.0,60.00214807928742,
,,,,,,,,,,,,,,,,3,8.2,10,11.8,0,0,1.7999999999999998,1.4,0.4,4,10,match,36.05,296,361,425,0,0,9,9,9,0,0,,,,,,,5,0,5,0,0,16,16,51,,,,,,,,,,,,,,4,1.0285193999297917,4,0.4,0.4,14.41717,return,1.0981469999533147,,,,,,,,,,,,,,,,,p314,22,female,up_down_width,2025-12-02_12h57.48.407,exp1,2023.1.0,60.00214807928742,
,,,,,,,,,,,,,,,,4,9.1,9.7,10.3,10.9,0,0.5999999999999999,0.3499999999999999,0.25,2.05,10,match,36.05,328,350,371,393,0,9,9,9,9,0,,,,,,,5,0,5,0,0,17,17,14,,,,,,,,,,,,,,3,1.195803899783641,3,0.55,0.25000000000000006,9.01073,return,1.2753803997766227,,,,,,,,,,,,,,,,,p314,22,female,up_down_width,2025-12-02_12h57.48.407,exp1,2023.1.0,60.00214807928742,
,,,,,,,,,,,,,,,,4,9.3,9.766666666666667,10.233333333333333,10.7,0,0.4666666666666667,0.06666666666666665,0.4,1.8,10,match,36.05,335,352,369,386,0,9,9,9,9,0,,,,,,,5,0,5,0,0,18,18,10,,,,,,,,,,,,,,4,0.9432849998120219,4,0.3,0.49999999999999994,18.02146,return,0.8565486997831613,,,,,,,,,,,,,,,,,p314,22,female,up_down_width,2025-12-02_12h57.48.407,exp1,2023.1.0,60.00214807928742,
,,,,,,,,,,,,,,,,5,8.35,9.175,10,10.825,11.65,0.8250000000000001,0.275,0.55,3.85,10,match,36.05,301,331,361,390,420,9,9,9,9,9,,,,,,,5,0,5,0,0,19,19,18,,,,,,,,,,,,,,5,1.1231752999592572,5,0.3,0.5499999999999999,19.82361,return,0.9174092998728156,,,,,,,,,,,,,,,,,p314,22,female,up_down_width,2025-12-02_12h57.48.407,exp1,2023.1.0,60.00214807928742,
,,,,,,,,,,,,,,,,3,9.3,10,10.7,0,0,0.7,0.29999999999999993,0.4,1.8,10,initial,36.05,335,361,386,0,0,9,9,9,0,0,,,,,,,5,0,5,0,0,20,20,9,,,,,,,,,,,,,,4,0.8140169999096543,4,0.5,0.4,14.41717,return,1.2608701998833567,,,,,,,,,,,,,,,,,p314,22,female,up_down_width,2025-12-02_12h57.48.407,exp1,2023.1.0,60.00214807928742,
,,,,,,,,,,,,,,,,5,8.95,9.475,10,10.525,11.05,0.525,0.125,0.4,2.5,10,match,36.05,323,342,361,379,398,9,9,9,9,9,,,,,,,5,0,5,0,0,21,21,27,,,,,,,,,,,,,,4,0.5299481998663396,4,0.25,0.35,12.61502,return,0.923133899923414,,,,,,,,,,,,,,,,,p314,22,female,up_down_width,2025-12-02_12h57.48.407,exp1,2023.1.0,60.00214807928742,
,,,,,,,,,,,,,,,,5,7.8,8.9,10,11.1,12.2,1.1,0.55,0.55,4.95,10,initial,36.05,281,321,361,400,440,9,9,9,9,9,,,,,,,5,0,5,0,0,22,22,34,,,,,,,,,,,,,,6,1.0878221997991204,6,0.4,0.6000000000000001,21.62576,return,0.8986495998688042,,,,,,,,,,,,,,,,,p314,22,female,up_down_width,2025-12-02_12h57.48.407,exp1,2023.1.0,60.00214807928742,
,,,,,,,,,,,,,,,,3,8.9,10,11.1,0,0,1.1,0.8500000000000001,0.25,2.45,10,initial,36.05,321,361,400,0,0,9,9,9,0,0,,,,,,,5,0,5,0,0,23,23,2,,,,,,,,,,,,,,2,1.0873494998086244,2,0.5,0.20000000000000007,7.20859,return,1.2996589997783303,,,,,,,,,,,,,,,,,p314,22,female,up_down_width,2025-12-02_12h57.48.407,exp1,2023.1.0,60.00214807928742,
