amount_p,posx1_p,posx2_p,posx3_p,posx4_p,posx5_p,center_to_center_p,edge_to_edge_p,w_p,stim_lengt_p,eccentricity_p,line1_p,line2_p,line3_p,line4_p,line5_p,amount,posx1,posx2,posx3,posx4,posx5,center_to_center,edge_to_edge,w,stim_length,eccentricity,trial_type,deg_to_pix_index,posx1_in_pix,posx2_in_pix,posx3_in_pix,posx4_in_pix,posx5_in_pix,line1,line2,line3,line4,line5,posx,setsize_cobdi,trials.thisRepN,trials.thisTrialN,trials.thisN,trials.thisIndex,blocks.thisRepN,blocks.thisTrialN,blocks.thisN,blocks.thisIndex,loop.thisRepN,loop.thisTrialN,loop.thisN,loop.thisIndex,first.thisRepN,first.thisTrialN,first.thisN,first.thisIndex,second.thisRepN,second.thisTrialN,second.thisN,second.thisIndex,thisRow.t,notes,key_resp_3.started,key_resp_3.keys,key_resp_3.rt,key_resp.keys,key_resp.rt,response,starting_width_deg,response_width_degree,response_width_pixel,next_5.keys,next_5.rt,key_resp_4.keys,key_resp_4.rt,text_3.started,text_4.started,key_resp_2.started,text_2.started,key_resp_2.keys,key_resp_2.rt,adjusting.started,next.keys,next.rt,text_control2.started,key_resp.started,key_resp.corr,text_bye.started,text_bye.stopped,participant,age,gender,resp_group,date,expName,psychopyVersion,frameRate,
,,,,,,,,,,,,,,,,,,,,,,,,,,,,,,,,,,,,,,,,,,,,,,,,,,,,,,,,,,,,,,,361.2038898000028,c,123.86831589997746,,,,,,,,,,,,,,,,,,,,,,,,,p315,21,female,left_right_width,2025-12-02_15h03.11.598,exp1,2023.1.0,60.0131668912648,
3,9.5,10,10.5,0,0,0.5,0.4,0.1,1.1,10,9,9,9,0,0,,,,,,,,,,,,,,,,,,,,,,,,,,0,0,0,0,,,,,,,,,,,,,,,,,,,,,,2,5.153644300065935,2,0.25,0.10000000000000002,3.60429,return,8.70689529995434,,,,,,,,,,,,,,,,,p315,21,female,left_right_width,2025-12-02_15h03.11.598,exp1,2023.1.0,60.0131668912648,
4,9.25,9.75,10.25,10.75,0,0.5,0.25,0.25,1.75,10,9,9,9,9,0,,,,,,,,,,,,,,,,,,,,,,,,,,0,1,1,4,,,,,,,,,,,,,,,,,,,,,,3,1.6680052999872714,3,0.35,0.15000000000000002,5.40644,return,2.399379000067711,,,,,,,,,,,,,,,,,p315,21,female,left_right_width,2025-12-02_15h03.11.598,exp1,2023.1.0,60.0131668912648,
3,8.2,10,11.8,0,0,1.7999999999999998,1.4,0.4,4,10,9,9,9,0,0,,,,,,,,,,,,,,,,,,,,,,,,,,0,2,2,2,,,,,,,,,,,,,,,,,,,,,,3,2.073219200130552,3,0.45,0.30000000000000004,10.81288,return,4.388854400254786,,,,,,,,,,,,,,,,,p315,21,female,left_right_width,2025-12-02_15h03.11.598,exp1,2023.1.0,60.0131668912648,
5,8.6,9.3,10,10.7,11.4,0.7,0.29999999999999993,0.4,3.1999999999999997,10,9,9,9,9,9,,,,,,,,,,,,,,,,,,,,,,,,,,0,3,3,7,,,,,,,,,,,,,,,,,,,,,,4,1.6282127001322806,4,0.4,0.30000000000000004,10.81288,return,1.8656039002817124,,,,,,,,,,,,,,,,,p315,21,female,left_right_width,2025-12-02_15h03.11.598,exp1,2023.1.0,60.0131668912648,
4,9.5,9.833333333333334,10.166666666666666,10.5,0,0.33333333333333337,0.23333333333333336,0.1,1.1,10,9,9,9,9,0,,,,,,,,,,,,,,,,,,,,,,,,,,0,4,4,3,,,,,,,,,,,,,,,,,,,,,,4,2.317901700269431,4,0.3,0.05000000000000002,1.80215,return,3.950892500113696,,,,,,,,,,,,,,,,,p315,21,female,left_right_width,2025-12-02_15h03.11.598,exp1,2023.1.0,60.0131668912648,
5,9,9.5,10,10.5,11,0.5,0.09999999999999998,0.4,2.4,10,9,9,9,9,9,,,,,,,,,,,,,,,,,,,,,,,,,,0,5,5,8,,,,,,,,,,,,,,,,,,,,,,4,3.8442350002005696,4,0.5,0.4,14.41717,return,1.9140408001840115,,,,,,,,,,,,,,,,,p315,21,female,left_right_width,2025-12-02_15h03.11.598,exp1,2023.1.0,60.0131668912648,
5,9.25,9.625,10,10.375,10.75,0.375,0.125,0.25,1.75,10,9,9,9,9,9,,,,,,,,,,,,,,,,,,,,,,,,,,0,6,6,6,,,,,,,,,,,,,,,,,,,,,,5,2.2785049001686275,5,0.5,0.10000000000000007,3.60429,return,4.05828470014967,,,,,,,,,,,,,,,,,p315,21,female,left_right_width,2025-12-02_15h03.11.598,exp1,2023.1.0,60.0131668912648,
3,9,10,11,0,0,1,0.9,0.1,2.1,10,9,9,9,0,0,,,,,,,,,,,,,,,,,,,,,,,,,,0,7,7,1,,,,,,,,,,,,,,,,,,,,,,4,1.9348626001738012,4,0.35,0.05000000000000002,1.80215,return,2.4966594001743942,,,,,,,,,,,,,,,,,p315,21,female,left_right_width,2025-12-02_15h03.11.598,exp1,2023.1.0,60.0131668912648,
4,8.65,9.55,10.45,11.35,0,0.9,0.5,0.4,3.1,10,9,9,9,9,0,,,,,,,,,,,,,,,,,,,,,,,,,,0,8,8,5,,,,,,,,,,,,,,,,,,,,,,5,3.5554341000970453,5,0.5,0.25000000000000006,9.01073,return,2.356321800034493,,,,,,,,,,,,,,,,,p315,21,female,left_right_width,2025-12-02_15h03.11.598,exp1,2023.1.0,60.0131668912648,
,,,,,,,,,,,,,,,,,,,,,,,,,,,,,,,,,,,,,,,,,,,,,,,,,,,,,,,,,,,,,,,,,,,,,,,,,,c,211.98879440012388,,,,,,,,,,,,,,,p315,21,female,left_right_width,2025-12-02_15h03.11.598,exp1,2023.1.0,60.0131668912648,
,,,,,,,,,,,,,,,,4,8.95,9.65,10.35,11.05,0,0.7,0.1499999999999999,0.55,2.65,10,initial,36.05,323,348,373,398,0,9,9,9,9,0,,,,,,,0,0,0,0,0,0,0,23,,,,,,,,,,,,,,4,2.0288691001478583,4,0.4,0.4,14.41717,return,2.746108300285414,,,,,,,,,,,,,,,,,p315,21,female,left_right_width,2025-12-02_15h03.11.598,exp1,2023.1.0,60.0131668912648,
,,,,,,,,,,,,,,,,3,9.3,10,10.7,0,0,0.7,0.29999999999999993,0.4,1.8,10,initial,36.05,335,361,386,0,0,9,9,9,0,0,,,,,,,0,0,0,0,0,1,1,9,,,,,,,,,,,,,,4,1.7820223001763225,4,0.5,0.35000000000000003,12.61502,return,2.3015227001160383,,,,,,,,,,,,,,,,,p315,21,female,left_right_width,2025-12-02_15h03.11.598,exp1,2023.1.0,60.0131668912648,
,,,,,,,,,,,,,,,,3,8.9,10,11.1,0,0,1.1,0.8500000000000001,0.25,2.45,10,initial,36.05,321,361,400,0,0,9,9,9,0,0,,,,,,,0,0,0,0,0,2,2,2,,,,,,,,,,,,,,5,1.40134990029037,5,0.2,0.25,9.01073,return,3.5849300001282245,,,,,,,,,,,,,,,,,p315,21,female,left_right_width,2025-12-02_15h03.11.598,exp1,2023.1.0,60.0131668912648,
,,,,,,,,,,,,,,,,5,8.95,9.475,10,10.525,11.05,0.525,0.125,0.4,2.5,10,match,36.05,323,342,361,379,398,9,9,9,9,9,,,,,,,0,0,0,0,0,3,3,27,,,,,,,,,,,,,,5,3.9823901001363993,5,0.55,0.4,14.41717,return,1.726420600200072,,,,,,,,,,,,,,,,,p315,21,female,left_right_width,2025-12-02_15h03.11.598,exp1,2023.1.0,60.0131668912648,
,,,,,,,,,,,,,,,,5,8.35,9.175,10,10.825,11.65,0.825,0.575,0.25,3.55,10,match,36.05,301,331,361,390,420,9,9,9,9,9,,,,,,,0,0,0,0,0,4,4,20,,,,,,,,,,,,,,6,1.9900942000094801,6,0.25,0.25,9.01073,return,1.9890550002455711,,,,,,,,,,,,,,,,,p315,21,female,left_right_width,2025-12-02_15h03.11.598,exp1,2023.1.0,60.0131668912648,
,,,,,,,,,,,,,,,,5,8.2,9.1,10,10.9,11.8,0.9,0.5,0.4,4,10,initial,36.05,296,328,361,393,425,9,9,9,9,9,,,,,,,0,0,0,0,0,5,5,50,,,,,,,,,,,,,,6,1.2941371002234519,6,0.5,0.30000000000000004,10.81288,return,6.953508900012821,,,,,,,,,,,,,,,,,p315,21,female,left_right_width,2025-12-02_15h03.11.598,exp1,2023.1.0,60.0131668912648,
,,,,,,,,,,,,,,,,3,7.800000000000001,10,12.2,0,0,2.1999999999999997,1.7999999999999998,0.4,4.8,10,match,36.05,281,361,440,0,0,9,9,9,0,0,,,,,,,0,0,0,0,0,6,6,39,,,,,,,,,,,,,,4,1.892038500169292,4,0.5,0.30000000000000004,10.81288,return,1.4485363999847323,,,,,,,,,,,,,,,,,p315,21,female,left_right_width,2025-12-02_15h03.11.598,exp1,2023.1.0,60.0131668912648,
,,,,,,,,,,,,,,,,5,7.8,8.9,10,11.1,12.2,1.1,0.8500000000000001,0.25,4.65,10,initial,36.05,281,321,361,400,440,9,9,9,9,9,,,,,,,0,0,0,0,0,7,7,36,,,,,,,,,,,,,,6,2.991904100170359,6,0.55,0.25000000000000006,9.01073,return,3.3184370000381023,,,,,,,,,,,,,,,,,p315,21,female,left_right_width,2025-12-02_15h03.11.598,exp1,2023.1.0,60.0131668912648,
,,,,,,,,,,,,,,,,4,9.3,9.766666666666667,10.233333333333333,10.7,0,0.4666666666666667,0.06666666666666665,0.4,1.8,10,match,36.05,335,352,369,386,0,9,9,9,9,0,,,,,,,0,0,0,0,0,8,8,10,,,,,,,,,,,,,,5,3.6722757001407444,5,0.3,0.2,7.20859,return,0.9327464001253247,,,,,,,,,,,,,,,,,p315,21,female,left_right_width,2025-12-02_15h03.11.598,exp1,2023.1.0,60.0131668912648,
,,,,,,,,,,,,,,,,3,9.1,10,10.9,0,0,0.9,0.5,0.4,2.2,10,initial,36.05,328,361,393,0,0,9,9,9,0,0,,,,,,,0,0,0,0,0,9,9,15,,,,,,,,,,,,,,5,2.572407000232488,5,0.45,0.25000000000000006,9.01073,return,2.0209223001729697,,,,,,,,,,,,,,,,,p315,21,female,left_right_width,2025-12-02_15h03.11.598,exp1,2023.1.0,60.0131668912648,
,,,,,,,,,,,,,,,,4,8.35,9.45,10.55,11.65,0,1.1,0.8500000000000001,0.25,3.5500000000000003,10,initial,36.05,301,341,380,420,0,9,9,9,9,0,,,,,,,0,0,0,0,0,10,10,19,,,,,,,,,,,,,,4,1.547335100127384,4,0.3,0.15000000000000002,5.40644,return,0.9560512001626194,,,,,,,,,,,,,,,,,p315,21,female,left_right_width,2025-12-02_15h03.11.598,exp1,2023.1.0,60.0131668912648,
,,,,,,,,,,,,,,,,4,8.65,9.55,10.45,11.35,0,0.9,0.65,0.25,2.95,10,initial,36.05,312,344,377,409,0,9,9,9,9,0,,,,,,,0,0,0,0,0,11,11,30,,,,,,,,,,,,,,5,1.9261308000423014,5,0.25,0.2,7.20859,return,0.8888472001999617,,,,,,,,,,,,,,,,,p315,21,female,left_right_width,2025-12-02_15h03.11.598,exp1,2023.1.0,60.0131668912648,
,,,,,,,,,,,,,,,,3,8.9,10,11.1,0,0,1.1,0.55,0.55,2.75,10,initial,36.05,321,361,400,0,0,9,9,9,0,0,,,,,,,0,0,0,0,0,12,12,0,,,,,,,,,,,,,,4,2.4762395001016557,4,0.5,0.30000000000000004,10.81288,return,1.0957671001087874,,,,,,,,,,,,,,,,,p315,21,female,left_right_width,2025-12-02_15h03.11.598,exp1,2023.1.0,60.0131668912648,
,,,,,,,,,,,,,,,,3,9.3,10,10.7,0,0,0.7,0.44999999999999996,0.25,1.65,10,initial,36.05,335,361,386,0,0,9,9,9,0,0,,,,,,,0,0,0,0,0,13,13,7,,,,,,,,,,,,,,4,2.5052091001998633,4,0.25,0.2,7.20859,return,1.1079691001214087,,,,,,,,,,,,,,,,,p315,21,female,left_right_width,2025-12-02_15h03.11.598,exp1,2023.1.0,60.0131668912648,
,,,,,,,,,,,,,,,,5,8.95,9.475,10,10.525,11.05,0.525,0.275,0.25,2.35,10,match,36.05,323,342,361,379,398,9,9,9,9,9,,,,,,,0,0,0,0,0,14,14,25,,,,,,,,,,,,,,6,3.0885039002168924,6,0.25,0.15000000000000002,5.40644,return,1.2040443001314998,,,,,,,,,,,,,,,,,p315,21,female,left_right_width,2025-12-02_15h03.11.598,exp1,2023.1.0,60.0131668912648,
,,,,,,,,,,,,,,,,5,8.35,9.175,10,10.825,11.65,0.8250000000000001,0.275,0.55,3.85,10,match,36.05,301,331,361,390,420,9,9,9,9,9,,,,,,,0,0,0,0,0,15,15,18,,,,,,,,,,,,,,6,1.8608321000356227,6,0.3,0.44999999999999996,16.21932,return,2.7452849000692368,,,,,,,,,,,,,,,,,p315,21,female,left_right_width,2025-12-02_15h03.11.598,exp1,2023.1.0,60.0131668912648,
,,,,,,,,,,,,,,,,4,8.65,9.55,10.45,11.35,0,0.9,0.5,0.4,3.1,10,initial,36.05,312,344,377,409,0,9,9,9,9,0,,,,,,,0,0,0,0,0,16,16,32,,,,,,,,,,,,,,6,2.7604134001303464,6,0.35,0.39999999999999997,14.41717,return,1.8172311000525951,,,,,,,,,,,,,,,,,p315,21,female,left_right_width,2025-12-02_15h03.11.598,exp1,2023.1.0,60.0131668912648,
,,,,,,,,,,,,,,,,5,8.6,9.3,10,10.7,11.4,0.7,0.1499999999999999,0.55,3.3499999999999996,10,initial,36.05,310,335,361,386,411,9,9,9,9,9,,,,,,,0,0,0,0,0,17,17,40,,,,,,,,,,,,,,6,2.729770500212908,6,0.35,0.65,23.4279,return,3.804600100265816,,,,,,,,,,,,,,,,,p315,21,female,left_right_width,2025-12-02_15h03.11.598,exp1,2023.1.0,60.0131668912648,
,,,,,,,,,,,,,,,,3,9.3,10,10.7,0,0,0.7,0.1499999999999999,0.55,1.95,10,initial,36.05,335,361,386,0,0,9,9,9,0,0,,,,,,,0,0,0,0,0,18,18,6,,,,,,,,,,,,,,6,1.2703390000388026,6,0.55,0.55,19.82361,return,1.6510908000636846,,,,,,,,,,,,,,,,,p315,21,female,left_right_width,2025-12-02_15h03.11.598,exp1,2023.1.0,60.0131668912648,
,,,,,,,,,,,,,,,,4,8.65,9.55,10.45,11.35,0,0.9,0.35,0.55,3.25,10,initial,36.05,312,344,377,409,0,9,9,9,9,0,,,,,,,0,0,0,0,0,19,19,28,,,,,,,,,,,,,,6,1.5233313001226634,6,0.25,0.49999999999999994,18.02146,return,3.4289546001236886,,,,,,,,,,,,,,,,,p315,21,female,left_right_width,2025-12-02_15h03.11.598,exp1,2023.1.0,60.0131668912648,
,,,,,,,,,,,,,,,,4,8.825,9.608333333333333,10.391666666666667,11.175,0,0.7833333333333333,0.5333333333333333,0.25,2.6,10,match,36.05,318,346,375,403,0,9,9,9,9,0,,,,,,,0,0,0,0,0,20,20,5,,,,,,,,,,,,,,6,0.8572456000838429,6,0.2,0.25,9.01073,return,1.9902605002280325,,,,,,,,,,,,,,,,,p315,21,female,left_right_width,2025-12-02_15h03.11.598,exp1,2023.1.0,60.0131668912648,
,,,,,,,,,,,,,,,,5,7.8,8.9,10,11.1,12.2,1.1,0.55,0.55,4.95,10,initial,36.05,281,321,361,400,440,9,9,9,9,9,,,,,,,0,0,0,0,0,21,21,34,,,,,,,,,,,,,,7,1.929188400041312,7,0.25,0.49999999999999994,18.02146,return,2.9717168000061065,,,,,,,,,,,,,,,,,p315,21,female,left_right_width,2025-12-02_15h03.11.598,exp1,2023.1.0,60.0131668912648,
,,,,,,,,,,,,,,,,4,8.35,9.45,10.55,11.65,0,1.1,0.55,0.55,3.8500000000000005,10,initial,36.05,301,341,380,420,0,9,9,9,9,0,,,,,,,0,0,0,0,0,22,22,17,,,,,,,,,,,,,,4,1.901988900033757,4,0.4,0.5,18.02146,return,1.8401744002476335,,,,,,,,,,,,,,,,,p315,21,female,left_right_width,2025-12-02_15h03.11.598,exp1,2023.1.0,60.0131668912648,
,,,,,,,,,,,,,,,,4,8.95,9.65,10.35,11.05,0,0.7,0.44999999999999996,0.25,2.3499999999999996,10,initial,36.05,323,348,373,398,0,9,9,9,9,0,,,,,,,0,0,0,0,0,23,23,24,,,,,,,,,,,,,,5,2.8079810000490397,5,0.4,0.15000000000000008,5.40644,return,2.341652700211853,,,,,,,,,,,,,,,,,p315,21,female,left_right_width,2025-12-02_15h03.11.598,exp1,2023.1.0,60.0131668912648,
,,,,,,,,,,,,,,,,3,9.1,10,10.9,0,0,0.9,0.65,0.25,2.05,10,initial,36.05,328,361,393,0,0,9,9,9,0,0,,,,,,,0,0,0,0,0,24,24,13,,,,,,,,,,,,,,4,1.0514324000105262,4,0.55,0.20000000000000007,7.20859,return,2.7523502002004534,,,,,,,,,,,,,,,,,p315,21,female,left_right_width,2025-12-02_15h03.11.598,exp1,2023.1.0,60.0131668912648,
,,,,,,,,,,,,,,,,5,8.2,9.1,10,10.9,11.8,0.9,0.35,0.55,4.15,10,initial,36.05,296,328,361,393,425,9,9,9,9,9,,,,,,,0,0,0,0,0,25,25,46,,,,,,,,,,,,,,6,1.3656208000611514,6,0.55,0.5,18.02146,return,1.0058536001015455,,,,,,,,,,,,,,,,,p315,21,female,left_right_width,2025-12-02_15h03.11.598,exp1,2023.1.0,60.0131668912648,
,,,,,,,,,,,,,,,,5,8.65,9.325,10,10.675,11.35,0.675,0.125,0.55,3.25,10,match,36.05,312,336,361,385,409,9,9,9,9,9,,,,,,,0,0,0,0,0,26,26,29,,,,,,,,,,,,,,7,1.7896519999485463,7,0.55,0.5,18.02146,return,1.0769172001164407,,,,,,,,,,,,,,,,,p315,21,female,left_right_width,2025-12-02_15h03.11.598,exp1,2023.1.0,60.0131668912648,
,,,,,,,,,,,,,,,,5,8.2,9.1,10,10.9,11.8,0.9,0.65,0.25,3.85,10,initial,36.05,296,328,361,393,425,9,9,9,9,9,,,,,,,0,0,0,0,0,27,27,48,,,,,,,,,,,,,,6,5.38321250025183,6,0.35,0.15000000000000002,5.40644,return,1.1511874001007527,,,,,,,,,,,,,,,,,p315,21,female,left_right_width,2025-12-02_15h03.11.598,exp1,2023.1.0,60.0131668912648,
,,,,,,,,,,,,,,,,4,9.1,9.7,10.3,10.9,0,0.6,0.04999999999999997,0.55,2.35,10,match,36.05,328,350,371,393,0,9,9,9,9,0,,,,,,,0,0,0,0,0,28,28,12,,,,,,,,,,,,,,4,1.6186099001206458,4,0.3,0.44999999999999996,16.21932,return,1.5532477002125233,,,,,,,,,,,,,,,,,p315,21,female,left_right_width,2025-12-02_15h03.11.598,exp1,2023.1.0,60.0131668912648,
,,,,,,,,,,,,,,,,4,8.9,9.633333333333333,10.366666666666667,11.1,0,0.7333333333333333,0.18333333333333326,0.55,2.75,10,match,36.05,321,347,374,400,0,9,9,9,9,0,,,,,,,0,0,0,0,0,29,29,1,,,,,,,,,,,,,,5,0.9223463002126664,5,0.3,0.49999999999999994,18.02146,return,2.420099100098014,,,,,,,,,,,,,,,,,p315,21,female,left_right_width,2025-12-02_15h03.11.598,exp1,2023.1.0,60.0131668912648,
,,,,,,,,,,,,,,,,3,7.8,10,12.2,0,0,2.2,1.9500000000000002,0.25,4.65,10,match,36.05,281,361,440,0,0,9,9,9,0,0,,,,,,,0,0,0,0,0,30,30,37,,,,,,,,,,,,,,3,1.4464445002377033,3,0.35,0.25,9.01073,return,2.3965268000029027,,,,,,,,,,,,,,,,,p315,21,female,left_right_width,2025-12-02_15h03.11.598,exp1,2023.1.0,60.0131668912648,
,,,,,,,,,,,,,,,,3,8.2,10,11.8,0,0,1.7999999999999998,1.4,0.4,4,10,match,36.05,296,361,425,0,0,9,9,9,0,0,,,,,,,0,0,0,0,0,31,31,51,,,,,,,,,,,,,,2,0.8134781001135707,2,0.35,0.3,10.81288,return,1.2923718001693487,,,,,,,,,,,,,,,,,p315,21,female,left_right_width,2025-12-02_15h03.11.598,exp1,2023.1.0,60.0131668912648,
,,,,,,,,,,,,,,,,3,8.525,10,11.475,0,0,1.475,1.225,0.25,3.2,10,match,36.05,307,361,414,0,0,9,9,9,0,0,,,,,,,0,0,0,0,0,32,32,45,,,,,,,,,,,,,,3,0.9826596002094448,3,0.2,0.15000000000000002,5.40644,return,1.8693998001981527,,,,,,,,,,,,,,,,,p315,21,female,left_right_width,2025-12-02_15h03.11.598,exp1,2023.1.0,60.0131668912648,
,,,,,,,,,,,,,,,,5,8.6,9.3,10,10.7,11.4,0.7,0.29999999999999993,0.4,3.1999999999999997,10,initial,36.05,310,335,361,386,411,9,9,9,9,9,,,,,,,0,0,0,0,0,33,33,44,,,,,,,,,,,,,,4,0.9693211002741009,4,0.25,0.39999999999999997,14.41717,return,2.7536105001345277,,,,,,,,,,,,,,,,,p315,21,female,left_right_width,2025-12-02_15h03.11.598,exp1,2023.1.0,60.0131668912648,
,,,,,,,,,,,,,,,,5,8.65,9.325,10,10.675,11.35,0.675,0.42500000000000004,0.25,2.95,10,match,36.05,312,336,361,385,409,9,9,9,9,9,,,,,,,0,0,0,0,0,34,34,31,,,,,,,,,,,,,,5,3.2863582000136375,5,0.3,0.39999999999999997,14.41717,return,2.065133800264448,,,,,,,,,,,,,,,,,p315,21,female,left_right_width,2025-12-02_15h03.11.598,exp1,2023.1.0,60.0131668912648,
,,,,,,,,,,,,,,,,4,9.1,9.7,10.3,10.9,0,0.6000000000000001,0.20000000000000004,0.4,2.2,10,match,36.05,328,350,371,393,0,9,9,9,9,0,,,,,,,0,0,0,0,0,35,35,16,,,,,,,,,,,,,,4,2.0760103000793606,4,0.2,0.3,10.81288,return,1.8476925999857485,,,,,,,,,,,,,,,,,p315,21,female,left_right_width,2025-12-02_15h03.11.598,exp1,2023.1.0,60.0131668912648,
,,,,,,,,,,,,,,,,5,8.65,9.325,10,10.675,11.35,0.675,0.275,0.4,3.1,10,match,36.05,312,336,361,385,409,9,9,9,9,9,,,,,,,0,0,0,0,0,36,36,33,,,,,,,,,,,,,,6,2.1197017999365926,6,0.35,0.35,12.61502,return,1.2658594001550227,,,,,,,,,,,,,,,,,p315,21,female,left_right_width,2025-12-02_15h03.11.598,exp1,2023.1.0,60.0131668912648,
,,,,,,,,,,,,,,,,3,8.6,10,11.4,0,0,1.4,0.85,0.55,3.35,10,match,36.05,310,361,411,0,0,9,9,9,0,0,,,,,,,0,0,0,0,0,37,37,41,,,,,,,,,,,,,,3,1.4492246001027524,3,0.45,0.6500000000000001,23.4279,return,2.941994800232351,,,,,,,,,,,,,,,,,p315,21,female,left_right_width,2025-12-02_15h03.11.598,exp1,2023.1.0,60.0131668912648,
,,,,,,,,,,,,,,,,3,8.2,10,11.8,0,0,1.8,1.25,0.55,4.15,10,match,36.05,296,361,425,0,0,9,9,9,0,0,,,,,,,0,0,0,0,0,38,38,47,,,,,,,,,,,,,,3,1.1153596001677215,3,0.25,0.7000000000000001,25.23005,return,4.7661909002345055,,,,,,,,,,,,,,,,,p315,21,female,left_right_width,2025-12-02_15h03.11.598,exp1,2023.1.0,60.0131668912648,
,,,,,,,,,,,,,,,,3,7.8,10,12.2,0,0,2.2,1.65,0.55,4.95,10,match,36.05,281,361,440,0,0,9,9,9,0,0,,,,,,,0,0,0,0,0,39,39,35,,,,,,,,,,,,,,3,1.3338903000112623,3,0.3,0.6,21.62576,return,1.7768737999722362,,,,,,,,,,,,,,,,,p315,21,female,left_right_width,2025-12-02_15h03.11.598,exp1,2023.1.0,60.0131668912648,
,,,,,,,,,,,,,,,,3,8.9,10,11.1,0,0,1.1,0.7000000000000001,0.4,2.6000000000000005,10,initial,36.05,321,361,400,0,0,9,9,9,0,0,,,,,,,0,0,0,0,0,40,40,4,,,,,,,,,,,,,,3,1.874060200061649,3,0.55,0.6000000000000001,21.62576,return,1.1897150001022965,,,,,,,,,,,,,,,,,p315,21,female,left_right_width,2025-12-02_15h03.11.598,exp1,2023.1.0,60.0131668912648,
,,,,,,,,,,,,,,,,5,8.6,9.3,10,10.7,11.4,0.7,0.44999999999999996,0.25,3.05,10,initial,36.05,310,335,361,386,411,9,9,9,9,9,,,,,,,0,0,0,0,0,41,41,42,,,,,,,,,,,,,,4,1.535017300164327,4,0.25,0.2,7.20859,return,1.345333400182426,,,,,,,,,,,,,,,,,p315,21,female,left_right_width,2025-12-02_15h03.11.598,exp1,2023.1.0,60.0131668912648,
,,,,,,,,,,,,,,,,3,9.1,10,10.9,0,0,0.9,0.35,0.55,2.35,10,initial,36.05,328,361,393,0,0,9,9,9,0,0,,,,,,,0,0,0,0,0,42,42,11,,,,,,,,,,,,,,3,1.6822164000477642,3,0.5,0.6000000000000001,21.62576,return,2.9266207001637667,,,,,,,,,,,,,,,,,p315,21,female,left_right_width,2025-12-02_15h03.11.598,exp1,2023.1.0,60.0131668912648,
,,,,,,,,,,,,,,,,4,8.9,9.633333333333333,10.366666666666667,11.1,0,0.7333333333333334,0.4833333333333334,0.25,2.45,10,match,36.05,321,347,374,400,0,9,9,9,9,0,,,,,,,0,0,0,0,0,43,43,3,,,,,,,,,,,,,,3,1.33880570018664,3,0.2,0.15000000000000002,5.40644,return,0.8828792001586407,,,,,,,,,,,,,,,,,p315,21,female,left_right_width,2025-12-02_15h03.11.598,exp1,2023.1.0,60.0131668912648,
,,,,,,,,,,,,,,,,3,8.6,10,11.4,0,0,1.4,1.15,0.25,3.05,10,match,36.05,310,361,411,0,0,9,9,9,0,0,,,,,,,0,0,0,0,0,44,44,43,,,,,,,,,,,,,,3,1.2419399002101272,3,0.55,0.15000000000000008,5.40644,return,4.262703100219369,,,,,,,,,,,,,,,,,p315,21,female,left_right_width,2025-12-02_15h03.11.598,exp1,2023.1.0,60.0131668912648,
,,,,,,,,,,,,,,,,5,7.8,8.9,10,11.1,12.2,1.1,0.7000000000000001,0.4,4.800000000000001,10,initial,36.05,281,321,361,400,440,9,9,9,9,9,,,,,,,0,0,0,0,0,45,45,38,,,,,,,,,,,,,,4,1.3734852001070976,4,0.45,0.25000000000000006,9.01073,return,1.2376413000747561,,,,,,,,,,,,,,,,,p315,21,female,left_right_width,2025-12-02_15h03.11.598,exp1,2023.1.0,60.0131668912648,
,,,,,,,,,,,,,,,,4,8.95,9.65,10.35,11.05,0,0.7,0.29999999999999993,0.4,2.5,10,initial,36.05,323,348,373,398,0,9,9,9,9,0,,,,,,,0,0,0,0,0,46,46,26,,,,,,,,,,,,,,4,1.851856800261885,4,0.4,0.25000000000000006,9.01073,return,0.8952574001159519,,,,,,,,,,,,,,,,,p315,21,female,left_right_width,2025-12-02_15h03.11.598,exp1,2023.1.0,60.0131668912648,
,,,,,,,,,,,,,,,,3,8.2,10,11.8,0,0,1.8,1.55,0.25,3.85,10,match,36.05,296,361,425,0,0,9,9,9,0,0,,,,,,,0,0,0,0,0,47,47,49,,,,,,,,,,,,,,3,1.304259000113234,3,0.3,0.15000000000000002,5.40644,return,0.916041900170967,,,,,,,,,,,,,,,,,p315,21,female,left_right_width,2025-12-02_15h03.11.598,exp1,2023.1.0,60.0131668912648,
,,,,,,,,,,,,,,,,5,8.275,9.1375,10,10.8625,11.725,0.8625,0.6125,0.25,3.7,10,match,36.05,298,329,361,392,423,9,9,9,9,9,,,,,,,0,0,0,0,0,48,48,22,,,,,,,,,,,,,,6,2.204118400113657,6,0.45,0.15000000000000008,5.40644,return,1.650861400179565,,,,,,,,,,,,,,,,,p315,21,female,left_right_width,2025-12-02_15h03.11.598,exp1,2023.1.0,60.0131668912648,
,,,,,,,,,,,,,,,,4,8.35,9.45,10.55,11.65,0,1.1,0.7000000000000001,0.4,3.7,10,initial,36.05,301,341,380,420,0,9,9,9,9,0,,,,,,,0,0,0,0,0,49,49,21,,,,,,,,,,,,,,5,1.938864700263366,5,0.2,0.39999999999999997,14.41717,return,1.8435705001465976,,,,,,,,,,,,,,,,,p315,21,female,left_right_width,2025-12-02_15h03.11.598,exp1,2023.1.0,60.0131668912648,
,,,,,,,,,,,,,,,,4,9.1,9.7,10.3,10.9,0,0.5999999999999999,0.3499999999999999,0.25,2.05,10,match,36.05,328,350,371,393,0,9,9,9,9,0,,,,,,,0,0,0,0,0,50,50,14,,,,,,,,,,,,,,5,2.861002800054848,5,0.35,0.25,9.01073,return,0.9694422001484782,,,,,,,,,,,,,,,,,p315,21,female,left_right_width,2025-12-02_15h03.11.598,exp1,2023.1.0,60.0131668912648,
,,,,,,,,,,,,,,,,4,9.3,9.766666666666667,10.233333333333333,10.7,0,0.4666666666666667,0.21666666666666665,0.25,1.65,10,match,36.05,335,352,369,386,0,9,9,9,9,0,,,,,,,0,0,0,0,0,51,51,8,,,,,,,,,,,,,,4,1.8883481002412736,4,0.4,0.15000000000000008,5.40644,return,2.2436468002852052,,,,,,,,,,,,,,,,,p315,21,female,left_right_width,2025-12-02_15h03.11.598,exp1,2023.1.0,60.0131668912648,
,,,,,,,,,,,,,,,,,,,,,,,,,,,,,,,,,,,,,,,,,,,,,0,0,0,0,,,,,,,,,,,,,,,,,,,,,,,,,,,,1070.0879971999675,1070.0879971999675,1070.0879971999675,,,,,,,,,,,,p315,21,female,left_right_width,2025-12-02_15h03.11.598,exp1,2023.1.0,60.0131668912648,
,,,,,,,,,,,,,,,,3,9.3,10,10.7,0,0,0.7,0.1499999999999999,0.55,1.95,10,initial,36.05,335,361,386,0,0,9,9,9,0,0,,,,,,,1,0,1,0,0,0,0,6,,,,,,,,,,,,,,3,1.0544583001174033,3,0.55,0.55,19.82361,return,1.4581712002400309,,,,,,,,,,,,,,,,,p315,21,female,left_right_width,2025-12-02_15h03.11.598,exp1,2023.1.0,60.0131668912648,
,,,,,,,,,,,,,,,,5,8.6,9.3,10,10.7,11.4,0.7,0.44999999999999996,0.25,3.05,10,initial,36.05,310,335,361,386,411,9,9,9,9,9,,,,,,,1,0,1,0,0,1,1,42,,,,,,,,,,,,,,5,1.3911013000179082,5,0.25,0.2,7.20859,return,2.3906012000516057,,,,,,,,,,,,,,,,,p315,21,female,left_right_width,2025-12-02_15h03.11.598,exp1,2023.1.0,60.0131668912648,
,,,,,,,,,,,,,,,,4,8.825,9.608333333333333,10.391666666666667,11.175,0,0.7833333333333333,0.5333333333333333,0.25,2.6,10,match,36.05,318,346,375,403,0,9,9,9,9,0,,,,,,,1,0,1,0,0,2,2,5,,,,,,,,,,,,,,4,1.2135473003145307,4,0.55,0.20000000000000007,7.20859,return,1.884282800136134,,,,,,,,,,,,,,,,,p315,21,female,left_right_width,2025-12-02_15h03.11.598,exp1,2023.1.0,60.0131668912648,
,,,,,,,,,,,,,,,,4,9.1,9.7,10.3,10.9,0,0.6,0.04999999999999997,0.55,2.35,10,match,36.05,328,350,371,393,0,9,9,9,9,0,,,,,,,1,0,1,0,0,3,3,12,,,,,,,,,,,,,,4,1.5560937002301216,4,0.25,0.5499999999999999,19.82361,return,3.573118200292811,,,,,,,,,,,,,,,,,p315,21,female,left_right_width,2025-12-02_15h03.11.598,exp1,2023.1.0,60.0131668912648,
,,,,,,,,,,,,,,,,3,9.3,10,10.7,0,0,0.7,0.29999999999999993,0.4,1.8,10,initial,36.05,335,361,386,0,0,9,9,9,0,0,,,,,,,1,0,1,0,0,4,4,9,,,,,,,,,,,,,,4,1.6776571001391858,4,0.45,0.45,16.21932,return,3.72025110013783,,,,,,,,,,,,,,,,,p315,21,female,left_right_width,2025-12-02_15h03.11.598,exp1,2023.1.0,60.0131668912648,
,,,,,,,,,,,,,,,,3,8.2,10,11.8,0,0,1.7999999999999998,1.4,0.4,4,10,match,36.05,296,361,425,0,0,9,9,9,0,0,,,,,,,1,0,1,0,0,5,5,51,,,,,,,,,,,,,,4,1.4151686001569033,4,0.4,0.30000000000000004,10.81288,return,3.181966800009832,,,,,,,,,,,,,,,,,p315,21,female,left_right_width,2025-12-02_15h03.11.598,exp1,2023.1.0,60.0131668912648,
,,,,,,,,,,,,,,,,3,8.2,10,11.8,0,0,1.8,1.25,0.55,4.15,10,match,36.05,296,361,425,0,0,9,9,9,0,0,,,,,,,1,0,1,0,0,6,6,47,,,,,,,,,,,,,,3,3.8673318000510335,3,0.25,0.39999999999999997,14.41717,return,3.1195057001896203,,,,,,,,,,,,,,,,,p315,21,female,left_right_width,2025-12-02_15h03.11.598,exp1,2023.1.0,60.0131668912648,
,,,,,,,,,,,,,,,,5,8.65,9.325,10,10.675,11.35,0.675,0.125,0.55,3.25,10,match,36.05,312,336,361,385,409,9,9,9,9,9,,,,,,,1,0,1,0,0,7,7,29,,,,,,,,,,,,,,4,1.211654300102964,4,0.2,0.5499999999999999,19.82361,return,2.8742168999742717,,,,,,,,,,,,,,,,,p315,21,female,left_right_width,2025-12-02_15h03.11.598,exp1,2023.1.0,60.0131668912648,
,,,,,,,,,,,,,,,,5,8.95,9.475,10,10.525,11.05,0.525,0.275,0.25,2.35,10,match,36.05,323,342,361,379,398,9,9,9,9,9,,,,,,,1,0,1,0,0,8,8,25,,,,,,,,,,,,,,5,1.0855850002262741,5,0.2,0.2,7.20859,return,1.8729582999367267,,,,,,,,,,,,,,,,,p315,21,female,left_right_width,2025-12-02_15h03.11.598,exp1,2023.1.0,60.0131668912648,
,,,,,,,,,,,,,,,,5,8.65,9.325,10,10.675,11.35,0.675,0.42500000000000004,0.25,2.95,10,match,36.05,312,336,361,385,409,9,9,9,9,9,,,,,,,1,0,1,0,0,9,9,31,,,,,,,,,,,,,,6,0.8255519003141671,6,0.35,0.15000000000000002,5.40644,return,1.0309796000365168,,,,,,,,,,,,,,,,,p315,21,female,left_right_width,2025-12-02_15h03.11.598,exp1,2023.1.0,60.0131668912648,
,,,,,,,,,,,,,,,,4,9.1,9.7,10.3,10.9,0,0.6000000000000001,0.20000000000000004,0.4,2.2,10,match,36.05,328,350,371,393,0,9,9,9,9,0,,,,,,,1,0,1,0,0,10,10,16,,,,,,,,,,,,,,4,1.659882500069216,4,0.2,0.3,10.81288,return,1.0321639999747276,,,,,,,,,,,,,,,,,p315,21,female,left_right_width,2025-12-02_15h03.11.598,exp1,2023.1.0,60.0131668912648,
,,,,,,,,,,,,,,,,3,9.1,10,10.9,0,0,0.9,0.35,0.55,2.35,10,initial,36.05,328,361,393,0,0,9,9,9,0,0,,,,,,,1,0,1,0,0,11,11,11,,,,,,,,,,,,,,3,1.1522204002831131,3,0.4,0.35000000000000003,12.61502,return,0.8487746000755578,,,,,,,,,,,,,,,,,p315,21,female,left_right_width,2025-12-02_15h03.11.598,exp1,2023.1.0,60.0131668912648,
,,,,,,,,,,,,,,,,5,7.8,8.9,10,11.1,12.2,1.1,0.7000000000000001,0.4,4.800000000000001,10,initial,36.05,281,321,361,400,440,9,9,9,9,9,,,,,,,1,0,1,0,0,12,12,38,,,,,,,,,,,,,,6,2.4024566002190113,6,0.4,0.35000000000000003,12.61502,return,2.6562572000548244,,,,,,,,,,,,,,,,,p315,21,female,left_right_width,2025-12-02_15h03.11.598,exp1,2023.1.0,60.0131668912648,
,,,,,,,,,,,,,,,,3,7.8,10,12.2,0,0,2.2,1.9500000000000002,0.25,4.65,10,match,36.05,281,361,440,0,0,9,9,9,0,0,,,,,,,1,0,1,0,0,13,13,37,,,,,,,,,,,,,,3,1.488189300056547,3,0.2,0.15000000000000002,5.40644,return,1.170892700087279,,,,,,,,,,,,,,,,,p315,21,female,left_right_width,2025-12-02_15h03.11.598,exp1,2023.1.0,60.0131668912648,
,,,,,,,,,,,,,,,,4,9.1,9.7,10.3,10.9,0,0.5999999999999999,0.3499999999999999,0.25,2.05,10,match,36.05,328,350,371,393,0,9,9,9,9,0,,,,,,,1,0,1,0,0,14,14,14,,,,,,,,,,,,,,4,1.5327943002339453,4,0.35,0.2,7.20859,return,2.303068400127813,,,,,,,,,,,,,,,,,p315,21,female,left_right_width,2025-12-02_15h03.11.598,exp1,2023.1.0,60.0131668912648,
,,,,,,,,,,,,,,,,5,8.6,9.3,10,10.7,11.4,0.7,0.1499999999999999,0.55,3.3499999999999996,10,initial,36.05,310,335,361,386,411,9,9,9,9,9,,,,,,,1,0,1,0,0,15,15,40,,,,,,,,,,,,,,5,1.349141800077632,5,0.3,0.5499999999999999,19.82361,return,2.9431634000502527,,,,,,,,,,,,,,,,,p315,21,female,left_right_width,2025-12-02_15h03.11.598,exp1,2023.1.0,60.0131668912648,
,,,,,,,,,,,,,,,,3,9.1,10,10.9,0,0,0.9,0.5,0.4,2.2,10,initial,36.05,328,361,393,0,0,9,9,9,0,0,,,,,,,1,0,1,0,0,16,16,15,,,,,,,,,,,,,,4,1.2550965000409633,4,0.4,0.25000000000000006,9.01073,return,1.6518509001471102,,,,,,,,,,,,,,,,,p315,21,female,left_right_width,2025-12-02_15h03.11.598,exp1,2023.1.0,60.0131668912648,
,,,,,,,,,,,,,,,,5,8.35,9.175,10,10.825,11.65,0.8250000000000001,0.275,0.55,3.85,10,match,36.05,301,331,361,390,420,9,9,9,9,9,,,,,,,1,0,1,0,0,17,17,18,,,,,,,,,,,,,,5,1.4283484001643956,5,0.5,0.45,16.21932,return,1.5775116002187133,,,,,,,,,,,,,,,,,p315,21,female,left_right_width,2025-12-02_15h03.11.598,exp1,2023.1.0,60.0131668912648,
,,,,,,,,,,,,,,,,5,8.2,9.1,10,10.9,11.8,0.9,0.5,0.4,4,10,initial,36.05,296,328,361,393,425,9,9,9,9,9,,,,,,,1,0,1,0,0,18,18,50,,,,,,,,,,,,,,5,1.3617269000969827,5,0.35,0.35,12.61502,return,1.1145494000520557,,,,,,,,,,,,,,,,,p315,21,female,left_right_width,2025-12-02_15h03.11.598,exp1,2023.1.0,60.0131668912648,
,,,,,,,,,,,,,,,,3,7.800000000000001,10,12.2,0,0,2.1999999999999997,1.7999999999999998,0.4,4.8,10,match,36.05,281,361,440,0,0,9,9,9,0,0,,,,,,,1,0,1,0,0,19,19,39,,,,,,,,,,,,,,3,1.7877656002528965,3,0.4,0.35000000000000003,12.61502,return,2.209539500065148,,,,,,,,,,,,,,,,,p315,21,female,left_right_width,2025-12-02_15h03.11.598,exp1,2023.1.0,60.0131668912648,
,,,,,,,,,,,,,,,,4,8.65,9.55,10.45,11.35,0,0.9,0.5,0.4,3.1,10,initial,36.05,312,344,377,409,0,9,9,9,9,0,,,,,,,1,0,1,0,0,20,20,32,,,,,,,,,,,,,,5,1.245078400010243,5,0.25,0.39999999999999997,14.41717,return,2.665904700057581,,,,,,,,,,,,,,,,,p315,21,female,left_right_width,2025-12-02_15h03.11.598,exp1,2023.1.0,60.0131668912648,
,,,,,,,,,,,,,,,,3,8.6,10,11.4,0,0,1.4,1.15,0.25,3.05,10,match,36.05,310,361,411,0,0,9,9,9,0,0,,,,,,,1,0,1,0,0,21,21,43,,,,,,,,,,,,,,3,1.2133785001933575,3,0.4,0.15000000000000008,5.40644,return,2.3161228001117706,,,,,,,,,,,,,,,,,p315,21,female,left_right_width,2025-12-02_15h03.11.598,exp1,2023.1.0,60.0131668912648,
,,,,,,,,,,,,,,,,5,8.2,9.1,10,10.9,11.8,0.9,0.65,0.25,3.85,10,initial,36.05,296,328,361,393,425,9,9,9,9,9,,,,,,,1,0,1,0,0,22,22,48,,,,,,,,,,,,,,5,1.1743262999225408,5,0.2,0.15000000000000002,5.40644,return,1.4789972000289708,,,,,,,,,,,,,,,,,p315,21,female,left_right_width,2025-12-02_15h03.11.598,exp1,2023.1.0,60.0131668912648,
,,,,,,,,,,,,,,,,4,9.3,9.766666666666667,10.233333333333333,10.7,0,0.4666666666666667,0.06666666666666665,0.4,1.8,10,match,36.05,335,352,369,386,0,9,9,9,9,0,,,,,,,1,0,1,0,0,23,23,10,,,,,,,,,,,,,,4,1.3515496000181884,4,0.45,0.30000000000000004,10.81288,return,1.9844078000169247,,,,,,,,,,,,,,,,,p315,21,female,left_right_width,2025-12-02_15h03.11.598,exp1,2023.1.0,60.0131668912648,
,,,,,,,,,,,,,,,,4,8.65,9.55,10.45,11.35,0,0.9,0.35,0.55,3.25,10,initial,36.05,312,344,377,409,0,9,9,9,9,0,,,,,,,1,0,1,0,0,24,24,28,,,,,,,,,,,,,,5,1.2018818999640644,5,0.55,0.4,14.41717,return,1.232770300237462,,,,,,,,,,,,,,,,,p315,21,female,left_right_width,2025-12-02_15h03.11.598,exp1,2023.1.0,60.0131668912648,
,,,,,,,,,,,,,,,,5,8.275,9.1375,10,10.8625,11.725,0.8625,0.6125,0.25,3.7,10,match,36.05,298,329,361,392,423,9,9,9,9,9,,,,,,,1,0,1,0,0,25,25,22,,,,,,,,,,,,,,4,21.046894900035113,4,0.4,0.25000000000000006,9.01073,return,1.564427400007844,,,,,,,,,,,,,,,,,p315,21,female,left_right_width,2025-12-02_15h03.11.598,exp1,2023.1.0,60.0131668912648,
,,,,,,,,,,,,,,,,4,9.3,9.766666666666667,10.233333333333333,10.7,0,0.4666666666666667,0.21666666666666665,0.25,1.65,10,match,36.05,335,352,369,386,0,9,9,9,9,0,,,,,,,1,0,1,0,0,26,26,8,,,,,,,,,,,,,,4,1.3833281002007425,4,0.4,0.15000000000000008,5.40644,return,2.11325170006603,,,,,,,,,,,,,,,,,p315,21,female,left_right_width,2025-12-02_15h03.11.598,exp1,2023.1.0,60.0131668912648,
,,,,,,,,,,,,,,,,5,8.35,9.175,10,10.825,11.65,0.825,0.575,0.25,3.55,10,match,36.05,301,331,361,390,420,9,9,9,9,9,,,,,,,1,0,1,0,0,27,27,20,,,,,,,,,,,,,,5,1.5615860000252724,5,0.5,0.25000000000000006,9.01073,return,1.6900720000267029,,,,,,,,,,,,,,,,,p315,21,female,left_right_width,2025-12-02_15h03.11.598,exp1,2023.1.0,60.0131668912648,
,,,,,,,,,,,,,,,,4,8.35,9.45,10.55,11.65,0,1.1,0.8500000000000001,0.25,3.5500000000000003,10,initial,36.05,301,341,380,420,0,9,9,9,9,0,,,,,,,1,0,1,0,0,28,28,19,,,,,,,,,,,,,,5,1.7902272001374513,5,0.25,0.2,7.20859,return,1.1582514999900013,,,,,,,,,,,,,,,,,p315,21,female,left_right_width,2025-12-02_15h03.11.598,exp1,2023.1.0,60.0131668912648,
,,,,,,,,,,,,,,,,5,7.8,8.9,10,11.1,12.2,1.1,0.55,0.55,4.95,10,initial,36.05,281,321,361,400,440,9,9,9,9,9,,,,,,,1,0,1,0,0,29,29,34,,,,,,,,,,,,,,6,1.7762771002016962,6,0.4,0.35000000000000003,12.61502,return,0.9846742001827806,,,,,,,,,,,,,,,,,p315,21,female,left_right_width,2025-12-02_15h03.11.598,exp1,2023.1.0,60.0131668912648,
,,,,,,,,,,,,,,,,3,9.3,10,10.7,0,0,0.7,0.44999999999999996,0.25,1.65,10,initial,36.05,335,361,386,0,0,9,9,9,0,0,,,,,,,1,0,1,0,0,30,30,7,,,,,,,,,,,,,,3,1.22048330004327,3,0.3,0.15000000000000002,5.40644,return,0.9621780002489686,,,,,,,,,,,,,,,,,p315,21,female,left_right_width,2025-12-02_15h03.11.598,exp1,2023.1.0,60.0131668912648,
,,,,,,,,,,,,,,,,4,8.9,9.633333333333333,10.366666666666667,11.1,0,0.7333333333333334,0.4833333333333334,0.25,2.45,10,match,36.05,321,347,374,400,0,9,9,9,9,0,,,,,,,1,0,1,0,0,31,31,3,,,,,,,,,,,,,,4,1.3909387001767755,4,0.55,0.20000000000000007,7.20859,return,2.1507811001501977,,,,,,,,,,,,,,,,,p315,21,female,left_right_width,2025-12-02_15h03.11.598,exp1,2023.1.0,60.0131668912648,
,,,,,,,,,,,,,,,,3,8.9,10,11.1,0,0,1.1,0.55,0.55,2.75,10,initial,36.05,321,361,400,0,0,9,9,9,0,0,,,,,,,1,0,1,0,0,32,32,0,,,,,,,,,,,,,,3,1.168981300201267,3,0.25,0.49999999999999994,18.02146,return,1.5852560999337584,,,,,,,,,,,,,,,,,p315,21,female,left_right_width,2025-12-02_15h03.11.598,exp1,2023.1.0,60.0131668912648,
,,,,,,,,,,,,,,,,3,8.9,10,11.1,0,0,1.1,0.8500000000000001,0.25,2.45,10,initial,36.05,321,361,400,0,0,9,9,9,0,0,,,,,,,1,0,1,0,0,33,33,2,,,,,,,,,,,,,,2,0.9596995001193136,2,0.2,0.3,10.81288,return,1.3995856000110507,,,,,,,,,,,,,,,,,p315,21,female,left_right_width,2025-12-02_15h03.11.598,exp1,2023.1.0,60.0131668912648,
,,,,,,,,,,,,,,,,4,8.35,9.45,10.55,11.65,0,1.1,0.55,0.55,3.8500000000000005,10,initial,36.05,301,341,380,420,0,9,9,9,9,0,,,,,,,1,0,1,0,0,34,34,17,,,,,,,,,,,,,,3,1.0316272999625653,3,0.5,0.5,18.02146,return,1.80591360013932,,,,,,,,,,,,,,,,,p315,21,female,left_right_width,2025-12-02_15h03.11.598,exp1,2023.1.0,60.0131668912648,
,,,,,,,,,,,,,,,,3,8.9,10,11.1,0,0,1.1,0.7000000000000001,0.4,2.6000000000000005,10,initial,36.05,321,361,400,0,0,9,9,9,0,0,,,,,,,1,0,1,0,0,35,35,4,,,,,,,,,,,,,,2,1.0938430002424866,2,0.35,0.44999999999999996,16.21932,return,1.5133731001988053,,,,,,,,,,,,,,,,,p315,21,female,left_right_width,2025-12-02_15h03.11.598,exp1,2023.1.0,60.0131668912648,
,,,,,,,,,,,,,,,,4,8.35,9.45,10.55,11.65,0,1.1,0.7000000000000001,0.4,3.7,10,initial,36.05,301,341,380,420,0,9,9,9,9,0,,,,,,,1,0,1,0,0,36,36,21,,,,,,,,,,,,,,4,1.0178441000171006,4,0.4,0.45,16.21932,return,0.9919239000882953,,,,,,,,,,,,,,,,,p315,21,female,left_right_width,2025-12-02_15h03.11.598,exp1,2023.1.0,60.0131668912648,
,,,,,,,,,,,,,,,,5,8.95,9.475,10,10.525,11.05,0.525,0.125,0.4,2.5,10,match,36.05,323,342,361,379,398,9,9,9,9,9,,,,,,,1,0,1,0,0,37,37,27,,,,,,,,,,,,,,5,1.2255503002088517,5,0.5,0.30000000000000004,10.81288,return,0.9345490001142025,,,,,,,,,,,,,,,,,p315,21,female,left_right_width,2025-12-02_15h03.11.598,exp1,2023.1.0,60.0131668912648,
,,,,,,,,,,,,,,,,5,7.8,8.9,10,11.1,12.2,1.1,0.8500000000000001,0.25,4.65,10,initial,36.05,281,321,361,400,440,9,9,9,9,9,,,,,,,1,0,1,0,0,38,38,36,,,,,,,,,,,,,,5,1.2473586001433432,5,0.3,0.15000000000000002,5.40644,return,1.516131300246343,,,,,,,,,,,,,,,,,p315,21,female,left_right_width,2025-12-02_15h03.11.598,exp1,2023.1.0,60.0131668912648,
,,,,,,,,,,,,,,,,3,7.8,10,12.2,0,0,2.2,1.65,0.55,4.95,10,match,36.05,281,361,440,0,0,9,9,9,0,0,,,,,,,1,0,1,0,0,39,39,35,,,,,,,,,,,,,,3,1.2414036002010107,3,0.5,0.8000000000000003,28.83434,return,2.374110500095412,,,,,,,,,,,,,,,,,p315,21,female,left_right_width,2025-12-02_15h03.11.598,exp1,2023.1.0,60.0131668912648,
,,,,,,,,,,,,,,,,3,9.1,10,10.9,0,0,0.9,0.65,0.25,2.05,10,initial,36.05,328,361,393,0,0,9,9,9,0,0,,,,,,,1,0,1,0,0,40,40,13,,,,,,,,,,,,,,2,1.1569775000680238,2,0.5,0.10000000000000007,3.60429,return,2.772225000197068,,,,,,,,,,,,,,,,,p315,21,female,left_right_width,2025-12-02_15h03.11.598,exp1,2023.1.0,60.0131668912648,
,,,,,,,,,,,,,,,,5,8.6,9.3,10,10.7,11.4,0.7,0.29999999999999993,0.4,3.1999999999999997,10,initial,36.05,310,335,361,386,411,9,9,9,9,9,,,,,,,1,0,1,0,0,41,41,44,,,,,,,,,,,,,,4,1.261915400158614,4,0.25,0.39999999999999997,14.41717,return,2.298197700176388,,,,,,,,,,,,,,,,,p315,21,female,left_right_width,2025-12-02_15h03.11.598,exp1,2023.1.0,60.0131668912648,
,,,,,,,,,,,,,,,,4,8.95,9.65,10.35,11.05,0,0.7,0.1499999999999999,0.55,2.65,10,initial,36.05,323,348,373,398,0,9,9,9,9,0,,,,,,,1,0,1,0,0,42,42,23,,,,,,,,,,,,,,5,1.1983497000765055,5,0.3,0.5499999999999999,19.82361,return,1.7895853000227362,,,,,,,,,,,,,,,,,p315,21,female,left_right_width,2025-12-02_15h03.11.598,exp1,2023.1.0,60.0131668912648,
,,,,,,,,,,,,,,,,4,8.65,9.55,10.45,11.35,0,0.9,0.65,0.25,2.95,10,initial,36.05,312,344,377,409,0,9,9,9,9,0,,,,,,,1,0,1,0,0,43,43,30,,,,,,,,,,,,,,4,1.5825076000764966,4,0.25,0.35,12.61502,return,26.524987200042233,,,,,,,,,,,,,,,,,p315,21,female,left_right_width,2025-12-02_15h03.11.598,exp1,2023.1.0,60.0131668912648,
,,,,,,,,,,,,,,,,5,8.2,9.1,10,10.9,11.8,0.9,0.35,0.55,4.15,10,initial,36.05,296,328,361,393,425,9,9,9,9,9,,,,,,,1,0,1,0,0,44,44,46,,,,,,,,,,,,,,6,1.3382006001193076,6,0.25,0.6,21.62576,return,2.4346424001269042,,,,,,,,,,,,,,,,,p315,21,female,left_right_width,2025-12-02_15h03.11.598,exp1,2023.1.0,60.0131668912648,
,,,,,,,,,,,,,,,,4,8.95,9.65,10.35,11.05,0,0.7,0.44999999999999996,0.25,2.3499999999999996,10,initial,36.05,323,348,373,398,0,9,9,9,9,0,,,,,,,1,0,1,0,0,45,45,24,,,,,,,,,,,,,,4,1.173594299936667,4,0.35,0.15000000000000002,5.40644,return,1.4133780000265688,,,,,,,,,,,,,,,,,p315,21,female,left_right_width,2025-12-02_15h03.11.598,exp1,2023.1.0,60.0131668912648,
,,,,,,,,,,,,,,,,3,8.525,10,11.475,0,0,1.475,1.225,0.25,3.2,10,match,36.05,307,361,414,0,0,9,9,9,0,0,,,,,,,1,0,1,0,0,46,46,45,,,,,,,,,,,,,,3,1.2351208000909537,3,0.25,0.15000000000000002,5.40644,return,1.761236400110647,,,,,,,,,,,,,,,,,p315,21,female,left_right_width,2025-12-02_15h03.11.598,exp1,2023.1.0,60.0131668912648,
,,,,,,,,,,,,,,,,3,8.6,10,11.4,0,0,1.4,0.85,0.55,3.35,10,match,36.05,310,361,411,0,0,9,9,9,0,0,,,,,,,1,0,1,0,0,47,47,41,,,,,,,,,,,,,,3,1.2616457003168762,3,0.4,0.4,14.41717,return,1.1309791002422571,,,,,,,,,,,,,,,,,p315,21,female,left_right_width,2025-12-02_15h03.11.598,exp1,2023.1.0,60.0131668912648,
,,,,,,,,,,,,,,,,5,8.65,9.325,10,10.675,11.35,0.675,0.275,0.4,3.1,10,match,36.05,312,336,361,385,409,9,9,9,9,9,,,,,,,1,0,1,0,0,48,48,33,,,,,,,,,,,,,,5,1.1615830000955611,5,0.2,0.44999999999999996,16.21932,return,2.762288600206375,,,,,,,,,,,,,,,,,p315,21,female,left_right_width,2025-12-02_15h03.11.598,exp1,2023.1.0,60.0131668912648,
,,,,,,,,,,,,,,,,4,8.95,9.65,10.35,11.05,0,0.7,0.29999999999999993,0.4,2.5,10,initial,36.05,323,348,373,398,0,9,9,9,9,0,,,,,,,1,0,1,0,0,49,49,26,,,,,,,,,,,,,,4,1.3263235001359135,4,0.35,0.44999999999999996,16.21932,return,1.3037787002976984,,,,,,,,,,,,,,,,,p315,21,female,left_right_width,2025-12-02_15h03.11.598,exp1,2023.1.0,60.0131668912648,
,,,,,,,,,,,,,,,,3,8.2,10,11.8,0,0,1.8,1.55,0.25,3.85,10,match,36.05,296,361,425,0,0,9,9,9,0,0,,,,,,,1,0,1,0,0,50,50,49,,,,,,,,,,,,,,3,1.322977300034836,3,0.45,0.15000000000000008,5.40644,return,2.8043329000938684,,,,,,,,,,,,,,,,,p315,21,female,left_right_width,2025-12-02_15h03.11.598,exp1,2023.1.0,60.0131668912648,
,,,,,,,,,,,,,,,,4,8.9,9.633333333333333,10.366666666666667,11.1,0,0.7333333333333333,0.18333333333333326,0.55,2.75,10,match,36.05,321,347,374,400,0,9,9,9,9,0,,,,,,,1,0,1,0,0,51,51,1,,,,,,,,,,,,,,3,1.125696999952197,3,0.25,0.5499999999999999,19.82361,return,3.688372200122103,,,,,,,,,,,,,,,,,p315,21,female,left_right_width,2025-12-02_15h03.11.598,exp1,2023.1.0,60.0131668912648,
,,,,,,,,,,,,,,,,,,,,,,,,,,,,,,,,,,,,,,,,,,,,,1,0,1,0,,,,,,,,,,,,,,,,,,,,,,,,,,,,1427.838117300067,1427.838117300067,1427.838117300067,,,,,,,,,,,,p315,21,female,left_right_width,2025-12-02_15h03.11.598,exp1,2023.1.0,60.0131668912648,
,,,,,,,,,,,,,,,,4,8.35,9.45,10.55,11.65,0,1.1,0.7000000000000001,0.4,3.7,10,initial,36.05,301,341,380,420,0,9,9,9,9,0,,,,,,,2,0,2,0,0,0,0,21,,,,,,,,,,,,,,4,1.1601762999780476,4,0.5,0.25000000000000006,9.01073,return,1.273350000148639,,,,,,,,,,,,,,,,,p315,21,female,left_right_width,2025-12-02_15h03.11.598,exp1,2023.1.0,60.0131668912648,
,,,,,,,,,,,,,,,,4,8.9,9.633333333333333,10.366666666666667,11.1,0,0.7333333333333333,0.18333333333333326,0.55,2.75,10,match,36.05,321,347,374,400,0,9,9,9,9,0,,,,,,,2,0,2,0,0,1,1,1,,,,,,,,,,,,,,4,1.2952891001477838,4,0.4,0.6500000000000001,23.4279,return,1.1147012002766132,,,,,,,,,,,,,,,,,p315,21,female,left_right_width,2025-12-02_15h03.11.598,exp1,2023.1.0,60.0131668912648,
,,,,,,,,,,,,,,,,4,8.825,9.608333333333333,10.391666666666667,11.175,0,0.7833333333333333,0.5333333333333333,0.25,2.6,10,match,36.05,318,346,375,403,0,9,9,9,9,0,,,,,,,2,0,2,0,0,2,2,5,,,,,,,,,,,,,,4,1.5256316000595689,4,0.35,0.15000000000000002,5.40644,return,0.9185297002550215,,,,,,,,,,,,,,,,,p315,21,female,left_right_width,2025-12-02_15h03.11.598,exp1,2023.1.0,60.0131668912648,
,,,,,,,,,,,,,,,,5,8.35,9.175,10,10.825,11.65,0.825,0.575,0.25,3.55,10,match,36.05,301,331,361,390,420,9,9,9,9,9,,,,,,,2,0,2,0,0,3,3,20,,,,,,,,,,,,,,6,1.2098957002162933,6,0.5,0.15000000000000008,5.40644,return,2.647707600146532,,,,,,,,,,,,,,,,,p315,21,female,left_right_width,2025-12-02_15h03.11.598,exp1,2023.1.0,60.0131668912648,
,,,,,,,,,,,,,,,,5,8.65,9.325,10,10.675,11.35,0.675,0.42500000000000004,0.25,2.95,10,match,36.05,312,336,361,385,409,9,9,9,9,9,,,,,,,2,0,2,0,0,4,4,31,,,,,,,,,,,,,,6,1.732995199970901,6,0.55,0.15000000000000008,5.40644,return,2.6239076000638306,,,,,,,,,,,,,,,,,p315,21,female,left_right_width,2025-12-02_15h03.11.598,exp1,2023.1.0,60.0131668912648,
,,,,,,,,,,,,,,,,3,8.2,10,11.8,0,0,1.7999999999999998,1.4,0.4,4,10,match,36.05,296,361,425,0,0,9,9,9,0,0,,,,,,,2,0,2,0,0,5,5,51,,,,,,,,,,,,,,3,1.3628810001537204,3,0.5,0.35000000000000003,12.61502,return,0.9229425999801606,,,,,,,,,,,,,,,,,p315,21,female,left_right_width,2025-12-02_15h03.11.598,exp1,2023.1.0,60.0131668912648,
,,,,,,,,,,,,,,,,3,9.1,10,10.9,0,0,0.9,0.5,0.4,2.2,10,initial,36.05,328,361,393,0,0,9,9,9,0,0,,,,,,,2,0,2,0,0,6,6,15,,,,,,,,,,,,,,3,1.535754500189796,3,0.3,0.25,9.01073,return,0.881171400193125,,,,,,,,,,,,,,,,,p315,21,female,left_right_width,2025-12-02_15h03.11.598,exp1,2023.1.0,60.0131668912648,
,,,,,,,,,,,,,,,,4,8.95,9.65,10.35,11.05,0,0.7,0.44999999999999996,0.25,2.3499999999999996,10,initial,36.05,323,348,373,398,0,9,9,9,9,0,,,,,,,2,0,2,0,0,7,7,24,,,,,,,,,,,,,,4,1.098755800165236,4,0.45,0.20000000000000007,7.20859,return,1.24639380001463,,,,,,,,,,,,,,,,,p315,21,female,left_right_width,2025-12-02_15h03.11.598,exp1,2023.1.0,60.0131668912648,
,,,,,,,,,,,,,,,,4,9.1,9.7,10.3,10.9,0,0.6,0.04999999999999997,0.55,2.35,10,match,36.05,328,350,371,393,0,9,9,9,9,0,,,,,,,2,0,2,0,0,8,8,12,,,,,,,,,,,,,,3,1.3737075000535697,3,0.25,0.5499999999999999,19.82361,return,1.989516600035131,,,,,,,,,,,,,,,,,p315,21,female,left_right_width,2025-12-02_15h03.11.598,exp1,2023.1.0,60.0131668912648,
,,,,,,,,,,,,,,,,5,7.8,8.9,10,11.1,12.2,1.1,0.8500000000000001,0.25,4.65,10,initial,36.05,281,321,361,400,440,9,9,9,9,9,,,,,,,2,0,2,0,0,9,9,36,,,,,,,,,,,,,,5,1.2718629001174122,5,0.3,0.2,7.20859,return,0.7875603002030402,,,,,,,,,,,,,,,,,p315,21,female,left_right_width,2025-12-02_15h03.11.598,exp1,2023.1.0,60.0131668912648,
,,,,,,,,,,,,,,,,3,8.2,10,11.8,0,0,1.8,1.55,0.25,3.85,10,match,36.05,296,361,425,0,0,9,9,9,0,0,,,,,,,2,0,2,0,0,10,10,49,,,,,,,,,,,,,,2,1.1951451001223177,2,0.5,0.20000000000000007,7.20859,return,1.3058577002957463,,,,,,,,,,,,,,,,,p315,21,female,left_right_width,2025-12-02_15h03.11.598,exp1,2023.1.0,60.0131668912648,
,,,,,,,,,,,,,,,,5,8.6,9.3,10,10.7,11.4,0.7,0.44999999999999996,0.25,3.05,10,initial,36.05,310,335,361,386,411,9,9,9,9,9,,,,,,,2,0,2,0,0,11,11,42,,,,,,,,,,,,,,5,1.4102221000939608,5,0.25,0.15000000000000002,5.40644,return,0.9686644000466913,,,,,,,,,,,,,,,,,p315,21,female,left_right_width,2025-12-02_15h03.11.598,exp1,2023.1.0,60.0131668912648,
,,,,,,,,,,,,,,,,3,8.9,10,11.1,0,0,1.1,0.55,0.55,2.75,10,initial,36.05,321,361,400,0,0,9,9,9,0,0,,,,,,,2,0,2,0,0,12,12,0,,,,,,,,,,,,,,2,1.2573442999273539,2,0.5,0.6500000000000001,23.4279,return,0.8538633002899587,,,,,,,,,,,,,,,,,p315,21,female,left_right_width,2025-12-02_15h03.11.598,exp1,2023.1.0,60.0131668912648,
,,,,,,,,,,,,,,,,4,8.35,9.45,10.55,11.65,0,1.1,0.55,0.55,3.8500000000000005,10,initial,36.05,301,341,380,420,0,9,9,9,9,0,,,,,,,2,0,2,0,0,13,13,17,,,,,,,,,,,,,,4,1.3011315001640469,4,0.5,0.6000000000000001,21.62576,return,1.6157110002823174,,,,,,,,,,,,,,,,,p315,21,female,left_right_width,2025-12-02_15h03.11.598,exp1,2023.1.0,60.0131668912648,
,,,,,,,,,,,,,,,,4,9.1,9.7,10.3,10.9,0,0.6000000000000001,0.20000000000000004,0.4,2.2,10,match,36.05,328,350,371,393,0,9,9,9,9,0,,,,,,,2,0,2,0,0,14,14,16,,,,,,,,,,,,,,3,1.1189302001148462,3,0.55,0.45,16.21932,return,0.8343792001251131,,,,,,,,,,,,,,,,,p315,21,female,left_right_width,2025-12-02_15h03.11.598,exp1,2023.1.0,60.0131668912648,
,,,,,,,,,,,,,,,,5,8.6,9.3,10,10.7,11.4,0.7,0.1499999999999999,0.55,3.3499999999999996,10,initial,36.05,310,335,361,386,411,9,9,9,9,9,,,,,,,2,0,2,0,0,15,15,40,,,,,,,,,,,,,,4,1.1864135002251714,4,0.25,0.49999999999999994,18.02146,return,1.8908318001776934,,,,,,,,,,,,,,,,,p315,21,female,left_right_width,2025-12-02_15h03.11.598,exp1,2023.1.0,60.0131668912648,
,,,,,,,,,,,,,,,,5,7.8,8.9,10,11.1,12.2,1.1,0.7000000000000001,0.4,4.800000000000001,10,initial,36.05,281,321,361,400,440,9,9,9,9,9,,,,,,,2,0,2,0,0,16,16,38,,,,,,,,,,,,,,5,1.1677882999647409,5,0.45,0.55,19.82361,return,0.9121902000624686,,,,,,,,,,,,,,,,,p315,21,female,left_right_width,2025-12-02_15h03.11.598,exp1,2023.1.0,60.0131668912648,
,,,,,,,,,,,,,,,,3,8.6,10,11.4,0,0,1.4,1.15,0.25,3.05,10,match,36.05,310,361,411,0,0,9,9,9,0,0,,,,,,,2,0,2,0,0,17,17,43,,,,,,,,,,,,,,3,1.2621597000397742,3,0.55,0.15000000000000008,5.40644,return,2.5395176000893116,,,,,,,,,,,,,,,,,p315,21,female,left_right_width,2025-12-02_15h03.11.598,exp1,2023.1.0,60.0131668912648,
,,,,,,,,,,,,,,,,3,8.525,10,11.475,0,0,1.475,1.225,0.25,3.2,10,match,36.05,307,361,414,0,0,9,9,9,0,0,,,,,,,2,0,2,0,0,18,18,45,,,,,,,,,,,,,,3,0.6734799002297223,3,0.4,0.15000000000000008,5.40644,return,1.1901635001413524,,,,,,,,,,,,,,,,,p315,21,female,left_right_width,2025-12-02_15h03.11.598,exp1,2023.1.0,60.0131668912648,
,,,,,,,,,,,,,,,,4,8.95,9.65,10.35,11.05,0,0.7,0.1499999999999999,0.55,2.65,10,initial,36.05,323,348,373,398,0,9,9,9,9,0,,,,,,,2,0,2,0,0,19,19,23,,,,,,,,,,,,,,3,1.1593900001607835,3,0.4,0.4,14.41717,return,1.6403171001002192,,,,,,,,,,,,,,,,,p315,21,female,left_right_width,2025-12-02_15h03.11.598,exp1,2023.1.0,60.0131668912648,
,,,,,,,,,,,,,,,,5,8.95,9.475,10,10.525,11.05,0.525,0.125,0.4,2.5,10,match,36.05,323,342,361,379,398,9,9,9,9,9,,,,,,,2,0,2,0,0,20,20,27,,,,,,,,,,,,,,4,1.1440160002093762,4,0.3,0.49999999999999994,18.02146,return,2.0567118001636118,,,,,,,,,,,,,,,,,p315,21,female,left_right_width,2025-12-02_15h03.11.598,exp1,2023.1.0,60.0131668912648,
,,,,,,,,,,,,,,,,3,9.3,10,10.7,0,0,0.7,0.44999999999999996,0.25,1.65,10,initial,36.05,335,361,386,0,0,9,9,9,0,0,,,,,,,2,0,2,0,0,21,21,7,,,,,,,,,,,,,,2,1.1397567000240088,2,0.55,0.20000000000000007,7.20859,return,2.197067800210789,,,,,,,,,,,,,,,,,p315,21,female,left_right_width,2025-12-02_15h03.11.598,exp1,2023.1.0,60.0131668912648,
,,,,,,,,,,,,,,,,4,8.35,9.45,10.55,11.65,0,1.1,0.8500000000000001,0.25,3.5500000000000003,10,initial,36.05,301,341,380,420,0,9,9,9,9,0,,,,,,,2,0,2,0,0,22,22,19,,,,,,,,,,,,,,4,0.9869505001697689,4,0.25,0.15000000000000002,5.40644,return,1.010301399976015,,,,,,,,,,,,,,,,,p315,21,female,left_right_width,2025-12-02_15h03.11.598,exp1,2023.1.0,60.0131668912648,
,,,,,,,,,,,,,,,,3,7.800000000000001,10,12.2,0,0,2.1999999999999997,1.7999999999999998,0.4,4.8,10,match,36.05,281,361,440,0,0,9,9,9,0,0,,,,,,,2,0,2,0,0,23,23,39,,,,,,,,,,,,,,3,1.1312218999955803,3,0.55,0.30000000000000004,10.81288,return,1.3247926000040025,,,,,,,,,,,,,,,,,p315,21,female,left_right_width,2025-12-02_15h03.11.598,exp1,2023.1.0,60.0131668912648,
,,,,,,,,,,,,,,,,3,9.1,10,10.9,0,0,0.9,0.65,0.25,2.05,10,initial,36.05,328,361,393,0,0,9,9,9,0,0,,,,,,,2,0,2,0,0,24,24,13,,,,,,,,,,,,,,3,0.9636369000654668,3,0.5,0.20000000000000007,7.20859,return,1.5008636000566185,,,,,,,,,,,,,,,,,p315,21,female,left_right_width,2025-12-02_15h03.11.598,exp1,2023.1.0,60.0131668912648,
,,,,,,,,,,,,,,,,3,9.1,10,10.9,0,0,0.9,0.35,0.55,2.35,10,initial,36.05,328,361,393,0,0,9,9,9,0,0,,,,,,,2,0,2,0,0,25,25,11,,,,,,,,,,,,,,2,1.077166800154373,2,0.35,0.49999999999999994,18.02146,return,1.4963364999275655,,,,,,,,,,,,,,,,,p315,21,female,left_right_width,2025-12-02_15h03.11.598,exp1,2023.1.0,60.0131668912648,
,,,,,,,,,,,,,,,,5,8.35,9.175,10,10.825,11.65,0.8250000000000001,0.275,0.55,3.85,10,match,36.05,301,331,361,390,420,9,9,9,9,9,,,,,,,2,0,2,0,0,26,26,18,,,,,,,,,,,,,,4,1.085928700165823,4,0.5,0.55,19.82361,return,0.8496713002678007,,,,,,,,,,,,,,,,,p315,21,female,left_right_width,2025-12-02_15h03.11.598,exp1,2023.1.0,60.0131668912648,
,,,,,,,,,,,,,,,,3,8.9,10,11.1,0,0,1.1,0.8500000000000001,0.25,2.45,10,initial,36.05,321,361,400,0,0,9,9,9,0,0,,,,,,,2,0,2,0,0,27,27,2,,,,,,,,,,,,,,3,1.4881480999756604,3,0.2,0.15000000000000002,5.40644,return,0.7873478000983596,,,,,,,,,,,,,,,,,p315,21,female,left_right_width,2025-12-02_15h03.11.598,exp1,2023.1.0,60.0131668912648,
,,,,,,,,,,,,,,,,3,8.2,10,11.8,0,0,1.8,1.25,0.55,4.15,10,match,36.05,296,361,425,0,0,9,9,9,0,0,,,,,,,2,0,2,0,0,28,28,47,,,,,,,,,,,,,,3,1.0830119003076106,3,0.45,0.6000000000000001,21.62576,return,0.8634160000365227,,,,,,,,,,,,,,,,,p315,21,female,left_right_width,2025-12-02_15h03.11.598,exp1,2023.1.0,60.0131668912648,
,,,,,,,,,,,,,,,,5,8.65,9.325,10,10.675,11.35,0.675,0.275,0.4,3.1,10,match,36.05,312,336,361,385,409,9,9,9,9,9,,,,,,,2,0,2,0,0,29,29,33,,,,,,,,,,,,,,4,0.8137455000542104,4,0.35,0.39999999999999997,14.41717,return,1.2761489001568407,,,,,,,,,,,,,,,,,p315,21,female,left_right_width,2025-12-02_15h03.11.598,exp1,2023.1.0,60.0131668912648,
,,,,,,,,,,,,,,,,3,8.6,10,11.4,0,0,1.4,0.85,0.55,3.35,10,match,36.05,310,361,411,0,0,9,9,9,0,0,,,,,,,2,0,2,0,0,30,30,41,,,,,,,,,,,,,,2,1.1494784001260996,2,0.35,0.44999999999999996,16.21932,return,1.6133888999465853,,,,,,,,,,,,,,,,,p315,21,female,left_right_width,2025-12-02_15h03.11.598,exp1,2023.1.0,60.0131668912648,
,,,,,,,,,,,,,,,,4,9.3,9.766666666666667,10.233333333333333,10.7,0,0.4666666666666667,0.06666666666666665,0.4,1.8,10,match,36.05,335,352,369,386,0,9,9,9,9,0,,,,,,,2,0,2,0,0,31,31,10,,,,,,,,,,,,,,3,1.0302977000828832,3,0.35,0.44999999999999996,16.21932,return,1.8035597002599388,,,,,,,,,,,,,,,,,p315,21,female,left_right_width,2025-12-02_15h03.11.598,exp1,2023.1.0,60.0131668912648,
,,,,,,,,,,,,,,,,3,9.3,10,10.7,0,0,0.7,0.29999999999999993,0.4,1.8,10,initial,36.05,335,361,386,0,0,9,9,9,0,0,,,,,,,2,0,2,0,0,32,32,9,,,,,,,,,,,,,,2,1.236312200082466,2,0.35,0.44999999999999996,16.21932,return,0.7697947002016008,,,,,,,,,,,,,,,,,p315,21,female,left_right_width,2025-12-02_15h03.11.598,exp1,2023.1.0,60.0131668912648,
,,,,,,,,,,,,,,,,4,8.95,9.65,10.35,11.05,0,0.7,0.29999999999999993,0.4,2.5,10,initial,36.05,323,348,373,398,0,9,9,9,9,0,,,,,,,2,0,2,0,0,33,33,26,,,,,,,,,,,,,,3,0.6659874999895692,3,0.35,0.39999999999999997,14.41717,return,1.198835200164467,,,,,,,,,,,,,,,,,p315,21,female,left_right_width,2025-12-02_15h03.11.598,exp1,2023.1.0,60.0131668912648,
,,,,,,,,,,,,,,,,5,8.6,9.3,10,10.7,11.4,0.7,0.29999999999999993,0.4,3.1999999999999997,10,initial,36.05,310,335,361,386,411,9,9,9,9,9,,,,,,,2,0,2,0,0,34,34,44,,,,,,,,,,,,,,5,0.849165900144726,5,0.25,0.39999999999999997,14.41717,return,2.542385400040075,,,,,,,,,,,,,,,,,p315,21,female,left_right_width,2025-12-02_15h03.11.598,exp1,2023.1.0,60.0131668912648,
,,,,,,,,,,,,,,,,3,9.3,10,10.7,0,0,0.7,0.1499999999999999,0.55,1.95,10,initial,36.05,335,361,386,0,0,9,9,9,0,0,,,,,,,2,0,2,0,0,35,35,6,,,,,,,,,,,,,,2,1.0963425000663847,2,0.35,0.44999999999999996,16.21932,return,1.9477193001657724,,,,,,,,,,,,,,,,,p315,21,female,left_right_width,2025-12-02_15h03.11.598,exp1,2023.1.0,60.0131668912648,
,,,,,,,,,,,,,,,,5,8.275,9.1375,10,10.8625,11.725,0.8625,0.6125,0.25,3.7,10,match,36.05,298,329,361,392,423,9,9,9,9,9,,,,,,,2,0,2,0,0,36,36,22,,,,,,,,,,,,,,5,1.1409970000386238,5,0.2,0.15000000000000002,5.40644,return,0.9829597002826631,,,,,,,,,,,,,,,,,p315,21,female,left_right_width,2025-12-02_15h03.11.598,exp1,2023.1.0,60.0131668912648,
,,,,,,,,,,,,,,,,3,8.9,10,11.1,0,0,1.1,0.7000000000000001,0.4,2.6000000000000005,10,initial,36.05,321,361,400,0,0,9,9,9,0,0,,,,,,,2,0,2,0,0,37,37,4,,,,,,,,,,,,,,3,1.5179496000055224,3,0.55,0.55,19.82361,return,57.502859600121155,,,,,,,,,,,,,,,,,p315,21,female,left_right_width,2025-12-02_15h03.11.598,exp1,2023.1.0,60.0131668912648,
,,,,,,,,,,,,,,,,4,8.65,9.55,10.45,11.35,0,0.9,0.35,0.55,3.25,10,initial,36.05,312,344,377,409,0,9,9,9,9,0,,,,,,,2,0,2,0,0,38,38,28,,,,,,,,,,,,,,4,1.0604746001772583,4,0.5,0.5,18.02146,return,1.1930605000816286,,,,,,,,,,,,,,,,,p315,21,female,left_right_width,2025-12-02_15h03.11.598,exp1,2023.1.0,60.0131668912648,
,,,,,,,,,,,,,,,,4,8.9,9.633333333333333,10.366666666666667,11.1,0,0.7333333333333334,0.4833333333333334,0.25,2.45,10,match,36.05,321,347,374,400,0,9,9,9,9,0,,,,,,,2,0,2,0,0,39,39,3,,,,,,,,,,,,,,4,0.9720956003293395,4,0.3,0.2,7.20859,return,0.8675454000476748,,,,,,,,,,,,,,,,,p315,21,female,left_right_width,2025-12-02_15h03.11.598,exp1,2023.1.0,60.0131668912648,
,,,,,,,,,,,,,,,,4,8.65,9.55,10.45,11.35,0,0.9,0.5,0.4,3.1,10,initial,36.05,312,344,377,409,0,9,9,9,9,0,,,,,,,2,0,2,0,0,40,40,32,,,,,,,,,,,,,,4,1.7736955001018941,4,0.45,0.35000000000000003,12.61502,return,1.0634102001786232,,,,,,,,,,,,,,,,,p315,21,female,left_right_width,2025-12-02_15h03.11.598,exp1,2023.1.0,60.0131668912648,
,,,,,,,,,,,,,,,,5,8.65,9.325,10,10.675,11.35,0.675,0.125,0.55,3.25,10,match,36.05,312,336,361,385,409,9,9,9,9,9,,,,,,,2,0,2,0,0,41,41,29,,,,,,,,,,,,,,5,1.427000200143084,5,0.55,0.55,19.82361,return,1.0162169001996517,,,,,,,,,,,,,,,,,p315,21,female,left_right_width,2025-12-02_15h03.11.598,exp1,2023.1.0,60.0131668912648,
,,,,,,,,,,,,,,,,4,9.3,9.766666666666667,10.233333333333333,10.7,0,0.4666666666666667,0.21666666666666665,0.25,1.65,10,match,36.05,335,352,369,386,0,9,9,9,9,0,,,,,,,2,0,2,0,0,42,42,8,,,,,,,,,,,,,,4,0.8466181003022939,4,0.2,0.25,9.01073,return,1.2265816000290215,,,,,,,,,,,,,,,,,p315,21,female,left_right_width,2025-12-02_15h03.11.598,exp1,2023.1.0,60.0131668912648,
,,,,,,,,,,,,,,,,4,9.1,9.7,10.3,10.9,0,0.5999999999999999,0.3499999999999999,0.25,2.05,10,match,36.05,328,350,371,393,0,9,9,9,9,0,,,,,,,2,0,2,0,0,43,43,14,,,,,,,,,,,,,,4,1.4627601001411676,4,0.3,0.3,10.81288,return,1.0357068001758307,,,,,,,,,,,,,,,,,p315,21,female,left_right_width,2025-12-02_15h03.11.598,exp1,2023.1.0,60.0131668912648,
,,,,,,,,,,,,,,,,3,7.8,10,12.2,0,0,2.2,1.9500000000000002,0.25,4.65,10,match,36.05,281,361,440,0,0,9,9,9,0,0,,,,,,,2,0,2,0,0,44,44,37,,,,,,,,,,,,,,3,1.668921499978751,3,0.35,0.25,9.01073,return,0.8181583001278341,,,,,,,,,,,,,,,,,p315,21,female,left_right_width,2025-12-02_15h03.11.598,exp1,2023.1.0,60.0131668912648,
,,,,,,,,,,,,,,,,4,8.65,9.55,10.45,11.35,0,0.9,0.65,0.25,2.95,10,initial,36.05,312,344,377,409,0,9,9,9,9,0,,,,,,,2,0,2,0,0,45,45,30,,,,,,,,,,,,,,4,0.8558478001505136,4,0.5,0.20000000000000007,7.20859,return,1.682842600159347,,,,,,,,,,,,,,,,,p315,21,female,left_right_width,2025-12-02_15h03.11.598,exp1,2023.1.0,60.0131668912648,
,,,,,,,,,,,,,,,,5,7.8,8.9,10,11.1,12.2,1.1,0.55,0.55,4.95,10,initial,36.05,281,321,361,400,440,9,9,9,9,9,,,,,,,2,0,2,0,0,46,46,34,,,,,,,,,,,,,,5,1.4574092000257224,5,0.3,0.35,12.61502,return,1.173724900232628,,,,,,,,,,,,,,,,,p315,21,female,left_right_width,2025-12-02_15h03.11.598,exp1,2023.1.0,60.0131668912648,
,,,,,,,,,,,,,,,,5,8.2,9.1,10,10.9,11.8,0.9,0.65,0.25,3.85,10,initial,36.05,296,328,361,393,425,9,9,9,9,9,,,,,,,2,0,2,0,0,47,47,48,,,,,,,,,,,,,,6,1.1992283998988569,6,0.45,0.20000000000000007,7.20859,return,1.629430399974808,,,,,,,,,,,,,,,,,p315,21,female,left_right_width,2025-12-02_15h03.11.598,exp1,2023.1.0,60.0131668912648,
,,,,,,,,,,,,,,,,5,8.95,9.475,10,10.525,11.05,0.525,0.275,0.25,2.35,10,match,36.05,323,342,361,379,398,9,9,9,9,9,,,,,,,2,0,2,0,0,48,48,25,,,,,,,,,,,,,,6,1.2512267001438886,6,0.45,0.20000000000000007,7.20859,return,1.4246100003365427,,,,,,,,,,,,,,,,,p315,21,female,left_right_width,2025-12-02_15h03.11.598,exp1,2023.1.0,60.0131668912648,
,,,,,,,,,,,,,,,,5,8.2,9.1,10,10.9,11.8,0.9,0.35,0.55,4.15,10,initial,36.05,296,328,361,393,425,9,9,9,9,9,,,,,,,2,0,2,0,0,49,49,46,,,,,,,,,,,,,,5,1.8442821002099663,5,0.35,0.44999999999999996,16.21932,return,1.3368639000691473,,,,,,,,,,,,,,,,,p315,21,female,left_right_width,2025-12-02_15h03.11.598,exp1,2023.1.0,60.0131668912648,
,,,,,,,,,,,,,,,,3,7.8,10,12.2,0,0,2.2,1.65,0.55,4.95,10,match,36.05,281,361,440,0,0,9,9,9,0,0,,,,,,,2,0,2,0,0,50,50,35,,,,,,,,,,,,,,2,1.2929885000921786,2,0.4,0.45,16.21932,return,1.351887500146404,,,,,,,,,,,,,,,,,p315,21,female,left_right_width,2025-12-02_15h03.11.598,exp1,2023.1.0,60.0131668912648,
,,,,,,,,,,,,,,,,5,8.2,9.1,10,10.9,11.8,0.9,0.5,0.4,4,10,initial,36.05,296,328,361,393,425,9,9,9,9,9,,,,,,,2,0,2,0,0,51,51,50,,,,,,,,,,,,,,3,1.7314210999757051,3,0.2,0.39999999999999997,14.41717,return,1.5010287000332028,,,,,,,,,,,,,,,,,p315,21,female,left_right_width,2025-12-02_15h03.11.598,exp1,2023.1.0,60.0131668912648,
,,,,,,,,,,,,,,,,,,,,,,,,,,,,,,,,,,,,,,,,,,,,,2,0,2,0,,,,,,,,,,,,,,,,,,,,,,,,,,,,1727.0879981999751,1727.0879981999751,1727.0879981999751,,,,,,,,,,,,p315,21,female,left_right_width,2025-12-02_15h03.11.598,exp1,2023.1.0,60.0131668912648,
,,,,,,,,,,,,,,,,5,8.95,9.475,10,10.525,11.05,0.525,0.275,0.25,2.35,10,match,36.05,323,342,361,379,398,9,9,9,9,9,,,,,,,3,0,3,0,0,0,0,25,,,,,,,,,,,,,,5,1.2701950001064688,5,0.45,0.15000000000000008,5.40644,return,1.1229998001363128,,,,,,,,,,,,,,,,,p315,21,female,left_right_width,2025-12-02_15h03.11.598,exp1,2023.1.0,60.0131668912648,
,,,,,,,,,,,,,,,,4,8.95,9.65,10.35,11.05,0,0.7,0.44999999999999996,0.25,2.3499999999999996,10,initial,36.05,323,348,373,398,0,9,9,9,9,0,,,,,,,3,0,3,0,0,1,1,24,,,,,,,,,,,,,,4,0.7903077001683414,4,0.3,0.2,7.20859,return,1.0296885001007468,,,,,,,,,,,,,,,,,p315,21,female,left_right_width,2025-12-02_15h03.11.598,exp1,2023.1.0,60.0131668912648,
,,,,,,,,,,,,,,,,5,8.275,9.1375,10,10.8625,11.725,0.8625,0.6125,0.25,3.7,10,match,36.05,298,329,361,392,423,9,9,9,9,9,,,,,,,3,0,3,0,0,2,2,22,,,,,,,,,,,,,,6,0.8462948000524193,6,0.25,0.25,9.01073,return,3.034651400288567,,,,,,,,,,,,,,,,,p315,21,female,left_right_width,2025-12-02_15h03.11.598,exp1,2023.1.0,60.0131668912648,
,,,,,,,,,,,,,,,,4,8.9,9.633333333333333,10.366666666666667,11.1,0,0.7333333333333334,0.4833333333333334,0.25,2.45,10,match,36.05,321,347,374,400,0,9,9,9,9,0,,,,,,,3,0,3,0,0,3,3,3,,,,,,,,,,,,,,4,1.7363617001101375,4,0.2,0.3,10.81288,return,2.0176848999690264,,,,,,,,,,,,,,,,,p315,21,female,left_right_width,2025-12-02_15h03.11.598,exp1,2023.1.0,60.0131668912648,
,,,,,,,,,,,,,,,,4,9.1,9.7,10.3,10.9,0,0.6,0.04999999999999997,0.55,2.35,10,match,36.05,328,350,371,393,0,9,9,9,9,0,,,,,,,3,0,3,0,0,4,4,12,,,,,,,,,,,,,,4,1.4184534000232816,4,0.35,0.49999999999999994,18.02146,return,1.2489660000428557,,,,,,,,,,,,,,,,,p315,21,female,left_right_width,2025-12-02_15h03.11.598,exp1,2023.1.0,60.0131668912648,
,,,,,,,,,,,,,,,,3,8.2,10,11.8,0,0,1.8,1.25,0.55,4.15,10,match,36.05,296,361,425,0,0,9,9,9,0,0,,,,,,,3,0,3,0,0,5,5,47,,,,,,,,,,,,,,3,1.4321834999136627,3,0.35,0.49999999999999994,18.02146,return,3.8532384000718594,,,,,,,,,,,,,,,,,p315,21,female,left_right_width,2025-12-02_15h03.11.598,exp1,2023.1.0,60.0131668912648,
,,,,,,,,,,,,,,,,4,8.35,9.45,10.55,11.65,0,1.1,0.55,0.55,3.8500000000000005,10,initial,36.05,301,341,380,420,0,9,9,9,9,0,,,,,,,3,0,3,0,0,6,6,17,,,,,,,,,,,,,,4,1.3860270001459867,4,0.35,0.49999999999999994,18.02146,return,1.1224705001804978,,,,,,,,,,,,,,,,,p315,21,female,left_right_width,2025-12-02_15h03.11.598,exp1,2023.1.0,60.0131668912648,
,,,,,,,,,,,,,,,,4,8.95,9.65,10.35,11.05,0,0.7,0.29999999999999993,0.4,2.5,10,initial,36.05,323,348,373,398,0,9,9,9,9,0,,,,,,,3,0,3,0,0,7,7,26,,,,,,,,,,,,,,3,1.196247300133109,3,0.45,0.5,18.02146,return,0.8585124001838267,,,,,,,,,,,,,,,,,p315,21,female,left_right_width,2025-12-02_15h03.11.598,exp1,2023.1.0,60.0131668912648,
,,,,,,,,,,,,,,,,4,8.65,9.55,10.45,11.35,0,0.9,0.5,0.4,3.1,10,initial,36.05,312,344,377,409,0,9,9,9,9,0,,,,,,,3,0,3,0,0,8,8,32,,,,,,,,,,,,,,4,1.1190154000651091,4,0.2,0.5499999999999999,19.82361,return,1.7449726001359522,,,,,,,,,,,,,,,,,p315,21,female,left_right_width,2025-12-02_15h03.11.598,exp1,2023.1.0,60.0131668912648,
,,,,,,,,,,,,,,,,5,8.65,9.325,10,10.675,11.35,0.675,0.275,0.4,3.1,10,match,36.05,312,336,361,385,409,9,9,9,9,9,,,,,,,3,0,3,0,0,9,9,33,,,,,,,,,,,,,,5,1.1023353000637144,5,0.2,0.39999999999999997,14.41717,return,1.7609953000210226,,,,,,,,,,,,,,,,,p315,21,female,left_right_width,2025-12-02_15h03.11.598,exp1,2023.1.0,60.0131668912648,
,,,,,,,,,,,,,,,,5,8.2,9.1,10,10.9,11.8,0.9,0.5,0.4,4,10,initial,36.05,296,328,361,393,425,9,9,9,9,9,,,,,,,3,0,3,0,0,10,10,50,,,,,,,,,,,,,,6,1.416498000267893,6,0.35,0.44999999999999996,16.21932,return,0.7344647001009434,,,,,,,,,,,,,,,,,p315,21,female,left_right_width,2025-12-02_15h03.11.598,exp1,2023.1.0,60.0131668912648,
,,,,,,,,,,,,,,,,5,7.8,8.9,10,11.1,12.2,1.1,0.8500000000000001,0.25,4.65,10,initial,36.05,281,321,361,400,440,9,9,9,9,9,,,,,,,3,0,3,0,0,11,11,36,,,,,,,,,,,,,,6,1.1346035001333803,6,0.2,0.25,9.01073,return,1.0887254001572728,,,,,,,,,,,,,,,,,p315,21,female,left_right_width,2025-12-02_15h03.11.598,exp1,2023.1.0,60.0131668912648,
,,,,,,,,,,,,,,,,5,8.6,9.3,10,10.7,11.4,0.7,0.1499999999999999,0.55,3.3499999999999996,10,initial,36.05,310,335,361,386,411,9,9,9,9,9,,,,,,,3,0,3,0,0,12,12,40,,,,,,,,,,,,,,5,2.104525500210002,5,0.55,0.45,16.21932,return,1.6344276999589056,,,,,,,,,,,,,,,,,p315,21,female,left_right_width,2025-12-02_15h03.11.598,exp1,2023.1.0,60.0131668912648,
,,,,,,,,,,,,,,,,5,8.35,9.175,10,10.825,11.65,0.825,0.575,0.25,3.55,10,match,36.05,301,331,361,390,420,9,9,9,9,9,,,,,,,3,0,3,0,0,13,13,20,,,,,,,,,,,,,,6,1.753936500288546,6,0.35,0.2,7.20859,return,1.5377639001235366,,,,,,,,,,,,,,,,,p315,21,female,left_right_width,2025-12-02_15h03.11.598,exp1,2023.1.0,60.0131668912648,
,,,,,,,,,,,,,,,,5,8.35,9.175,10,10.825,11.65,0.8250000000000001,0.275,0.55,3.85,10,match,36.05,301,331,361,390,420,9,9,9,9,9,,,,,,,3,0,3,0,0,14,14,18,,,,,,,,,,,,,,5,1.5265796000603586,5,0.45,0.5,18.02146,return,0.8563634001184255,,,,,,,,,,,,,,,,,p315,21,female,left_right_width,2025-12-02_15h03.11.598,exp1,2023.1.0,60.0131668912648,
,,,,,,,,,,,,,,,,3,9.3,10,10.7,0,0,0.7,0.44999999999999996,0.25,1.65,10,initial,36.05,335,361,386,0,0,9,9,9,0,0,,,,,,,3,0,3,0,0,15,15,7,,,,,,,,,,,,,,2,1.254122800193727,2,0.3,0.2,7.20859,return,0.9473523001652211,,,,,,,,,,,,,,,,,p315,21,female,left_right_width,2025-12-02_15h03.11.598,exp1,2023.1.0,60.0131668912648,
,,,,,,,,,,,,,,,,4,8.65,9.55,10.45,11.35,0,0.9,0.65,0.25,2.95,10,initial,36.05,312,344,377,409,0,9,9,9,9,0,,,,,,,3,0,3,0,0,16,16,30,,,,,,,,,,,,,,4,1.2524621000047773,4,0.4,0.20000000000000007,7.20859,return,2.145818400196731,,,,,,,,,,,,,,,,,p315,21,female,left_right_width,2025-12-02_15h03.11.598,exp1,2023.1.0,60.0131668912648,
,,,,,,,,,,,,,,,,3,9.3,10,10.7,0,0,0.7,0.1499999999999999,0.55,1.95,10,initial,36.05,335,361,386,0,0,9,9,9,0,0,,,,,,,3,0,3,0,0,17,17,6,,,,,,,,,,,,,,3,1.1891875001601875,3,0.25,0.44999999999999996,16.21932,return,2.2596216001547873,,,,,,,,,,,,,,,,,p315,21,female,left_right_width,2025-12-02_15h03.11.598,exp1,2023.1.0,60.0131668912648,
,,,,,,,,,,,,,,,,3,9.1,10,10.9,0,0,0.9,0.5,0.4,2.2,10,initial,36.05,328,361,393,0,0,9,9,9,0,0,,,,,,,3,0,3,0,0,18,18,15,,,,,,,,,,,,,,3,1.040474500041455,3,0.2,0.39999999999999997,14.41717,return,1.2695711001288146,,,,,,,,,,,,,,,,,p315,21,female,left_right_width,2025-12-02_15h03.11.598,exp1,2023.1.0,60.0131668912648,
,,,,,,,,,,,,,,,,4,9.3,9.766666666666667,10.233333333333333,10.7,0,0.4666666666666667,0.21666666666666665,0.25,1.65,10,match,36.05,335,352,369,386,0,9,9,9,9,0,,,,,,,3,0,3,0,0,19,19,8,,,,,,,,,,,,,,4,1.4195099002681673,4,0.25,0.15000000000000002,5.40644,return,1.8730375000741333,,,,,,,,,,,,,,,,,p315,21,female,left_right_width,2025-12-02_15h03.11.598,exp1,2023.1.0,60.0131668912648,
,,,,,,,,,,,,,,,,4,8.35,9.45,10.55,11.65,0,1.1,0.7000000000000001,0.4,3.7,10,initial,36.05,301,341,380,420,0,9,9,9,9,0,,,,,,,3,0,3,0,0,20,20,21,,,,,,,,,,,,,,4,1.1012463001534343,4,0.5,0.5,18.02146,return,0.7521361000835896,,,,,,,,,,,,,,,,,p315,21,female,left_right_width,2025-12-02_15h03.11.598,exp1,2023.1.0,60.0131668912648,
,,,,,,,,,,,,,,,,4,8.95,9.65,10.35,11.05,0,0.7,0.1499999999999999,0.55,2.65,10,initial,36.05,323,348,373,398,0,9,9,9,9,0,,,,,,,3,0,3,0,0,21,21,23,,,,,,,,,,,,,,4,1.1602002000436187,4,0.35,0.39999999999999997,14.41717,return,1.8658747002482414,,,,,,,,,,,,,,,,,p315,21,female,left_right_width,2025-12-02_15h03.11.598,exp1,2023.1.0,60.0131668912648,
,,,,,,,,,,,,,,,,3,8.6,10,11.4,0,0,1.4,1.15,0.25,3.05,10,match,36.05,310,361,411,0,0,9,9,9,0,0,,,,,,,3,0,3,0,0,22,22,43,,,,,,,,,,,,,,3,1.0424979000817984,3,0.55,0.15000000000000008,5.40644,return,1.847775500267744,,,,,,,,,,,,,,,,,p315,21,female,left_right_width,2025-12-02_15h03.11.598,exp1,2023.1.0,60.0131668912648,
,,,,,,,,,,,,,,,,3,7.8,10,12.2,0,0,2.2,1.65,0.55,4.95,10,match,36.05,281,361,440,0,0,9,9,9,0,0,,,,,,,3,0,3,0,0,23,23,35,,,,,,,,,,,,,,3,1.1414646001067013,3,0.35,0.39999999999999997,14.41717,return,1.0144329001195729,,,,,,,,,,,,,,,,,p315,21,female,left_right_width,2025-12-02_15h03.11.598,exp1,2023.1.0,60.0131668912648,
,,,,,,,,,,,,,,,,5,7.8,8.9,10,11.1,12.2,1.1,0.55,0.55,4.95,10,initial,36.05,281,321,361,400,440,9,9,9,9,9,,,,,,,3,0,3,0,0,24,24,34,,,,,,,,,,,,,,4,1.1988238000776619,4,0.3,0.49999999999999994,18.02146,return,1.8865488001611084,,,,,,,,,,,,,,,,,p315,21,female,left_right_width,2025-12-02_15h03.11.598,exp1,2023.1.0,60.0131668912648,
,,,,,,,,,,,,,,,,5,8.2,9.1,10,10.9,11.8,0.9,0.65,0.25,3.85,10,initial,36.05,296,328,361,393,425,9,9,9,9,9,,,,,,,3,0,3,0,0,25,25,48,,,,,,,,,,,,,,5,1.237970600137487,5,0.45,0.25000000000000006,9.01073,return,1.6509087001904845,,,,,,,,,,,,,,,,,p315,21,female,left_right_width,2025-12-02_15h03.11.598,exp1,2023.1.0,60.0131668912648,
,,,,,,,,,,,,,,,,3,8.2,10,11.8,0,0,1.8,1.55,0.25,3.85,10,match,36.05,296,361,425,0,0,9,9,9,0,0,,,,,,,3,0,3,0,0,26,26,49,,,,,,,,,,,,,,3,1.2027510001789778,3,0.35,0.15000000000000002,5.40644,return,1.0572322001680732,,,,,,,,,,,,,,,,,p315,21,female,left_right_width,2025-12-02_15h03.11.598,exp1,2023.1.0,60.0131668912648,
,,,,,,,,,,,,,,,,3,8.9,10,11.1,0,0,1.1,0.8500000000000001,0.25,2.45,10,initial,36.05,321,361,400,0,0,9,9,9,0,0,,,,,,,3,0,3,0,0,27,27,2,,,,,,,,,,,,,,3,1.1687221000902355,3,0.45,0.15000000000000008,5.40644,return,1.359782800078392,,,,,,,,,,,,,,,,,p315,21,female,left_right_width,2025-12-02_15h03.11.598,exp1,2023.1.0,60.0131668912648,
,,,,,,,,,,,,,,,,4,8.825,9.608333333333333,10.391666666666667,11.175,0,0.7833333333333333,0.5333333333333333,0.25,2.6,10,match,36.05,318,346,375,403,0,9,9,9,9,0,,,,,,,3,0,3,0,0,28,28,5,,,,,,,,,,,,,,4,0.6107562002725899,4,0.3,0.15000000000000002,5.40644,return,1.2735726002138108,,,,,,,,,,,,,,,,,p315,21,female,left_right_width,2025-12-02_15h03.11.598,exp1,2023.1.0,60.0131668912648,
,,,,,,,,,,,,,,,,5,8.2,9.1,10,10.9,11.8,0.9,0.35,0.55,4.15,10,initial,36.05,296,328,361,393,425,9,9,9,9,9,,,,,,,3,0,3,0,0,29,29,46,,,,,,,,,,,,,,5,2.255086100194603,5,0.3,0.44999999999999996,16.21932,return,1.1716014000121504,,,,,,,,,,,,,,,,,p315,21,female,left_right_width,2025-12-02_15h03.11.598,exp1,2023.1.0,60.0131668912648,
,,,,,,,,,,,,,,,,3,9.1,10,10.9,0,0,0.9,0.65,0.25,2.05,10,initial,36.05,328,361,393,0,0,9,9,9,0,0,,,,,,,3,0,3,0,0,30,30,13,,,,,,,,,,,,,,2,1.0615067002363503,2,0.35,0.25,9.01073,return,0.9224169000517577,,,,,,,,,,,,,,,,,p315,21,female,left_right_width,2025-12-02_15h03.11.598,exp1,2023.1.0,60.0131668912648,
,,,,,,,,,,,,,,,,5,8.95,9.475,10,10.525,11.05,0.525,0.125,0.4,2.5,10,match,36.05,323,342,361,379,398,9,9,9,9,9,,,,,,,3,0,3,0,0,31,31,27,,,,,,,,,,,,,,4,1.134332800284028,4,0.4,0.35000000000000003,12.61502,return,2.032833300065249,,,,,,,,,,,,,,,,,p315,21,female,left_right_width,2025-12-02_15h03.11.598,exp1,2023.1.0,60.0131668912648,
,,,,,,,,,,,,,,,,3,9.3,10,10.7,0,0,0.7,0.29999999999999993,0.4,1.8,10,initial,36.05,335,361,386,0,0,9,9,9,0,0,,,,,,,3,0,3,0,0,32,32,9,,,,,,,,,,,,,,3,1.1438557000365108,3,0.3,0.35,12.61502,return,1.2094739999156445,,,,,,,,,,,,,,,,,p315,21,female,left_right_width,2025-12-02_15h03.11.598,exp1,2023.1.0,60.0131668912648,
,,,,,,,,,,,,,,,,3,8.9,10,11.1,0,0,1.1,0.7000000000000001,0.4,2.6000000000000005,10,initial,36.05,321,361,400,0,0,9,9,9,0,0,,,,,,,3,0,3,0,0,33,33,4,,,,,,,,,,,,,,2,1.0301179001107812,2,0.5,0.35000000000000003,12.61502,return,1.2116188001818955,,,,,,,,,,,,,,,,,p315,21,female,left_right_width,2025-12-02_15h03.11.598,exp1,2023.1.0,60.0131668912648,
,,,,,,,,,,,,,,,,4,9.1,9.7,10.3,10.9,0,0.5999999999999999,0.3499999999999999,0.25,2.05,10,match,36.05,328,350,371,393,0,9,9,9,9,0,,,,,,,3,0,3,0,0,34,34,14,,,,,,,,,,,,,,3,1.0365343999583274,3,0.35,0.25,9.01073,return,0.7705646001268178,,,,,,,,,,,,,,,,,p315,21,female,left_right_width,2025-12-02_15h03.11.598,exp1,2023.1.0,60.0131668912648,
,,,,,,,,,,,,,,,,5,8.6,9.3,10,10.7,11.4,0.7,0.29999999999999993,0.4,3.1999999999999997,10,initial,36.05,310,335,361,386,411,9,9,9,9,9,,,,,,,3,0,3,0,0,35,35,44,,,,,,,,,,,,,,4,1.414561599958688,4,0.25,0.39999999999999997,14.41717,return,1.7875946001149714,,,,,,,,,,,,,,,,,p315,21,female,left_right_width,2025-12-02_15h03.11.598,exp1,2023.1.0,60.0131668912648,
,,,,,,,,,,,,,,,,5,7.8,8.9,10,11.1,12.2,1.1,0.7000000000000001,0.4,4.800000000000001,10,initial,36.05,281,321,361,400,440,9,9,9,9,9,,,,,,,3,0,3,0,0,36,36,38,,,,,,,,,,,,,,5,1.196463800035417,5,0.35,0.49999999999999994,18.02146,return,0.9072540001943707,,,,,,,,,,,,,,,,,p315,21,female,left_right_width,2025-12-02_15h03.11.598,exp1,2023.1.0,60.0131668912648,
,,,,,,,,,,,,,,,,5,8.65,9.325,10,10.675,11.35,0.675,0.125,0.55,3.25,10,match,36.05,312,336,361,385,409,9,9,9,9,9,,,,,,,3,0,3,0,0,37,37,29,,,,,,,,,,,,,,5,1.5036855002399534,5,0.55,0.5,18.02146,return,0.9297206001356244,,,,,,,,,,,,,,,,,p315,21,female,left_right_width,2025-12-02_15h03.11.598,exp1,2023.1.0,60.0131668912648,
,,,,,,,,,,,,,,,,4,8.65,9.55,10.45,11.35,0,0.9,0.35,0.55,3.25,10,initial,36.05,312,344,377,409,0,9,9,9,9,0,,,,,,,3,0,3,0,0,38,38,28,,,,,,,,,,,,,,4,1.1141154000069946,4,0.55,0.5,18.02146,return,0.9740272001363337,,,,,,,,,,,,,,,,,p315,21,female,left_right_width,2025-12-02_15h03.11.598,exp1,2023.1.0,60.0131668912648,
,,,,,,,,,,,,,,,,4,9.1,9.7,10.3,10.9,0,0.6000000000000001,0.20000000000000004,0.4,2.2,10,match,36.05,328,350,371,393,0,9,9,9,9,0,,,,,,,3,0,3,0,0,39,39,16,,,,,,,,,,,,,,4,1.0216520002577454,4,0.5,0.45,16.21932,return,0.8347127002198249,,,,,,,,,,,,,,,,,p315,21,female,left_right_width,2025-12-02_15h03.11.598,exp1,2023.1.0,60.0131668912648,
,,,,,,,,,,,,,,,,3,8.6,10,11.4,0,0,1.4,0.85,0.55,3.35,10,match,36.05,310,361,411,0,0,9,9,9,0,0,,,,,,,3,0,3,0,0,40,40,41,,,,,,,,,,,,,,2,1.0492128001060337,2,0.55,0.45,16.21932,return,0.8142117001116276,,,,,,,,,,,,,,,,,p315,21,female,left_right_width,2025-12-02_15h03.11.598,exp1,2023.1.0,60.0131668912648,
,,,,,,,,,,,,,,,,4,9.3,9.766666666666667,10.233333333333333,10.7,0,0.4666666666666667,0.06666666666666665,0.4,1.8,10,match,36.05,335,352,369,386,0,9,9,9,9,0,,,,,,,3,0,3,0,0,41,41,10,,,,,,,,,,,,,,4,1.1730740000493824,4,0.45,0.4,14.41717,return,1.396959099918604,,,,,,,,,,,,,,,,,p315,21,female,left_right_width,2025-12-02_15h03.11.598,exp1,2023.1.0,60.0131668912648,
,,,,,,,,,,,,,,,,5,8.65,9.325,10,10.675,11.35,0.675,0.42500000000000004,0.25,2.95,10,match,36.05,312,336,361,385,409,9,9,9,9,9,,,,,,,3,0,3,0,0,42,42,31,,,,,,,,,,,,,,5,1.9338024002499878,5,0.35,0.2,7.20859,return,0.7994796000421047,,,,,,,,,,,,,,,,,p315,21,female,left_right_width,2025-12-02_15h03.11.598,exp1,2023.1.0,60.0131668912648,
,,,,,,,,,,,,,,,,3,7.800000000000001,10,12.2,0,0,2.1999999999999997,1.7999999999999998,0.4,4.8,10,match,36.05,281,361,440,0,0,9,9,9,0,0,,,,,,,3,0,3,0,0,43,43,39,,,,,,,,,,,,,,3,1.1423633000813425,3,0.3,0.25,9.01073,return,0.8717678000684828,,,,,,,,,,,,,,,,,p315,21,female,left_right_width,2025-12-02_15h03.11.598,exp1,2023.1.0,60.0131668912648,
,,,,,,,,,,,,,,,,4,8.35,9.45,10.55,11.65,0,1.1,0.8500000000000001,0.25,3.5500000000000003,10,initial,36.05,301,341,380,420,0,9,9,9,9,0,,,,,,,3,0,3,0,0,44,44,19,,,,,,,,,,,,,,3,1.1186612001620233,3,0.4,0.15000000000000008,5.40644,return,1.1842554002068937,,,,,,,,,,,,,,,,,p315,21,female,left_right_width,2025-12-02_15h03.11.598,exp1,2023.1.0,60.0131668912648,
,,,,,,,,,,,,,,,,3,7.8,10,12.2,0,0,2.2,1.9500000000000002,0.25,4.65,10,match,36.05,281,361,440,0,0,9,9,9,0,0,,,,,,,3,0,3,0,0,45,45,37,,,,,,,,,,,,,,3,0.9469799001235515,3,0.45,0.15000000000000008,5.40644,return,1.5799486001487821,,,,,,,,,,,,,,,,,p315,21,female,left_right_width,2025-12-02_15h03.11.598,exp1,2023.1.0,60.0131668912648,
,,,,,,,,,,,,,,,,3,8.9,10,11.1,0,0,1.1,0.55,0.55,2.75,10,initial,36.05,321,361,400,0,0,9,9,9,0,0,,,,,,,3,0,3,0,0,46,46,0,,,,,,,,,,,,,,3,0.932270800229162,3,0.45,0.30000000000000004,10.81288,return,0.957029800163582,,,,,,,,,,,,,,,,,p315,21,female,left_right_width,2025-12-02_15h03.11.598,exp1,2023.1.0,60.0131668912648,
,,,,,,,,,,,,,,,,4,8.9,9.633333333333333,10.366666666666667,11.1,0,0.7333333333333333,0.18333333333333326,0.55,2.75,10,match,36.05,321,347,374,400,0,9,9,9,9,0,,,,,,,3,0,3,0,0,47,47,1,,,,,,,,,,,,,,4,1.0803675001952797,4,0.2,0.49999999999999994,18.02146,return,2.5721556001808494,,,,,,,,,,,,,,,,,p315,21,female,left_right_width,2025-12-02_15h03.11.598,exp1,2023.1.0,60.0131668912648,
,,,,,,,,,,,,,,,,3,8.525,10,11.475,0,0,1.475,1.225,0.25,3.2,10,match,36.05,307,361,414,0,0,9,9,9,0,0,,,,,,,3,0,3,0,0,48,48,45,,,,,,,,,,,,,,3,1.1264796000905335,3,0.45,0.15000000000000008,5.40644,return,1.673132800264284,,,,,,,,,,,,,,,,,p315,21,female,left_right_width,2025-12-02_15h03.11.598,exp1,2023.1.0,60.0131668912648,
,,,,,,,,,,,,,,,,3,8.2,10,11.8,0,0,1.7999999999999998,1.4,0.4,4,10,match,36.05,296,361,425,0,0,9,9,9,0,0,,,,,,,3,0,3,0,0,49,49,51,,,,,,,,,,,,,,3,1.1177749002818018,3,0.3,0.2,7.20859,return,1.5212190002202988,,,,,,,,,,,,,,,,,p315,21,female,left_right_width,2025-12-02_15h03.11.598,exp1,2023.1.0,60.0131668912648,
,,,,,,,,,,,,,,,,5,8.6,9.3,10,10.7,11.4,0.7,0.44999999999999996,0.25,3.05,10,initial,36.05,310,335,361,386,411,9,9,9,9,9,,,,,,,3,0,3,0,0,50,50,42,,,,,,,,,,,,,,4,0.9412247999571264,4,0.5,0.20000000000000007,7.20859,return,1.3494717001449317,,,,,,,,,,,,,,,,,p315,21,female,left_right_width,2025-12-02_15h03.11.598,exp1,2023.1.0,60.0131668912648,
,,,,,,,,,,,,,,,,3,9.1,10,10.9,0,0,0.9,0.35,0.55,2.35,10,initial,36.05,328,361,393,0,0,9,9,9,0,0,,,,,,,3,0,3,0,0,51,51,11,,,,,,,,,,,,,,2,1.2330938000231981,2,0.2,0.44999999999999996,16.21932,return,1.6635716001037508,,,,,,,,,,,,,,,,,p315,21,female,left_right_width,2025-12-02_15h03.11.598,exp1,2023.1.0,60.0131668912648,
,,,,,,,,,,,,,,,,,,,,,,,,,,,,,,,,,,,,,,,,,,,,,3,0,3,0,,,,,,,,,,,,,,,,,,,,,,,,,,,,1959.6045524000656,1959.6045524000656,1959.6045524000656,,,,,,,,,,,,p315,21,female,left_right_width,2025-12-02_15h03.11.598,exp1,2023.1.0,60.0131668912648,
,,,,,,,,,,,,,,,,3,9.3,10,10.7,0,0,0.7,0.44999999999999996,0.25,1.65,10,initial,36.05,335,361,386,0,0,9,9,9,0,0,,,,,,,4,0,4,0,0,0,0,7,,,,,,,,,,,,,,3,1.0330321001820266,3,0.35,0.15000000000000002,5.40644,return,0.8793552001006901,,,,,,,,,,,,,,,,,p315,21,female,left_right_width,2025-12-02_15h03.11.598,exp1,2023.1.0,60.0131668912648,
,,,,,,,,,,,,,,,,3,9.3,10,10.7,0,0,0.7,0.1499999999999999,0.55,1.95,10,initial,36.05,335,361,386,0,0,9,9,9,0,0,,,,,,,4,0,4,0,0,1,1,6,,,,,,,,,,,,,,2,0.5569830001331866,2,0.35,0.44999999999999996,16.21932,return,2.134173800004646,,,,,,,,,,,,,,,,,p315,21,female,left_right_width,2025-12-02_15h03.11.598,exp1,2023.1.0,60.0131668912648,
,,,,,,,,,,,,,,,,5,8.65,9.325,10,10.675,11.35,0.675,0.42500000000000004,0.25,2.95,10,match,36.05,312,336,361,385,409,9,9,9,9,9,,,,,,,4,0,4,0,0,2,2,31,,,,,,,,,,,,,,5,1.4284906000830233,5,0.3,0.2,7.20859,return,0.953854100080207,,,,,,,,,,,,,,,,,p315,21,female,left_right_width,2025-12-02_15h03.11.598,exp1,2023.1.0,60.0131668912648,
,,,,,,,,,,,,,,,,3,8.9,10,11.1,0,0,1.1,0.7000000000000001,0.4,2.6000000000000005,10,initial,36.05,321,361,400,0,0,9,9,9,0,0,,,,,,,4,0,4,0,0,3,3,4,,,,,,,,,,,,,,2,1.6807584001217037,2,0.2,0.39999999999999997,14.41717,return,1.2757783001288772,,,,,,,,,,,,,,,,,p315,21,female,left_right_width,2025-12-02_15h03.11.598,exp1,2023.1.0,60.0131668912648,
,,,,,,,,,,,,,,,,4,8.35,9.45,10.55,11.65,0,1.1,0.8500000000000001,0.25,3.5500000000000003,10,initial,36.05,301,341,380,420,0,9,9,9,9,0,,,,,,,4,0,4,0,0,4,4,19,,,,,,,,,,,,,,4,1.0788446001242846,4,0.5,0.25000000000000006,9.01073,return,2.2663318999111652,,,,,,,,,,,,,,,,,p315,21,female,left_right_width,2025-12-02_15h03.11.598,exp1,2023.1.0,60.0131668912648,
,,,,,,,,,,,,,,,,5,8.6,9.3,10,10.7,11.4,0.7,0.44999999999999996,0.25,3.05,10,initial,36.05,310,335,361,386,411,9,9,9,9,9,,,,,,,4,0,4,0,0,5,5,42,,,,,,,,,,,,,,5,1.0111240001861006,5,0.4,0.20000000000000007,7.20859,return,0.9848621001001447,,,,,,,,,,,,,,,,,p315,21,female,left_right_width,2025-12-02_15h03.11.598,exp1,2023.1.0,60.0131668912648,
,,,,,,,,,,,,,,,,4,8.65,9.55,10.45,11.35,0,0.9,0.5,0.4,3.1,10,initial,36.05,312,344,377,409,0,9,9,9,9,0,,,,,,,4,0,4,0,0,6,6,32,,,,,,,,,,,,,,4,1.0943484001327306,4,0.5,0.30000000000000004,10.81288,return,1.2578704000916332,,,,,,,,,,,,,,,,,p315,21,female,left_right_width,2025-12-02_15h03.11.598,exp1,2023.1.0,60.0131668912648,
,,,,,,,,,,,,,,,,3,8.525,10,11.475,0,0,1.475,1.225,0.25,3.2,10,match,36.05,307,361,414,0,0,9,9,9,0,0,,,,,,,4,0,4,0,0,7,7,45,,,,,,,,,,,,,,3,1.5661413001362234,3,0.35,0.2,7.20859,return,0.7987463001627475,,,,,,,,,,,,,,,,,p315,21,female,left_right_width,2025-12-02_15h03.11.598,exp1,2023.1.0,60.0131668912648,
,,,,,,,,,,,,,,,,5,8.6,9.3,10,10.7,11.4,0.7,0.1499999999999999,0.55,3.3499999999999996,10,initial,36.05,310,335,361,386,411,9,9,9,9,9,,,,,,,4,0,4,0,0,8,8,40,,,,,,,,,,,,,,4,1.351214500144124,4,0.5,0.5,18.02146,return,0.8802405002061278,,,,,,,,,,,,,,,,,p315,21,female,left_right_width,2025-12-02_15h03.11.598,exp1,2023.1.0,60.0131668912648,
,,,,,,,,,,,,,,,,3,7.800000000000001,10,12.2,0,0,2.1999999999999997,1.7999999999999998,0.4,4.8,10,match,36.05,281,361,440,0,0,9,9,9,0,0,,,,,,,4,0,4,0,0,9,9,39,,,,,,,,,,,,,,3,1.401659700088203,3,0.45,0.35000000000000003,12.61502,return,0.9135859999805689,,,,,,,,,,,,,,,,,p315,21,female,left_right_width,2025-12-02_15h03.11.598,exp1,2023.1.0,60.0131668912648,
,,,,,,,,,,,,,,,,4,9.3,9.766666666666667,10.233333333333333,10.7,0,0.4666666666666667,0.06666666666666665,0.4,1.8,10,match,36.05,335,352,369,386,0,9,9,9,9,0,,,,,,,4,0,4,0,0,10,10,10,,,,,,,,,,,,,,3,1.1518767001107335,3,0.35,0.39999999999999997,14.41717,return,1.3116756002418697,,,,,,,,,,,,,,,,,p315,21,female,left_right_width,2025-12-02_15h03.11.598,exp1,2023.1.0,60.0131668912648,
,,,,,,,,,,,,,,,,5,8.95,9.475,10,10.525,11.05,0.525,0.125,0.4,2.5,10,match,36.05,323,342,361,379,398,9,9,9,9,9,,,,,,,4,0,4,0,0,11,11,27,,,,,,,,,,,,,,4,1.0715825001243502,4,0.25,0.49999999999999994,18.02146,return,2.0023222002200782,,,,,,,,,,,,,,,,,p315,21,female,left_right_width,2025-12-02_15h03.11.598,exp1,2023.1.0,60.0131668912648,
,,,,,,,,,,,,,,,,5,8.2,9.1,10,10.9,11.8,0.9,0.5,0.4,4,10,initial,36.05,296,328,361,393,425,9,9,9,9,9,,,,,,,4,0,4,0,0,12,12,50,,,,,,,,,,,,,,5,1.0715608999598771,5,0.55,0.55,19.82361,return,0.8350152000784874,,,,,,,,,,,,,,,,,p315,21,female,left_right_width,2025-12-02_15h03.11.598,exp1,2023.1.0,60.0131668912648,
,,,,,,,,,,,,,,,,4,8.95,9.65,10.35,11.05,0,0.7,0.44999999999999996,0.25,2.3499999999999996,10,initial,36.05,323,348,373,398,0,9,9,9,9,0,,,,,,,4,0,4,0,0,13,13,24,,,,,,,,,,,,,,4,1.1456778002902865,4,0.35,0.2,7.20859,return,1.0658637001179159,,,,,,,,,,,,,,,,,p315,21,female,left_right_width,2025-12-02_15h03.11.598,exp1,2023.1.0,60.0131668912648,
,,,,,,,,,,,,,,,,5,8.35,9.175,10,10.825,11.65,0.825,0.575,0.25,3.55,10,match,36.05,301,331,361,390,420,9,9,9,9,9,,,,,,,4,0,4,0,0,14,14,20,,,,,,,,,,,,,,5,1.241797500057146,5,0.35,0.15000000000000002,5.40644,return,1.3828290002420545,,,,,,,,,,,,,,,,,p315,21,female,left_right_width,2025-12-02_15h03.11.598,exp1,2023.1.0,60.0131668912648,
,,,,,,,,,,,,,,,,5,8.35,9.175,10,10.825,11.65,0.8250000000000001,0.275,0.55,3.85,10,match,36.05,301,331,361,390,420,9,9,9,9,9,,,,,,,4,0,4,0,0,15,15,18,,,,,,,,,,,,,,5,1.4263418002519757,5,0.25,0.39999999999999997,14.41717,return,2.0568300001323223,,,,,,,,,,,,,,,,,p315,21,female,left_right_width,2025-12-02_15h03.11.598,exp1,2023.1.0,60.0131668912648,
,,,,,,,,,,,,,,,,3,7.8,10,12.2,0,0,2.2,1.9500000000000002,0.25,4.65,10,match,36.05,281,361,440,0,0,9,9,9,0,0,,,,,,,4,0,4,0,0,16,16,37,,,,,,,,,,,,,,3,1.272988900076598,3,0.2,0.2,7.20859,return,0.9977112002670765,,,,,,,,,,,,,,,,,p315,21,female,left_right_width,2025-12-02_15h03.11.598,exp1,2023.1.0,60.0131668912648,
,,,,,,,,,,,,,,,,3,8.9,10,11.1,0,0,1.1,0.55,0.55,2.75,10,initial,36.05,321,361,400,0,0,9,9,9,0,0,,,,,,,4,0,4,0,0,17,17,0,,,,,,,,,,,,,,3,1.3024484999477863,3,0.2,0.49999999999999994,18.02146,return,1.4577912001404911,,,,,,,,,,,,,,,,,p315,21,female,left_right_width,2025-12-02_15h03.11.598,exp1,2023.1.0,60.0131668912648,
,,,,,,,,,,,,,,,,5,8.2,9.1,10,10.9,11.8,0.9,0.35,0.55,4.15,10,initial,36.05,296,328,361,393,425,9,9,9,9,9,,,,,,,4,0,4,0,0,18,18,46,,,,,,,,,,,,,,5,1.103727700188756,5,0.25,0.5499999999999999,19.82361,return,1.8116823001764715,,,,,,,,,,,,,,,,,p315,21,female,left_right_width,2025-12-02_15h03.11.598,exp1,2023.1.0,60.0131668912648,
,,,,,,,,,,,,,,,,4,9.1,9.7,10.3,10.9,0,0.6,0.04999999999999997,0.55,2.35,10,match,36.05,328,350,371,393,0,9,9,9,9,0,,,,,,,4,0,4,0,0,19,19,12,,,,,,,,,,,,,,4,1.2436085001099855,4,0.5,0.55,19.82361,return,0.7771026000846177,,,,,,,,,,,,,,,,,p315,21,female,left_right_width,2025-12-02_15h03.11.598,exp1,2023.1.0,60.0131668912648,
,,,,,,,,,,,,,,,,3,8.9,10,11.1,0,0,1.1,0.8500000000000001,0.25,2.45,10,initial,36.05,321,361,400,0,0,9,9,9,0,0,,,,,,,4,0,4,0,0,20,20,2,,,,,,,,,,,,,,3,1.2222653001081198,3,0.55,0.20000000000000007,7.20859,return,2.5654578001704067,,,,,,,,,,,,,,,,,p315,21,female,left_right_width,2025-12-02_15h03.11.598,exp1,2023.1.0,60.0131668912648,
,,,,,,,,,,,,,,,,4,8.9,9.633333333333333,10.366666666666667,11.1,0,0.7333333333333333,0.18333333333333326,0.55,2.75,10,match,36.05,321,347,374,400,0,9,9,9,9,0,,,,,,,4,0,4,0,0,21,21,1,,,,,,,,,,,,,,4,0.9913017000071704,4,0.25,0.49999999999999994,18.02146,return,2.5661751001607627,,,,,,,,,,,,,,,,,p315,21,female,left_right_width,2025-12-02_15h03.11.598,exp1,2023.1.0,60.0131668912648,
,,,,,,,,,,,,,,,,5,7.8,8.9,10,11.1,12.2,1.1,0.8500000000000001,0.25,4.65,10,initial,36.05,281,321,361,400,440,9,9,9,9,9,,,,,,,4,0,4,0,0,22,22,36,,,,,,,,,,,,,,5,1.3091590001713485,5,0.3,0.2,7.20859,return,1.5269979001022875,,,,,,,,,,,,,,,,,p315,21,female,left_right_width,2025-12-02_15h03.11.598,exp1,2023.1.0,60.0131668912648,
,,,,,,,,,,,,,,,,4,8.95,9.65,10.35,11.05,0,0.7,0.1499999999999999,0.55,2.65,10,initial,36.05,323,348,373,398,0,9,9,9,9,0,,,,,,,4,0,4,0,0,23,23,23,,,,,,,,,,,,,,4,1.4035408000927418,4,0.5,0.5,18.02146,return,0.8994801002554595,,,,,,,,,,,,,,,,,p315,21,female,left_right_width,2025-12-02_15h03.11.598,exp1,2023.1.0,60.0131668912648,
,,,,,,,,,,,,,,,,5,7.8,8.9,10,11.1,12.2,1.1,0.7000000000000001,0.4,4.800000000000001,10,initial,36.05,281,321,361,400,440,9,9,9,9,9,,,,,,,4,0,4,0,0,24,24,38,,,,,,,,,,,,,,5,1.5590045002754778,5,0.25,0.44999999999999996,16.21932,return,1.784367100102827,,,,,,,,,,,,,,,,,p315,21,female,left_right_width,2025-12-02_15h03.11.598,exp1,2023.1.0,60.0131668912648,
,,,,,,,,,,,,,,,,3,8.6,10,11.4,0,0,1.4,0.85,0.55,3.35,10,match,36.05,310,361,411,0,0,9,9,9,0,0,,,,,,,4,0,4,0,0,25,25,41,,,,,,,,,,,,,,3,1.730375800281763,3,0.25,0.44999999999999996,16.21932,return,1.147700299974531,,,,,,,,,,,,,,,,,p315,21,female,left_right_width,2025-12-02_15h03.11.598,exp1,2023.1.0,60.0131668912648,
,,,,,,,,,,,,,,,,3,9.1,10,10.9,0,0,0.9,0.35,0.55,2.35,10,initial,36.05,328,361,393,0,0,9,9,9,0,0,,,,,,,4,0,4,0,0,26,26,11,,,,,,,,,,,,,,3,0.895646900171414,3,0.3,0.44999999999999996,16.21932,return,0.9705887001473457,,,,,,,,,,,,,,,,,p315,21,female,left_right_width,2025-12-02_15h03.11.598,exp1,2023.1.0,60.0131668912648,
,,,,,,,,,,,,,,,,3,9.1,10,10.9,0,0,0.9,0.65,0.25,2.05,10,initial,36.05,328,361,393,0,0,9,9,9,0,0,,,,,,,4,0,4,0,0,27,27,13,,,,,,,,,,,,,,3,0.6839406001381576,3,0.45,0.45,16.21932,return,1.056257100077346,,,,,,,,,,,,,,,,,p315,21,female,left_right_width,2025-12-02_15h03.11.598,exp1,2023.1.0,60.0131668912648,
,,,,,,,,,,,,,,,,3,8.6,10,11.4,0,0,1.4,1.15,0.25,3.05,10,match,36.05,310,361,411,0,0,9,9,9,0,0,,,,,,,4,0,4,0,0,28,28,43,,,,,,,,,,,,,,3,1.1428922000341117,3,0.45,0.15000000000000008,5.40644,return,1.544593800092116,,,,,,,,,,,,,,,,,p315,21,female,left_right_width,2025-12-02_15h03.11.598,exp1,2023.1.0,60.0131668912648,
,,,,,,,,,,,,,,,,5,8.65,9.325,10,10.675,11.35,0.675,0.275,0.4,3.1,10,match,36.05,312,336,361,385,409,9,9,9,9,9,,,,,,,4,0,4,0,0,29,29,33,,,,,,,,,,,,,,4,0.5877017001621425,4,0.3,0.35,12.61502,return,0.8995144001673907,,,,,,,,,,,,,,,,,p315,21,female,left_right_width,2025-12-02_15h03.11.598,exp1,2023.1.0,60.0131668912648,
,,,,,,,,,,,,,,,,4,8.35,9.45,10.55,11.65,0,1.1,0.55,0.55,3.8500000000000005,10,initial,36.05,301,341,380,420,0,9,9,9,9,0,,,,,,,4,0,4,0,0,30,30,17,,,,,,,,,,,,,,4,1.1742397001944482,4,0.35,0.5499999999999999,19.82361,return,2.0532386999111623,,,,,,,,,,,,,,,,,p315,21,female,left_right_width,2025-12-02_15h03.11.598,exp1,2023.1.0,60.0131668912648,
,,,,,,,,,,,,,,,,5,8.65,9.325,10,10.675,11.35,0.675,0.125,0.55,3.25,10,match,36.05,312,336,361,385,409,9,9,9,9,9,,,,,,,4,0,4,0,0,31,31,29,,,,,,,,,,,,,,5,0.8869917001575232,5,0.35,0.49999999999999994,18.02146,return,1.8897049000952393,,,,,,,,,,,,,,,,,p315,21,female,left_right_width,2025-12-02_15h03.11.598,exp1,2023.1.0,60.0131668912648,
,,,,,,,,,,,,,,,,5,8.6,9.3,10,10.7,11.4,0.7,0.29999999999999993,0.4,3.1999999999999997,10,initial,36.05,310,335,361,386,411,9,9,9,9,9,,,,,,,4,0,4,0,0,32,32,44,,,,,,,,,,,,,,5,1.5345195003319532,5,0.3,0.35,12.61502,return,1.2645658000838012,,,,,,,,,,,,,,,,,p315,21,female,left_right_width,2025-12-02_15h03.11.598,exp1,2023.1.0,60.0131668912648,
,,,,,,,,,,,,,,,,5,7.8,8.9,10,11.1,12.2,1.1,0.55,0.55,4.95,10,initial,36.05,281,321,361,400,440,9,9,9,9,9,,,,,,,4,0,4,0,0,33,33,34,,,,,,,,,,,,,,5,1.4315585002768785,5,0.45,0.5,18.02146,return,0.7654768999200314,,,,,,,,,,,,,,,,,p315,21,female,left_right_width,2025-12-02_15h03.11.598,exp1,2023.1.0,60.0131668912648,
,,,,,,,,,,,,,,,,3,8.2,10,11.8,0,0,1.7999999999999998,1.4,0.4,4,10,match,36.05,296,361,425,0,0,9,9,9,0,0,,,,,,,4,0,4,0,0,34,34,51,,,,,,,,,,,,,,3,1.1470469001214951,3,0.4,0.4,14.41717,return,1.1491575001273304,,,,,,,,,,,,,,,,,p315,21,female,left_right_width,2025-12-02_15h03.11.598,exp1,2023.1.0,60.0131668912648,
,,,,,,,,,,,,,,,,4,9.3,9.766666666666667,10.233333333333333,10.7,0,0.4666666666666667,0.21666666666666665,0.25,1.65,10,match,36.05,335,352,369,386,0,9,9,9,9,0,,,,,,,4,0,4,0,0,35,35,8,,,,,,,,,,,,,,4,1.3852425999939442,4,0.55,0.20000000000000007,7.20859,return,1.6642450999934226,,,,,,,,,,,,,,,,,p315,21,female,left_right_width,2025-12-02_15h03.11.598,exp1,2023.1.0,60.0131668912648,
,,,,,,,,,,,,,,,,4,8.95,9.65,10.35,11.05,0,0.7,0.29999999999999993,0.4,2.5,10,initial,36.05,323,348,373,398,0,9,9,9,9,0,,,,,,,4,0,4,0,0,36,36,26,,,,,,,,,,,,,,4,1.2906440000515431,4,0.55,0.4,14.41717,return,1.6531036000233144,,,,,,,,,,,,,,,,,p315,21,female,left_right_width,2025-12-02_15h03.11.598,exp1,2023.1.0,60.0131668912648,
,,,,,,,,,,,,,,,,3,8.2,10,11.8,0,0,1.8,1.25,0.55,4.15,10,match,36.05,296,361,425,0,0,9,9,9,0,0,,,,,,,4,0,4,0,0,37,37,47,,,,,,,,,,,,,,3,1.099996300181374,3,0.5,0.5,18.02146,return,1.0239191001746804,,,,,,,,,,,,,,,,,p315,21,female,left_right_width,2025-12-02_15h03.11.598,exp1,2023.1.0,60.0131668912648,
,,,,,,,,,,,,,,,,4,9.1,9.7,10.3,10.9,0,0.5999999999999999,0.3499999999999999,0.25,2.05,10,match,36.05,328,350,371,393,0,9,9,9,9,0,,,,,,,4,0,4,0,0,38,38,14,,,,,,,,,,,,,,4,1.440406900132075,4,0.45,0.30000000000000004,10.81288,return,0.965854300186038,,,,,,,,,,,,,,,,,p315,21,female,left_right_width,2025-12-02_15h03.11.598,exp1,2023.1.0,60.0131668912648,
,,,,,,,,,,,,,,,,4,8.35,9.45,10.55,11.65,0,1.1,0.7000000000000001,0.4,3.7,10,initial,36.05,301,341,380,420,0,9,9,9,9,0,,,,,,,4,0,4,0,0,39,39,21,,,,,,,,,,,,,,4,1.1090568001382053,4,0.2,0.39999999999999997,14.41717,return,1.3373986002989113,,,,,,,,,,,,,,,,,p315,21,female,left_right_width,2025-12-02_15h03.11.598,exp1,2023.1.0,60.0131668912648,
,,,,,,,,,,,,,,,,4,8.65,9.55,10.45,11.35,0,0.9,0.65,0.25,2.95,10,initial,36.05,312,344,377,409,0,9,9,9,9,0,,,,,,,4,0,4,0,0,40,40,30,,,,,,,,,,,,,,4,0.7684166000690311,4,0.3,0.3,10.81288,return,0.8475396002177149,,,,,,,,,,,,,,,,,p315,21,female,left_right_width,2025-12-02_15h03.11.598,exp1,2023.1.0,60.0131668912648,
,,,,,,,,,,,,,,,,4,8.825,9.608333333333333,10.391666666666667,11.175,0,0.7833333333333333,0.5333333333333333,0.25,2.6,10,match,36.05,318,346,375,403,0,9,9,9,9,0,,,,,,,4,0,4,0,0,41,41,5,,,,,,,,,,,,,,4,0.6798382003325969,4,0.35,0.3,10.81288,return,1.0345729002729058,,,,,,,,,,,,,,,,,p315,21,female,left_right_width,2025-12-02_15h03.11.598,exp1,2023.1.0,60.0131668912648,
,,,,,,,,,,,,,,,,4,9.1,9.7,10.3,10.9,0,0.6000000000000001,0.20000000000000004,0.4,2.2,10,match,36.05,328,350,371,393,0,9,9,9,9,0,,,,,,,4,0,4,0,0,42,42,16,,,,,,,,,,,,,,4,0.692461000289768,4,0.45,0.45,16.21932,return,0.871716900030151,,,,,,,,,,,,,,,,,p315,21,female,left_right_width,2025-12-02_15h03.11.598,exp1,2023.1.0,60.0131668912648,
,,,,,,,,,,,,,,,,3,9.3,10,10.7,0,0,0.7,0.29999999999999993,0.4,1.8,10,initial,36.05,335,361,386,0,0,9,9,9,0,0,,,,,,,4,0,4,0,0,43,43,9,,,,,,,,,,,,,,3,1.0316262000706047,3,0.55,0.4,14.41717,return,1.1982545000500977,,,,,,,,,,,,,,,,,p315,21,female,left_right_width,2025-12-02_15h03.11.598,exp1,2023.1.0,60.0131668912648,
,,,,,,,,,,,,,,,,3,9.1,10,10.9,0,0,0.9,0.5,0.4,2.2,10,initial,36.05,328,361,393,0,0,9,9,9,0,0,,,,,,,4,0,4,0,0,44,44,15,,,,,,,,,,,,,,2,1.3434945000335574,2,0.3,0.35,12.61502,return,1.0802612002007663,,,,,,,,,,,,,,,,,p315,21,female,left_right_width,2025-12-02_15h03.11.598,exp1,2023.1.0,60.0131668912648,
,,,,,,,,,,,,,,,,3,7.8,10,12.2,0,0,2.2,1.65,0.55,4.95,10,match,36.05,281,361,440,0,0,9,9,9,0,0,,,,,,,4,0,4,0,0,45,45,35,,,,,,,,,,,,,,3,1.1424136001151055,3,0.55,0.4,14.41717,return,1.3681945002172142,,,,,,,,,,,,,,,,,p315,21,female,left_right_width,2025-12-02_15h03.11.598,exp1,2023.1.0,60.0131668912648,
,,,,,,,,,,,,,,,,5,8.95,9.475,10,10.525,11.05,0.525,0.275,0.25,2.35,10,match,36.05,323,342,361,379,398,9,9,9,9,9,,,,,,,4,0,4,0,0,46,46,25,,,,,,,,,,,,,,4,1.0690887002274394,4,0.35,0.25,9.01073,return,0.6743242002557963,,,,,,,,,,,,,,,,,p315,21,female,left_right_width,2025-12-02_15h03.11.598,exp1,2023.1.0,60.0131668912648,
,,,,,,,,,,,,,,,,4,8.65,9.55,10.45,11.35,0,0.9,0.35,0.55,3.25,10,initial,36.05,312,344,377,409,0,9,9,9,9,0,,,,,,,4,0,4,0,0,47,47,28,,,,,,,,,,,,,,4,1.208442399976775,4,0.35,0.44999999999999996,16.21932,return,1.1107348001096398,,,,,,,,,,,,,,,,,p315,21,female,left_right_width,2025-12-02_15h03.11.598,exp1,2023.1.0,60.0131668912648,
,,,,,,,,,,,,,,,,5,8.2,9.1,10,10.9,11.8,0.9,0.65,0.25,3.85,10,initial,36.05,296,328,361,393,425,9,9,9,9,9,,,,,,,4,0,4,0,0,48,48,48,,,,,,,,,,,,,,5,1.057810600148514,5,0.25,0.35,12.61502,return,1.1409567000810057,,,,,,,,,,,,,,,,,p315,21,female,left_right_width,2025-12-02_15h03.11.598,exp1,2023.1.0,60.0131668912648,
,,,,,,,,,,,,,,,,5,8.275,9.1375,10,10.8625,11.725,0.8625,0.6125,0.25,3.7,10,match,36.05,298,329,361,392,423,9,9,9,9,9,,,,,,,4,0,4,0,0,49,49,22,,,,,,,,,,,,,,5,0.697212700266391,5,0.25,0.3,10.81288,return,1.5960937002673745,,,,,,,,,,,,,,,,,p315,21,female,left_right_width,2025-12-02_15h03.11.598,exp1,2023.1.0,60.0131668912648,
,,,,,,,,,,,,,,,,3,8.2,10,11.8,0,0,1.8,1.55,0.25,3.85,10,match,36.05,296,361,425,0,0,9,9,9,0,0,,,,,,,4,0,4,0,0,50,50,49,,,,,,,,,,,,,,3,1.0784517000429332,3,0.4,0.20000000000000007,7.20859,return,1.385280900169164,,,,,,,,,,,,,,,,,p315,21,female,left_right_width,2025-12-02_15h03.11.598,exp1,2023.1.0,60.0131668912648,
,,,,,,,,,,,,,,,,4,8.9,9.633333333333333,10.366666666666667,11.1,0,0.7333333333333334,0.4833333333333334,0.25,2.45,10,match,36.05,321,347,374,400,0,9,9,9,9,0,,,,,,,4,0,4,0,0,51,51,3,,,,,,,,,,,,,,4,1.081801600055769,4,0.2,0.2,7.20859,return,0.8443331001326442,,,,,,,,,,,,,,,,,p315,21,female,left_right_width,2025-12-02_15h03.11.598,exp1,2023.1.0,60.0131668912648,
,,,,,,,,,,,,,,,,,,,,,,,,,,,,,,,,,,,,,,,,,,,,,4,0,4,0,,,,,,,,,,,,,,,,,,,,,,,,,,,,2180.8378473001067,2180.8378473001067,2180.8378473001067,,,,,,,,,,,,p315,21,female,left_right_width,2025-12-02_15h03.11.598,exp1,2023.1.0,60.0131668912648,
,,,,,,,,,,,,,,,,4,8.65,9.55,10.45,11.35,0,0.9,0.65,0.25,2.95,10,initial,36.05,312,344,377,409,0,9,9,9,9,0,,,,,,,5,0,5,0,0,0,0,30,,,,,,,,,,,,,,4,1.075723099987954,4,0.35,0.2,7.20859,return,0.9030366002116352,,,,,,,,,,,,,,,,,p315,21,female,left_right_width,2025-12-02_15h03.11.598,exp1,2023.1.0,60.0131668912648,
,,,,,,,,,,,,,,,,4,9.1,9.7,10.3,10.9,0,0.6000000000000001,0.20000000000000004,0.4,2.2,10,match,36.05,328,350,371,393,0,9,9,9,9,0,,,,,,,5,0,5,0,0,1,1,16,,,,,,,,,,,,,,4,1.8301737001165748,4,0.5,0.5,18.02146,return,0.81150360009633,,,,,,,,,,,,,,,,,p315,21,female,left_right_width,2025-12-02_15h03.11.598,exp1,2023.1.0,60.0131668912648,
,,,,,,,,,,,,,,,,5,8.6,9.3,10,10.7,11.4,0.7,0.44999999999999996,0.25,3.05,10,initial,36.05,310,335,361,386,411,9,9,9,9,9,,,,,,,5,0,5,0,0,2,2,42,,,,,,,,,,,,,,5,0.7857478000223637,5,0.4,0.20000000000000007,7.20859,return,1.1382536001037806,,,,,,,,,,,,,,,,,p315,21,female,left_right_width,2025-12-02_15h03.11.598,exp1,2023.1.0,60.0131668912648,
,,,,,,,,,,,,,,,,5,8.2,9.1,10,10.9,11.8,0.9,0.65,0.25,3.85,10,initial,36.05,296,328,361,393,425,9,9,9,9,9,,,,,,,5,0,5,0,0,3,3,48,,,,,,,,,,,,,,5,1.1325350000988692,5,0.5,0.20000000000000007,7.20859,return,1.4225953998975456,,,,,,,,,,,,,,,,,p315,21,female,left_right_width,2025-12-02_15h03.11.598,exp1,2023.1.0,60.0131668912648,
,,,,,,,,,,,,,,,,5,8.2,9.1,10,10.9,11.8,0.9,0.35,0.55,4.15,10,initial,36.05,296,328,361,393,425,9,9,9,9,9,,,,,,,5,0,5,0,0,4,4,46,,,,,,,,,,,,,,5,1.4473714001942426,5,0.55,0.55,19.82361,return,0.748852200107649,,,,,,,,,,,,,,,,,p315,21,female,left_right_width,2025-12-02_15h03.11.598,exp1,2023.1.0,60.0131668912648,
,,,,,,,,,,,,,,,,4,8.95,9.65,10.35,11.05,0,0.7,0.1499999999999999,0.55,2.65,10,initial,36.05,323,348,373,398,0,9,9,9,9,0,,,,,,,5,0,5,0,0,5,5,23,,,,,,,,,,,,,,4,1.1515596001408994,4,0.4,0.45,16.21932,return,1.104554100194946,,,,,,,,,,,,,,,,,p315,21,female,left_right_width,2025-12-02_15h03.11.598,exp1,2023.1.0,60.0131668912648,
,,,,,,,,,,,,,,,,4,8.35,9.45,10.55,11.65,0,1.1,0.55,0.55,3.8500000000000005,10,initial,36.05,301,341,380,420,0,9,9,9,9,0,,,,,,,5,0,5,0,0,6,6,17,,,,,,,,,,,,,,4,1.1429609002079815,4,0.5,0.5,18.02146,return,1.3364426002372056,,,,,,,,,,,,,,,,,p315,21,female,left_right_width,2025-12-02_15h03.11.598,exp1,2023.1.0,60.0131668912648,
,,,,,,,,,,,,,,,,3,7.800000000000001,10,12.2,0,0,2.1999999999999997,1.7999999999999998,0.4,4.8,10,match,36.05,281,361,440,0,0,9,9,9,0,0,,,,,,,5,0,5,0,0,7,7,39,,,,,,,,,,,,,,3,1.4719967001583427,3,0.4,0.4,14.41717,return,0.7720704001840204,,,,,,,,,,,,,,,,,p315,21,female,left_right_width,2025-12-02_15h03.11.598,exp1,2023.1.0,60.0131668912648,
,,,,,,,,,,,,,,,,3,8.2,10,11.8,0,0,1.8,1.55,0.25,3.85,10,match,36.05,296,361,425,0,0,9,9,9,0,0,,,,,,,5,0,5,0,0,8,8,49,,,,,,,,,,,,,,3,1.8485814002342522,3,0.55,0.20000000000000007,7.20859,return,2.4292577002197504,,,,,,,,,,,,,,,,,p315,21,female,left_right_width,2025-12-02_15h03.11.598,exp1,2023.1.0,60.0131668912648,
,,,,,,,,,,,,,,,,3,9.1,10,10.9,0,0,0.9,0.65,0.25,2.05,10,initial,36.05,328,361,393,0,0,9,9,9,0,0,,,,,,,5,0,5,0,0,9,9,13,,,,,,,,,,,,,,2,1.3628830001689494,2,0.3,0.3,10.81288,return,0.8594893999397755,,,,,,,,,,,,,,,,,p315,21,female,left_right_width,2025-12-02_15h03.11.598,exp1,2023.1.0,60.0131668912648,
,,,,,,,,,,,,,,,,5,8.35,9.175,10,10.825,11.65,0.8250000000000001,0.275,0.55,3.85,10,match,36.05,301,331,361,390,420,9,9,9,9,9,,,,,,,5,0,5,0,0,10,10,18,,,,,,,,,,,,,,5,1.1063178000040352,5,0.25,0.49999999999999994,18.02146,return,2.2132520000450313,,,,,,,,,,,,,,,,,p315,21,female,left_right_width,2025-12-02_15h03.11.598,exp1,2023.1.0,60.0131668912648,
,,,,,,,,,,,,,,,,3,9.3,10,10.7,0,0,0.7,0.1499999999999999,0.55,1.95,10,initial,36.05,335,361,386,0,0,9,9,9,0,0,,,,,,,5,0,5,0,0,11,11,6,,,,,,,,,,,,,,3,1.3643207002896816,3,0.2,0.44999999999999996,16.21932,return,1.7884011000860482,,,,,,,,,,,,,,,,,p315,21,female,left_right_width,2025-12-02_15h03.11.598,exp1,2023.1.0,60.0131668912648,
,,,,,,,,,,,,,,,,5,8.275,9.1375,10,10.8625,11.725,0.8625,0.6125,0.25,3.7,10,match,36.05,298,329,361,392,423,9,9,9,9,9,,,,,,,5,0,5,0,0,12,12,22,,,,,,,,,,,,,,4,1.371425800025463,4,0.35,0.2,7.20859,return,1.7488093001302332,,,,,,,,,,,,,,,,,p315,21,female,left_right_width,2025-12-02_15h03.11.598,exp1,2023.1.0,60.0131668912648,
,,,,,,,,,,,,,,,,5,8.6,9.3,10,10.7,11.4,0.7,0.1499999999999999,0.55,3.3499999999999996,10,initial,36.05,310,335,361,386,411,9,9,9,9,9,,,,,,,5,0,5,0,0,13,13,40,,,,,,,,,,,,,,4,1.3236847000662237,4,0.25,0.39999999999999997,14.41717,return,1.2843233002349734,,,,,,,,,,,,,,,,,p315,21,female,left_right_width,2025-12-02_15h03.11.598,exp1,2023.1.0,60.0131668912648,
,,,,,,,,,,,,,,,,4,8.9,9.633333333333333,10.366666666666667,11.1,0,0.7333333333333333,0.18333333333333326,0.55,2.75,10,match,36.05,321,347,374,400,0,9,9,9,9,0,,,,,,,5,0,5,0,0,14,14,1,,,,,,,,,,,,,,4,1.1309780001174659,4,0.2,0.49999999999999994,18.02146,return,1.6124005001038313,,,,,,,,,,,,,,,,,p315,21,female,left_right_width,2025-12-02_15h03.11.598,exp1,2023.1.0,60.0131668912648,
,,,,,,,,,,,,,,,,3,9.1,10,10.9,0,0,0.9,0.5,0.4,2.2,10,initial,36.05,328,361,393,0,0,9,9,9,0,0,,,,,,,5,0,5,0,0,15,15,15,,,,,,,,,,,,,,2,1.280851400224492,2,0.2,0.44999999999999996,16.21932,return,1.339181600138545,,,,,,,,,,,,,,,,,p315,21,female,left_right_width,2025-12-02_15h03.11.598,exp1,2023.1.0,60.0131668912648,
,,,,,,,,,,,,,,,,4,9.1,9.7,10.3,10.9,0,0.6,0.04999999999999997,0.55,2.35,10,match,36.05,328,350,371,393,0,9,9,9,9,0,,,,,,,5,0,5,0,0,16,16,12,,,,,,,,,,,,,,4,1.0638543001841754,4,0.55,0.55,19.82361,return,1.0677667001727968,,,,,,,,,,,,,,,,,p315,21,female,left_right_width,2025-12-02_15h03.11.598,exp1,2023.1.0,60.0131668912648,
,,,,,,,,,,,,,,,,3,8.6,10,11.4,0,0,1.4,1.15,0.25,3.05,10,match,36.05,310,361,411,0,0,9,9,9,0,0,,,,,,,5,0,5,0,0,17,17,43,,,,,,,,,,,,,,3,1.1731363001745194,3,0.5,0.30000000000000004,10.81288,return,1.3803274002857506,,,,,,,,,,,,,,,,,p315,21,female,left_right_width,2025-12-02_15h03.11.598,exp1,2023.1.0,60.0131668912648,
,,,,,,,,,,,,,,,,3,8.6,10,11.4,0,0,1.4,0.85,0.55,3.35,10,match,36.05,310,361,411,0,0,9,9,9,0,0,,,,,,,5,0,5,0,0,18,18,41,,,,,,,,,,,,,,2,1.1849792001303285,2,0.25,0.49999999999999994,18.02146,return,1.3749542001169175,,,,,,,,,,,,,,,,,p315,21,female,left_right_width,2025-12-02_15h03.11.598,exp1,2023.1.0,60.0131668912648,
,,,,,,,,,,,,,,,,4,8.35,9.45,10.55,11.65,0,1.1,0.7000000000000001,0.4,3.7,10,initial,36.05,301,341,380,420,0,9,9,9,9,0,,,,,,,5,0,5,0,0,19,19,21,,,,,,,,,,,,,,2,1.2695184999611229,2,0.5,0.5,18.02146,return,0.8661136000882834,,,,,,,,,,,,,,,,,p315,21,female,left_right_width,2025-12-02_15h03.11.598,exp1,2023.1.0,60.0131668912648,
,,,,,,,,,,,,,,,,4,9.3,9.766666666666667,10.233333333333333,10.7,0,0.4666666666666667,0.21666666666666665,0.25,1.65,10,match,36.05,335,352,369,386,0,9,9,9,9,0,,,,,,,5,0,5,0,0,20,20,8,,,,,,,,,,,,,,4,1.3451622002758086,4,0.55,0.25000000000000006,9.01073,return,2.344991700258106,,,,,,,,,,,,,,,,,p315,21,female,left_right_width,2025-12-02_15h03.11.598,exp1,2023.1.0,60.0131668912648,
,,,,,,,,,,,,,,,,5,8.95,9.475,10,10.525,11.05,0.525,0.125,0.4,2.5,10,match,36.05,323,342,361,379,398,9,9,9,9,9,,,,,,,5,0,5,0,0,21,21,27,,,,,,,,,,,,,,5,1.2990711000747979,5,0.55,0.25000000000000006,9.01073,return,1.6151168001815677,,,,,,,,,,,,,,,,,p315,21,female,left_right_width,2025-12-02_15h03.11.598,exp1,2023.1.0,60.0131668912648,
,,,,,,,,,,,,,,,,4,8.95,9.65,10.35,11.05,0,0.7,0.44999999999999996,0.25,2.3499999999999996,10,initial,36.05,323,348,373,398,0,9,9,9,9,0,,,,,,,5,0,5,0,0,22,22,24,,,,,,,,,,,,,,4,1.1798226002138108,4,0.45,0.25000000000000006,9.01073,return,1.0517279000487179,,,,,,,,,,,,,,,,,p315,21,female,left_right_width,2025-12-02_15h03.11.598,exp1,2023.1.0,60.0131668912648,
