amount_p,posx1_p,posx2_p,posx3_p,posx4_p,posx5_p,center_to_center_p,edge_to_edge_p,w_p,stim_lengt_p,eccentricity_p,line1_p,line2_p,line3_p,line4_p,line5_p,amount,posx1,posx2,posx3,posx4,posx5,center_to_center,edge_to_edge,w,stim_length,eccentricity,trial_type,deg_to_pix_index,posx1_in_pix,posx2_in_pix,posx3_in_pix,posx4_in_pix,posx5_in_pix,line1,line2,line3,line4,line5,posx,setsize_cobdi,trials.thisRepN,trials.thisTrialN,trials.thisN,trials.thisIndex,blocks.thisRepN,blocks.thisTrialN,blocks.thisN,blocks.thisIndex,loop.thisRepN,loop.thisTrialN,loop.thisN,loop.thisIndex,first.thisRepN,first.thisTrialN,first.thisN,first.thisIndex,second.thisRepN,second.thisTrialN,second.thisN,second.thisIndex,thisRow.t,notes,key_resp_3.started,key_resp_3.keys,key_resp_3.rt,key_resp.keys,key_resp.rt,response,starting_width_deg,response_width_degree,response_width_pixel,next_5.keys,next_5.rt,key_resp_4.keys,key_resp_4.rt,text_3.started,text_4.started,key_resp_2.started,text_2.started,key_resp_2.keys,key_resp_2.rt,adjusting.started,next.keys,next.rt,text_control2.started,key_resp.started,key_resp.corr,text_bye.started,text_bye.stopped,participant,age,gender,resp_group,date,expName,psychopyVersion,frameRate,
,,,,,,,,,,,,,,,,,,,,,,,,,,,,,,,,,,,,,,,,,,,,,,,,,,,,,,,,,,,,,,,35.804968999989796,c,161.74442659999477,,,,,,,,,,,,,,,,,,,,,,,,,p316,28,female,up_down_width,2025-12-08_15h33.54.877,exp1,2023.1.0,60.03121622553371,
5,9,9.5,10,10.5,11,0.5,0.09999999999999998,0.4,2.4,10,9,9,9,9,9,,,,,,,,,,,,,,,,,,,,,,,,,,0,0,0,8,,,,,,,,,,,,,,,,,,,,,,4,11.016942500020377,4,0.35,0.3,10.81288,return,15.23010320001049,,,,,,,,,,,,,,,,,p316,28,female,up_down_width,2025-12-08_15h33.54.877,exp1,2023.1.0,60.03121622553371,
5,8.6,9.3,10,10.7,11.4,0.7,0.29999999999999993,0.4,3.1999999999999997,10,9,9,9,9,9,,,,,,,,,,,,,,,,,,,,,,,,,,0,1,1,7,,,,,,,,,,,,,,,,,,,,,,3,3.726092700031586,3,0.45,0.4,14.41717,return,5.768326499965042,,,,,,,,,,,,,,,,,p316,28,female,up_down_width,2025-12-08_15h33.54.877,exp1,2023.1.0,60.03121622553371,
3,9.5,10,10.5,0,0,0.5,0.4,0.1,1.1,10,9,9,9,0,0,,,,,,,,,,,,,,,,,,,,,,,,,,0,2,2,0,,,,,,,,,,,,,,,,,,,,,,3,8.872918899985962,3,0.25,0.05000000000000002,1.80215,return,9.492471999954432,,,,,,,,,,,,,,,,,p316,28,female,up_down_width,2025-12-08_15h33.54.877,exp1,2023.1.0,60.03121622553371,
3,8.2,10,11.8,0,0,1.7999999999999998,1.4,0.4,4,10,9,9,9,0,0,,,,,,,,,,,,,,,,,,,,,,,,,,0,3,3,2,,,,,,,,,,,,,,,,,,,,,,2,1.9995614999788813,2,0.2,0.3,10.81288,return,5.791695799969602,,,,,,,,,,,,,,,,,p316,28,female,up_down_width,2025-12-08_15h33.54.877,exp1,2023.1.0,60.03121622553371,
4,9.25,9.75,10.25,10.75,0,0.5,0.25,0.25,1.75,10,9,9,9,9,0,,,,,,,,,,,,,,,,,,,,,,,,,,0,4,4,4,,,,,,,,,,,,,,,,,,,,,,4,3.7452555999625474,4,0.35,0.25,9.01073,return,4.731043699954171,,,,,,,,,,,,,,,,,p316,28,female,up_down_width,2025-12-08_15h33.54.877,exp1,2023.1.0,60.03121622553371,
3,9,10,11,0,0,1,0.9,0.1,2.1,10,9,9,9,0,0,,,,,,,,,,,,,,,,,,,,,,,,,,0,5,5,1,,,,,,,,,,,,,,,,,,,,,,2,2.4677680000313558,2,0.35,0.15000000000000002,5.40644,return,4.416087499994319,,,,,,,,,,,,,,,,,p316,28,female,up_down_width,2025-12-08_15h33.54.877,exp1,2023.1.0,60.03121622553371,
4,8.65,9.55,10.45,11.35,0,0.9,0.5,0.4,3.1,10,9,9,9,9,0,,,,,,,,,,,,,,,,,,,,,,,,,,0,6,6,5,,,,,,,,,,,,,,,,,,,,,,3,4.160853000008501,3,0.3,0.35,12.61502,return,3.9771712999790907,,,,,,,,,,,,,,,,,p316,28,female,up_down_width,2025-12-08_15h33.54.877,exp1,2023.1.0,60.03121622553371,
4,9.5,9.833333333333334,10.166666666666666,10.5,0,0.33333333333333337,0.23333333333333336,0.1,1.1,10,9,9,9,9,0,,,,,,,,,,,,,,,,,,,,,,,,,,0,7,7,3,,,,,,,,,,,,,,,,,,,,,,5,2.935066700039897,5,0.5,0.05000000000000007,1.80215,return,4.6416224000277,,,,,,,,,,,,,,,,,p316,28,female,up_down_width,2025-12-08_15h33.54.877,exp1,2023.1.0,60.03121622553371,
5,9.25,9.625,10,10.375,10.75,0.375,0.125,0.25,1.75,10,9,9,9,9,9,,,,,,,,,,,,,,,,,,,,,,,,,,0,8,8,6,,,,,,,,,,,,,,,,,,,,,,5,2.7682444999809377,5,0.5,0.25000000000000006,9.01073,return,5.472847700002603,,,,,,,,,,,,,,,,,p316,28,female,up_down_width,2025-12-08_15h33.54.877,exp1,2023.1.0,60.03121622553371,
,,,,,,,,,,,,,,,,,,,,,,,,,,,,,,,,,,,,,,,,,,,,,,,,,,,,,,,,,,,,,,,,,,,,,,,,,,c,222.9957460000296,,,,,,,,,,,,,,,p316,28,female,up_down_width,2025-12-08_15h33.54.877,exp1,2023.1.0,60.03121622553371,
,,,,,,,,,,,,,,,,3,9.1,10,10.9,0,0,0.9,0.5,0.4,2.2,10,initial,36.05,328,361,393,0,0,9,9,9,0,0,,,,,,,0,0,0,0,0,0,0,15,,,,,,,,,,,,,,3,1.852872000017669,3,0.5,0.4,14.41717,return,3.7940401999512687,,,,,,,,,,,,,,,,,p316,28,female,up_down_width,2025-12-08_15h33.54.877,exp1,2023.1.0,60.03121622553371,
,,,,,,,,,,,,,,,,5,8.95,9.475,10,10.525,11.05,0.525,0.125,0.4,2.5,10,match,36.05,323,342,361,379,398,9,9,9,9,9,,,,,,,0,0,0,0,0,1,1,27,,,,,,,,,,,,,,5,2.3851967999944463,5,0.45,0.30000000000000004,10.81288,return,5.568772300030105,,,,,,,,,,,,,,,,,p316,28,female,up_down_width,2025-12-08_15h33.54.877,exp1,2023.1.0,60.03121622553371,
,,,,,,,,,,,,,,,,4,8.9,9.633333333333333,10.366666666666667,11.1,0,0.7333333333333333,0.18333333333333326,0.55,2.75,10,match,36.05,321,347,374,400,0,9,9,9,9,0,,,,,,,0,0,0,0,0,2,2,1,,,,,,,,,,,,,,4,2.1845996000338346,4,0.55,0.55,19.82361,return,2.7194408000214025,,,,,,,,,,,,,,,,,p316,28,female,up_down_width,2025-12-08_15h33.54.877,exp1,2023.1.0,60.03121622553371,
,,,,,,,,,,,,,,,,3,7.8,10,12.2,0,0,2.2,1.9500000000000002,0.25,4.65,10,match,36.05,281,361,440,0,0,9,9,9,0,0,,,,,,,0,0,0,0,0,3,3,37,,,,,,,,,,,,,,3,1.8496229999582283,3,0.25,0.3,10.81288,return,3.3114744999911636,,,,,,,,,,,,,,,,,p316,28,female,up_down_width,2025-12-08_15h33.54.877,exp1,2023.1.0,60.03121622553371,
,,,,,,,,,,,,,,,,4,9.1,9.7,10.3,10.9,0,0.6000000000000001,0.20000000000000004,0.4,2.2,10,match,36.05,328,350,371,393,0,9,9,9,9,0,,,,,,,0,0,0,0,0,4,4,16,,,,,,,,,,,,,,4,2.39669900003355,4,0.35,0.35,12.61502,return,3.132017399999313,,,,,,,,,,,,,,,,,p316,28,female,up_down_width,2025-12-08_15h33.54.877,exp1,2023.1.0,60.03121622553371,
,,,,,,,,,,,,,,,,5,8.2,9.1,10,10.9,11.8,0.9,0.35,0.55,4.15,10,initial,36.05,296,328,361,393,425,9,9,9,9,9,,,,,,,0,0,0,0,0,5,5,46,,,,,,,,,,,,,,5,2.42200610000873,5,0.2,0.49999999999999994,18.02146,return,3.2681447999784723,,,,,,,,,,,,,,,,,p316,28,female,up_down_width,2025-12-08_15h33.54.877,exp1,2023.1.0,60.03121622553371,
,,,,,,,,,,,,,,,,3,8.2,10,11.8,0,0,1.8,1.25,0.55,4.15,10,match,36.05,296,361,425,0,0,9,9,9,0,0,,,,,,,0,0,0,0,0,6,6,47,,,,,,,,,,,,,,3,1.9487594999955036,3,0.4,0.5,18.02146,return,3.2948475000448525,,,,,,,,,,,,,,,,,p316,28,female,up_down_width,2025-12-08_15h33.54.877,exp1,2023.1.0,60.03121622553371,
,,,,,,,,,,,,,,,,5,8.35,9.175,10,10.825,11.65,0.8250000000000001,0.275,0.55,3.85,10,match,36.05,301,331,361,390,420,9,9,9,9,9,,,,,,,0,0,0,0,0,7,7,18,,,,,,,,,,,,,,4,1.0844438000349328,4,0.25,0.44999999999999996,16.21932,return,3.0876542999758385,,,,,,,,,,,,,,,,,p316,28,female,up_down_width,2025-12-08_15h33.54.877,exp1,2023.1.0,60.03121622553371,
,,,,,,,,,,,,,,,,3,9.3,10,10.7,0,0,0.7,0.44999999999999996,0.25,1.65,10,initial,36.05,335,361,386,0,0,9,9,9,0,0,,,,,,,0,0,0,0,0,8,8,7,,,,,,,,,,,,,,2,1.9091398000018671,2,0.4,0.20000000000000007,7.20859,return,2.2324799000052735,,,,,,,,,,,,,,,,,p316,28,female,up_down_width,2025-12-08_15h33.54.877,exp1,2023.1.0,60.03121622553371,
,,,,,,,,,,,,,,,,4,8.35,9.45,10.55,11.65,0,1.1,0.8500000000000001,0.25,3.5500000000000003,10,initial,36.05,301,341,380,420,0,9,9,9,9,0,,,,,,,0,0,0,0,0,9,9,19,,,,,,,,,,,,,,3,1.6806137000094168,3,0.4,0.20000000000000007,7.20859,return,2.141659900022205,,,,,,,,,,,,,,,,,p316,28,female,up_down_width,2025-12-08_15h33.54.877,exp1,2023.1.0,60.03121622553371,
,,,,,,,,,,,,,,,,3,7.8,10,12.2,0,0,2.2,1.65,0.55,4.95,10,match,36.05,281,361,440,0,0,9,9,9,0,0,,,,,,,0,0,0,0,0,10,10,35,,,,,,,,,,,,,,2,1.7430287000024691,2,0.5,0.7500000000000002,27.0322,return,1.7034351999755017,,,,,,,,,,,,,,,,,p316,28,female,up_down_width,2025-12-08_15h33.54.877,exp1,2023.1.0,60.03121622553371,
,,,,,,,,,,,,,,,,3,8.2,10,11.8,0,0,1.8,1.55,0.25,3.85,10,match,36.05,296,361,425,0,0,9,9,9,0,0,,,,,,,0,0,0,0,0,11,11,49,,,,,,,,,,,,,,3,1.9953326999675483,3,0.4,0.25000000000000006,9.01073,return,2.2655143000301905,,,,,,,,,,,,,,,,,p316,28,female,up_down_width,2025-12-08_15h33.54.877,exp1,2023.1.0,60.03121622553371,
,,,,,,,,,,,,,,,,3,9.1,10,10.9,0,0,0.9,0.65,0.25,2.05,10,initial,36.05,328,361,393,0,0,9,9,9,0,0,,,,,,,0,0,0,0,0,12,12,13,,,,,,,,,,,,,,3,1.074913899996318,3,0.35,0.2,7.20859,return,3.2550201999838464,,,,,,,,,,,,,,,,,p316,28,female,up_down_width,2025-12-08_15h33.54.877,exp1,2023.1.0,60.03121622553371,
,,,,,,,,,,,,,,,,4,8.9,9.633333333333333,10.366666666666667,11.1,0,0.7333333333333334,0.4833333333333334,0.25,2.45,10,match,36.05,321,347,374,400,0,9,9,9,9,0,,,,,,,0,0,0,0,0,13,13,3,,,,,,,,,,,,,,5,1.8187344000325538,5,0.55,0.25000000000000006,9.01073,return,4.145908200007398,,,,,,,,,,,,,,,,,p316,28,female,up_down_width,2025-12-08_15h33.54.877,exp1,2023.1.0,60.03121622553371,
,,,,,,,,,,,,,,,,3,7.800000000000001,10,12.2,0,0,2.1999999999999997,1.7999999999999998,0.4,4.8,10,match,36.05,281,361,440,0,0,9,9,9,0,0,,,,,,,0,0,0,0,0,14,14,39,,,,,,,,,,,,,,3,1.7971072000218555,3,0.25,0.6,21.62576,return,2.652303999988362,,,,,,,,,,,,,,,,,p316,28,female,up_down_width,2025-12-08_15h33.54.877,exp1,2023.1.0,60.03121622553371,
,,,,,,,,,,,,,,,,3,8.6,10,11.4,0,0,1.4,0.85,0.55,3.35,10,match,36.05,310,361,411,0,0,9,9,9,0,0,,,,,,,0,0,0,0,0,15,15,41,,,,,,,,,,,,,,3,1.2952624000026844,3,0.3,0.7500000000000001,27.0322,return,2.3788838000036776,,,,,,,,,,,,,,,,,p316,28,female,up_down_width,2025-12-08_15h33.54.877,exp1,2023.1.0,60.03121622553371,
,,,,,,,,,,,,,,,,5,8.6,9.3,10,10.7,11.4,0.7,0.29999999999999993,0.4,3.1999999999999997,10,initial,36.05,310,335,361,386,411,9,9,9,9,9,,,,,,,0,0,0,0,0,16,16,44,,,,,,,,,,,,,,5,3.5243653000216,5,0.5,0.5,18.02146,return,1.3176992999506183,,,,,,,,,,,,,,,,,p316,28,female,up_down_width,2025-12-08_15h33.54.877,exp1,2023.1.0,60.03121622553371,
,,,,,,,,,,,,,,,,4,8.95,9.65,10.35,11.05,0,0.7,0.29999999999999993,0.4,2.5,10,initial,36.05,323,348,373,398,0,9,9,9,9,0,,,,,,,0,0,0,0,0,17,17,26,,,,,,,,,,,,,,4,1.7684359000413679,4,0.3,0.49999999999999994,18.02146,return,5.632344999990892,,,,,,,,,,,,,,,,,p316,28,female,up_down_width,2025-12-08_15h33.54.877,exp1,2023.1.0,60.03121622553371,
,,,,,,,,,,,,,,,,5,7.8,8.9,10,11.1,12.2,1.1,0.8500000000000001,0.25,4.65,10,initial,36.05,281,321,361,400,440,9,9,9,9,9,,,,,,,0,0,0,0,0,18,18,36,,,,,,,,,,,,,,6,2.711096200044267,6,0.4,0.20000000000000007,7.20859,return,2.4901403000112623,,,,,,,,,,,,,,,,,p316,28,female,up_down_width,2025-12-08_15h33.54.877,exp1,2023.1.0,60.03121622553371,
,,,,,,,,,,,,,,,,4,8.35,9.45,10.55,11.65,0,1.1,0.55,0.55,3.8500000000000005,10,initial,36.05,301,341,380,420,0,9,9,9,9,0,,,,,,,0,0,0,0,0,19,19,17,,,,,,,,,,,,,,4,1.4491862000431865,4,0.45,0.35000000000000003,12.61502,return,2.9106377999996766,,,,,,,,,,,,,,,,,p316,28,female,up_down_width,2025-12-08_15h33.54.877,exp1,2023.1.0,60.03121622553371,
,,,,,,,,,,,,,,,,4,8.95,9.65,10.35,11.05,0,0.7,0.1499999999999999,0.55,2.65,10,initial,36.05,323,348,373,398,0,9,9,9,9,0,,,,,,,0,0,0,0,0,20,20,23,,,,,,,,,,,,,,4,2.1727417999645695,4,0.5,0.6000000000000001,21.62576,return,2.2292307000025176,,,,,,,,,,,,,,,,,p316,28,female,up_down_width,2025-12-08_15h33.54.877,exp1,2023.1.0,60.03121622553371,
,,,,,,,,,,,,,,,,5,8.2,9.1,10,10.9,11.8,0.9,0.5,0.4,4,10,initial,36.05,296,328,361,393,425,9,9,9,9,9,,,,,,,0,0,0,0,0,21,21,50,,,,,,,,,,,,,,5,1.1093617000151426,5,0.4,0.5,18.02146,return,2.7443259000428952,,,,,,,,,,,,,,,,,p316,28,female,up_down_width,2025-12-08_15h33.54.877,exp1,2023.1.0,60.03121622553371,
,,,,,,,,,,,,,,,,5,8.6,9.3,10,10.7,11.4,0.7,0.44999999999999996,0.25,3.05,10,initial,36.05,310,335,361,386,411,9,9,9,9,9,,,,,,,0,0,0,0,0,22,22,42,,,,,,,,,,,,,,5,1.8953177999937907,5,0.5,0.25000000000000006,9.01073,return,4.219291500048712,,,,,,,,,,,,,,,,,p316,28,female,up_down_width,2025-12-08_15h33.54.877,exp1,2023.1.0,60.03121622553371,
,,,,,,,,,,,,,,,,4,8.65,9.55,10.45,11.35,0,0.9,0.65,0.25,2.95,10,initial,36.05,312,344,377,409,0,9,9,9,9,0,,,,,,,0,0,0,0,0,23,23,30,,,,,,,,,,,,,,4,3.8586501000099815,4,0.55,0.25000000000000006,9.01073,return,3.190186600026209,,,,,,,,,,,,,,,,,p316,28,female,up_down_width,2025-12-08_15h33.54.877,exp1,2023.1.0,60.03121622553371,
,,,,,,,,,,,,,,,,4,8.825,9.608333333333333,10.391666666666667,11.175,0,0.7833333333333333,0.5333333333333333,0.25,2.6,10,match,36.05,318,346,375,403,0,9,9,9,9,0,,,,,,,0,0,0,0,0,24,24,5,,,,,,,,,,,,,,5,2.0954933000029996,5,0.45,0.20000000000000007,7.20859,return,2.4276230999967083,,,,,,,,,,,,,,,,,p316,28,female,up_down_width,2025-12-08_15h33.54.877,exp1,2023.1.0,60.03121622553371,
,,,,,,,,,,,,,,,,3,9.1,10,10.9,0,0,0.9,0.35,0.55,2.35,10,initial,36.05,328,361,393,0,0,9,9,9,0,0,,,,,,,0,0,0,0,0,25,25,11,,,,,,,,,,,,,,2,2.2442146000103094,2,0.55,0.6500000000000001,23.4279,return,1.8801236000144854,,,,,,,,,,,,,,,,,p316,28,female,up_down_width,2025-12-08_15h33.54.877,exp1,2023.1.0,60.03121622553371,
,,,,,,,,,,,,,,,,3,8.9,10,11.1,0,0,1.1,0.8500000000000001,0.25,2.45,10,initial,36.05,321,361,400,0,0,9,9,9,0,0,,,,,,,0,0,0,0,0,26,26,2,,,,,,,,,,,,,,3,1.5736604999983683,3,0.4,0.25000000000000006,9.01073,return,1.4446749999769963,,,,,,,,,,,,,,,,,p316,28,female,up_down_width,2025-12-08_15h33.54.877,exp1,2023.1.0,60.03121622553371,
,,,,,,,,,,,,,,,,4,9.1,9.7,10.3,10.9,0,0.6,0.04999999999999997,0.55,2.35,10,match,36.05,328,350,371,393,0,9,9,9,9,0,,,,,,,0,0,0,0,0,27,27,12,,,,,,,,,,,,,,3,1.8068562999833375,3,0.25,0.9000000000000002,32.43864,return,3.076162400015164,,,,,,,,,,,,,,,,,p316,28,female,up_down_width,2025-12-08_15h33.54.877,exp1,2023.1.0,60.03121622553371,
,,,,,,,,,,,,,,,,5,8.2,9.1,10,10.9,11.8,0.9,0.65,0.25,3.85,10,initial,36.05,296,328,361,393,425,9,9,9,9,9,,,,,,,0,0,0,0,0,28,28,48,,,,,,,,,,,,,,5,2.140963899961207,5,0.55,0.25000000000000006,9.01073,return,2.5341226999880746,,,,,,,,,,,,,,,,,p316,28,female,up_down_width,2025-12-08_15h33.54.877,exp1,2023.1.0,60.03121622553371,
,,,,,,,,,,,,,,,,5,8.65,9.325,10,10.675,11.35,0.675,0.125,0.55,3.25,10,match,36.05,312,336,361,385,409,9,9,9,9,9,,,,,,,0,0,0,0,0,29,29,29,,,,,,,,,,,,,,4,1.6822020999970846,4,0.4,0.7500000000000002,27.0322,return,2.9254952000337653,,,,,,,,,,,,,,,,,p316,28,female,up_down_width,2025-12-08_15h33.54.877,exp1,2023.1.0,60.03121622553371,
,,,,,,,,,,,,,,,,3,9.3,10,10.7,0,0,0.7,0.1499999999999999,0.55,1.95,10,initial,36.05,335,361,386,0,0,9,9,9,0,0,,,,,,,0,0,0,0,0,30,30,6,,,,,,,,,,,,,,3,1.433833900024183,3,0.55,0.7500000000000002,27.0322,return,1.6477209000149742,,,,,,,,,,,,,,,,,p316,28,female,up_down_width,2025-12-08_15h33.54.877,exp1,2023.1.0,60.03121622553371,
,,,,,,,,,,,,,,,,4,9.3,9.766666666666667,10.233333333333333,10.7,0,0.4666666666666667,0.21666666666666665,0.25,1.65,10,match,36.05,335,352,369,386,0,9,9,9,9,0,,,,,,,0,0,0,0,0,31,31,8,,,,,,,,,,,,,,4,1.8708775999839418,4,0.35,0.35,12.61502,return,3.411219700006768,,,,,,,,,,,,,,,,,p316,28,female,up_down_width,2025-12-08_15h33.54.877,exp1,2023.1.0,60.03121622553371,
,,,,,,,,,,,,,,,,3,8.525,10,11.475,0,0,1.475,1.225,0.25,3.2,10,match,36.05,307,361,414,0,0,9,9,9,0,0,,,,,,,0,0,0,0,0,32,32,45,,,,,,,,,,,,,,3,1.2615067000151612,3,0.5,0.20000000000000007,7.20859,return,4.55551509995712,,,,,,,,,,,,,,,,,p316,28,female,up_down_width,2025-12-08_15h33.54.877,exp1,2023.1.0,60.03121622553371,
,,,,,,,,,,,,,,,,4,8.65,9.55,10.45,11.35,0,0.9,0.35,0.55,3.25,10,initial,36.05,312,344,377,409,0,9,9,9,9,0,,,,,,,0,0,0,0,0,33,33,28,,,,,,,,,,,,,,3,1.4183626000303775,3,0.3,0.5499999999999999,19.82361,return,3.5207983999862336,,,,,,,,,,,,,,,,,p316,28,female,up_down_width,2025-12-08_15h33.54.877,exp1,2023.1.0,60.03121622553371,
,,,,,,,,,,,,,,,,3,8.9,10,11.1,0,0,1.1,0.55,0.55,2.75,10,initial,36.05,321,361,400,0,0,9,9,9,0,0,,,,,,,0,0,0,0,0,34,34,0,,,,,,,,,,,,,,3,1.5368857000139542,3,0.55,0.7000000000000002,25.23005,return,1.8902521000127308,,,,,,,,,,,,,,,,,p316,28,female,up_down_width,2025-12-08_15h33.54.877,exp1,2023.1.0,60.03121622553371,
,,,,,,,,,,,,,,,,3,8.2,10,11.8,0,0,1.7999999999999998,1.4,0.4,4,10,match,36.05,296,361,425,0,0,9,9,9,0,0,,,,,,,0,0,0,0,0,35,35,51,,,,,,,,,,,,,,2,1.3220825000316836,2,0.25,0.7500000000000001,27.0322,return,3.7324388999841176,,,,,,,,,,,,,,,,,p316,28,female,up_down_width,2025-12-08_15h33.54.877,exp1,2023.1.0,60.03121622553371,
,,,,,,,,,,,,,,,,5,8.95,9.475,10,10.525,11.05,0.525,0.275,0.25,2.35,10,match,36.05,323,342,361,379,398,9,9,9,9,9,,,,,,,0,0,0,0,0,36,36,25,,,,,,,,,,,,,,6,2.107295499998145,6,0.2,0.15000000000000002,5.40644,return,3.542763500008732,,,,,,,,,,,,,,,,,p316,28,female,up_down_width,2025-12-08_15h33.54.877,exp1,2023.1.0,60.03121622553371,
,,,,,,,,,,,,,,,,5,8.275,9.1375,10,10.8625,11.725,0.8625,0.6125,0.25,3.7,10,match,36.05,298,329,361,392,423,9,9,9,9,9,,,,,,,0,0,0,0,0,37,37,22,,,,,,,,,,,,,,4,2.0494966999976896,4,0.55,0.20000000000000007,7.20859,return,2.319398600026034,,,,,,,,,,,,,,,,,p316,28,female,up_down_width,2025-12-08_15h33.54.877,exp1,2023.1.0,60.03121622553371,
,,,,,,,,,,,,,,,,4,8.65,9.55,10.45,11.35,0,0.9,0.5,0.4,3.1,10,initial,36.05,312,344,377,409,0,9,9,9,9,0,,,,,,,0,0,0,0,0,38,38,32,,,,,,,,,,,,,,4,1.4452882999903522,4,0.3,0.35,12.61502,return,3.0991686999914236,,,,,,,,,,,,,,,,,p316,28,female,up_down_width,2025-12-08_15h33.54.877,exp1,2023.1.0,60.03121622553371,
,,,,,,,,,,,,,,,,3,8.9,10,11.1,0,0,1.1,0.7000000000000001,0.4,2.6000000000000005,10,initial,36.05,321,361,400,0,0,9,9,9,0,0,,,,,,,0,0,0,0,0,39,39,4,,,,,,,,,,,,,,3,1.249534600006882,3,0.2,0.39999999999999997,14.41717,return,2.7661124000442214,,,,,,,,,,,,,,,,,p316,28,female,up_down_width,2025-12-08_15h33.54.877,exp1,2023.1.0,60.03121622553371,
,,,,,,,,,,,,,,,,3,8.6,10,11.4,0,0,1.4,1.15,0.25,3.05,10,match,36.05,310,361,411,0,0,9,9,9,0,0,,,,,,,0,0,0,0,0,40,40,43,,,,,,,,,,,,,,2,1.9487689000088722,2,0.45,0.4,14.41717,return,1.8542872000252828,,,,,,,,,,,,,,,,,p316,28,female,up_down_width,2025-12-08_15h33.54.877,exp1,2023.1.0,60.03121622553371,
,,,,,,,,,,,,,,,,4,8.35,9.45,10.55,11.65,0,1.1,0.7000000000000001,0.4,3.7,10,initial,36.05,301,341,380,420,0,9,9,9,9,0,,,,,,,0,0,0,0,0,41,41,21,,,,,,,,,,,,,,3,1.697689699998591,3,0.3,0.39999999999999997,14.41717,return,1.8845412000082433,,,,,,,,,,,,,,,,,p316,28,female,up_down_width,2025-12-08_15h33.54.877,exp1,2023.1.0,60.03121622553371,
,,,,,,,,,,,,,,,,5,7.8,8.9,10,11.1,12.2,1.1,0.55,0.55,4.95,10,initial,36.05,281,321,361,400,440,9,9,9,9,9,,,,,,,0,0,0,0,0,42,42,34,,,,,,,,,,,,,,4,2.4732383000082336,4,0.25,0.49999999999999994,18.02146,return,3.236479600018356,,,,,,,,,,,,,,,,,p316,28,female,up_down_width,2025-12-08_15h33.54.877,exp1,2023.1.0,60.03121622553371,
,,,,,,,,,,,,,,,,5,7.8,8.9,10,11.1,12.2,1.1,0.7000000000000001,0.4,4.800000000000001,10,initial,36.05,281,321,361,400,440,9,9,9,9,9,,,,,,,0,0,0,0,0,43,43,38,,,,,,,,,,,,,,5,1.4991863999748603,5,0.5,0.6000000000000001,21.62576,return,3.3100613999995403,,,,,,,,,,,,,,,,,p316,28,female,up_down_width,2025-12-08_15h33.54.877,exp1,2023.1.0,60.03121622553371,
,,,,,,,,,,,,,,,,3,9.3,10,10.7,0,0,0.7,0.29999999999999993,0.4,1.8,10,initial,36.05,335,361,386,0,0,9,9,9,0,0,,,,,,,0,0,0,0,0,44,44,9,,,,,,,,,,,,,,3,1.4208660000003874,3,0.2,0.39999999999999997,14.41717,return,2.2104465999873355,,,,,,,,,,,,,,,,,p316,28,female,up_down_width,2025-12-08_15h33.54.877,exp1,2023.1.0,60.03121622553371,
,,,,,,,,,,,,,,,,4,9.3,9.766666666666667,10.233333333333333,10.7,0,0.4666666666666667,0.06666666666666665,0.4,1.8,10,match,36.05,335,352,369,386,0,9,9,9,9,0,,,,,,,0,0,0,0,0,45,45,10,,,,,,,,,,,,,,4,2.0862493999884464,4,0.4,0.45,16.21932,return,1.2337112000095658,,,,,,,,,,,,,,,,,p316,28,female,up_down_width,2025-12-08_15h33.54.877,exp1,2023.1.0,60.03121622553371,
,,,,,,,,,,,,,,,,4,9.1,9.7,10.3,10.9,0,0.5999999999999999,0.3499999999999999,0.25,2.05,10,match,36.05,328,350,371,393,0,9,9,9,9,0,,,,,,,0,0,0,0,0,46,46,14,,,,,,,,,,,,,,4,2.8018586999969557,4,0.45,0.25000000000000006,9.01073,return,2.2409438000177033,,,,,,,,,,,,,,,,,p316,28,female,up_down_width,2025-12-08_15h33.54.877,exp1,2023.1.0,60.03121622553371,
,,,,,,,,,,,,,,,,5,8.65,9.325,10,10.675,11.35,0.675,0.42500000000000004,0.25,2.95,10,match,36.05,312,336,361,385,409,9,9,9,9,9,,,,,,,0,0,0,0,0,47,47,31,,,,,,,,,,,,,,5,1.2143451999872923,5,0.5,0.30000000000000004,10.81288,return,3.548786800005473,,,,,,,,,,,,,,,,,p316,28,female,up_down_width,2025-12-08_15h33.54.877,exp1,2023.1.0,60.03121622553371,
,,,,,,,,,,,,,,,,5,8.65,9.325,10,10.675,11.35,0.675,0.275,0.4,3.1,10,match,36.05,312,336,361,385,409,9,9,9,9,9,,,,,,,0,0,0,0,0,48,48,33,,,,,,,,,,,,,,5,1.4726287999656051,5,0.4,0.4,14.41717,return,3.892825300048571,,,,,,,,,,,,,,,,,p316,28,female,up_down_width,2025-12-08_15h33.54.877,exp1,2023.1.0,60.03121622553371,
,,,,,,,,,,,,,,,,4,8.95,9.65,10.35,11.05,0,0.7,0.44999999999999996,0.25,2.3499999999999996,10,initial,36.05,323,348,373,398,0,9,9,9,9,0,,,,,,,0,0,0,0,0,49,49,24,,,,,,,,,,,,,,3,1.3942899000248872,3,0.35,0.25,9.01073,return,1.4966245999676175,,,,,,,,,,,,,,,,,p316,28,female,up_down_width,2025-12-08_15h33.54.877,exp1,2023.1.0,60.03121622553371,
,,,,,,,,,,,,,,,,5,8.35,9.175,10,10.825,11.65,0.825,0.575,0.25,3.55,10,match,36.05,301,331,361,390,420,9,9,9,9,9,,,,,,,0,0,0,0,0,50,50,20,,,,,,,,,,,,,,5,3.4309932999894954,5,0.55,0.25000000000000006,9.01073,return,2.3161055999808013,,,,,,,,,,,,,,,,,p316,28,female,up_down_width,2025-12-08_15h33.54.877,exp1,2023.1.0,60.03121622553371,
,,,,,,,,,,,,,,,,5,8.6,9.3,10,10.7,11.4,0.7,0.1499999999999999,0.55,3.3499999999999996,10,initial,36.05,310,335,361,386,411,9,9,9,9,9,,,,,,,0,0,0,0,0,51,51,40,,,,,,,,,,,,,,5,1.3993974000331946,5,0.5,0.8500000000000003,30.63649,return,2.0779733000090346,,,,,,,,,,,,,,,,,p316,28,female,up_down_width,2025-12-08_15h33.54.877,exp1,2023.1.0,60.03121622553371,
,,,,,,,,,,,,,,,,,,,,,,,,,,,,,,,,,,,,,,,,,,,,,0,0,0,0,,,,,,,,,,,,,,,,,,,,,,,,,,,,869.6834602999734,869.6834602999734,869.6834602999734,,,,,,,,,,,,p316,28,female,up_down_width,2025-12-08_15h33.54.877,exp1,2023.1.0,60.03121622553371,
,,,,,,,,,,,,,,,,5,8.65,9.325,10,10.675,11.35,0.675,0.42500000000000004,0.25,2.95,10,match,36.05,312,336,361,385,409,9,9,9,9,9,,,,,,,1,0,1,0,0,0,0,31,,,,,,,,,,,,,,5,2.722955400007777,5,0.2,0.2,7.20859,return,2.30852760002017,,,,,,,,,,,,,,,,,p316,28,female,up_down_width,2025-12-08_15h33.54.877,exp1,2023.1.0,60.03121622553371,
,,,,,,,,,,,,,,,,3,9.3,10,10.7,0,0,0.7,0.1499999999999999,0.55,1.95,10,initial,36.05,335,361,386,0,0,9,9,9,0,0,,,,,,,1,0,1,0,0,1,1,6,,,,,,,,,,,,,,3,1.4396269000135362,3,0.4,0.7000000000000002,25.23005,return,1.6515591000206769,,,,,,,,,,,,,,,,,p316,28,female,up_down_width,2025-12-08_15h33.54.877,exp1,2023.1.0,60.03121622553371,
,,,,,,,,,,,,,,,,5,8.95,9.475,10,10.525,11.05,0.525,0.275,0.25,2.35,10,match,36.05,323,342,361,379,398,9,9,9,9,9,,,,,,,1,0,1,0,0,2,2,25,,,,,,,,,,,,,,5,1.3961979000014253,5,0.2,0.25,9.01073,return,1.4509669999824837,,,,,,,,,,,,,,,,,p316,28,female,up_down_width,2025-12-08_15h33.54.877,exp1,2023.1.0,60.03121622553371,
,,,,,,,,,,,,,,,,3,7.8,10,12.2,0,0,2.2,1.65,0.55,4.95,10,match,36.05,281,361,440,0,0,9,9,9,0,0,,,,,,,1,0,1,0,0,3,3,35,,,,,,,,,,,,,,3,1.896338000020478,3,0.25,0.7500000000000001,27.0322,return,3.6275935999583453,,,,,,,,,,,,,,,,,p316,28,female,up_down_width,2025-12-08_15h33.54.877,exp1,2023.1.0,60.03121622553371,
,,,,,,,,,,,,,,,,4,9.1,9.7,10.3,10.9,0,0.6000000000000001,0.20000000000000004,0.4,2.2,10,match,36.05,328,350,371,393,0,9,9,9,9,0,,,,,,,1,0,1,0,0,4,4,16,,,,,,,,,,,,,,3,1.3774669999838807,3,0.45,0.55,19.82361,return,1.3061718000099063,,,,,,,,,,,,,,,,,p316,28,female,up_down_width,2025-12-08_15h33.54.877,exp1,2023.1.0,60.03121622553371,
,,,,,,,,,,,,,,,,5,8.65,9.325,10,10.675,11.35,0.675,0.125,0.55,3.25,10,match,36.05,312,336,361,385,409,9,9,9,9,9,,,,,,,1,0,1,0,0,5,5,29,,,,,,,,,,,,,,4,1.2081140999798663,4,0.2,0.65,23.4279,return,2.726241199998185,,,,,,,,,,,,,,,,,p316,28,female,up_down_width,2025-12-08_15h33.54.877,exp1,2023.1.0,60.03121622553371,
,,,,,,,,,,,,,,,,5,8.35,9.175,10,10.825,11.65,0.8250000000000001,0.275,0.55,3.85,10,match,36.05,301,331,361,390,420,9,9,9,9,9,,,,,,,1,0,1,0,0,6,6,18,,,,,,,,,,,,,,5,1.271268800017424,5,0.5,0.7500000000000002,27.0322,return,1.3956370000378229,,,,,,,,,,,,,,,,,p316,28,female,up_down_width,2025-12-08_15h33.54.877,exp1,2023.1.0,60.03121622553371,
,,,,,,,,,,,,,,,,4,8.825,9.608333333333333,10.391666666666667,11.175,0,0.7833333333333333,0.5333333333333333,0.25,2.6,10,match,36.05,318,346,375,403,0,9,9,9,9,0,,,,,,,1,0,1,0,0,7,7,5,,,,,,,,,,,,,,4,3.5808862000121735,4,0.55,0.20000000000000007,7.20859,return,3.084378600004129,,,,,,,,,,,,,,,,,p316,28,female,up_down_width,2025-12-08_15h33.54.877,exp1,2023.1.0,60.03121622553371,
,,,,,,,,,,,,,,,,4,8.35,9.45,10.55,11.65,0,1.1,0.8500000000000001,0.25,3.5500000000000003,10,initial,36.05,301,341,380,420,0,9,9,9,9,0,,,,,,,1,0,1,0,0,8,8,19,,,,,,,,,,,,,,4,2.680962999991607,4,0.25,0.2,7.20859,return,2.1582227000035346,,,,,,,,,,,,,,,,,p316,28,female,up_down_width,2025-12-08_15h33.54.877,exp1,2023.1.0,60.03121622553371,
,,,,,,,,,,,,,,,,5,8.6,9.3,10,10.7,11.4,0.7,0.29999999999999993,0.4,3.1999999999999997,10,initial,36.05,310,335,361,386,411,9,9,9,9,9,,,,,,,1,0,1,0,0,9,9,44,,,,,,,,,,,,,,6,1.8446071000071242,6,0.35,0.3,10.81288,return,3.098056100017857,,,,,,,,,,,,,,,,,p316,28,female,up_down_width,2025-12-08_15h33.54.877,exp1,2023.1.0,60.03121622553371,
,,,,,,,,,,,,,,,,4,8.65,9.55,10.45,11.35,0,0.9,0.5,0.4,3.1,10,initial,36.05,312,344,377,409,0,9,9,9,9,0,,,,,,,1,0,1,0,0,10,10,32,,,,,,,,,,,,,,3,3.87217479996616,3,0.35,0.39999999999999997,14.41717,return,2.18205790000502,,,,,,,,,,,,,,,,,p316,28,female,up_down_width,2025-12-08_15h33.54.877,exp1,2023.1.0,60.03121622553371,
,,,,,,,,,,,,,,,,4,9.3,9.766666666666667,10.233333333333333,10.7,0,0.4666666666666667,0.06666666666666665,0.4,1.8,10,match,36.05,335,352,369,386,0,9,9,9,9,0,,,,,,,1,0,1,0,0,11,11,10,,,,,,,,,,,,,,4,1.4027723000035621,4,0.2,0.7000000000000001,25.23005,return,4.482399799977429,,,,,,,,,,,,,,,,,p316,28,female,up_down_width,2025-12-08_15h33.54.877,exp1,2023.1.0,60.03121622553371,
,,,,,,,,,,,,,,,,4,8.9,9.633333333333333,10.366666666666667,11.1,0,0.7333333333333333,0.18333333333333326,0.55,2.75,10,match,36.05,321,347,374,400,0,9,9,9,9,0,,,,,,,1,0,1,0,0,12,12,1,,,,,,,,,,,,,,4,1.3238739999942482,4,0.55,0.8000000000000003,28.83434,return,2.2773493999848142,,,,,,,,,,,,,,,,,p316,28,female,up_down_width,2025-12-08_15h33.54.877,exp1,2023.1.0,60.03121622553371,
,,,,,,,,,,,,,,,,5,8.65,9.325,10,10.675,11.35,0.675,0.275,0.4,3.1,10,match,36.05,312,336,361,385,409,9,9,9,9,9,,,,,,,1,0,1,0,0,13,13,33,,,,,,,,,,,,,,6,2.4715502000181004,6,0.35,0.49999999999999994,18.02146,return,1.842917000001762,,,,,,,,,,,,,,,,,p316,28,female,up_down_width,2025-12-08_15h33.54.877,exp1,2023.1.0,60.03121622553371,
,,,,,,,,,,,,,,,,4,9.3,9.766666666666667,10.233333333333333,10.7,0,0.4666666666666667,0.21666666666666665,0.25,1.65,10,match,36.05,335,352,369,386,0,9,9,9,9,0,,,,,,,1,0,1,0,0,14,14,8,,,,,,,,,,,,,,4,1.841688799962867,4,0.2,0.3,10.81288,return,2.2296210000058636,,,,,,,,,,,,,,,,,p316,28,female,up_down_width,2025-12-08_15h33.54.877,exp1,2023.1.0,60.03121622553371,
,,,,,,,,,,,,,,,,5,8.6,9.3,10,10.7,11.4,0.7,0.1499999999999999,0.55,3.3499999999999996,10,initial,36.05,310,335,361,386,411,9,9,9,9,9,,,,,,,1,0,1,0,0,15,15,40,,,,,,,,,,,,,,3,2.7724355999962427,3,0.4,0.6000000000000001,21.62576,return,1.508514599991031,,,,,,,,,,,,,,,,,p316,28,female,up_down_width,2025-12-08_15h33.54.877,exp1,2023.1.0,60.03121622553371,
,,,,,,,,,,,,,,,,5,8.2,9.1,10,10.9,11.8,0.9,0.5,0.4,4,10,initial,36.05,296,328,361,393,425,9,9,9,9,9,,,,,,,1,0,1,0,0,16,16,50,,,,,,,,,,,,,,5,1.6683447999530472,5,0.4,0.5,18.02146,return,1.2810066000092775,,,,,,,,,,,,,,,,,p316,28,female,up_down_width,2025-12-08_15h33.54.877,exp1,2023.1.0,60.03121622553371,
,,,,,,,,,,,,,,,,3,8.6,10,11.4,0,0,1.4,0.85,0.55,3.35,10,match,36.05,310,361,411,0,0,9,9,9,0,0,,,,,,,1,0,1,0,0,17,17,41,,,,,,,,,,,,,,2,1.5346799999824725,2,0.5,0.7500000000000002,27.0322,return,1.9196935999789275,,,,,,,,,,,,,,,,,p316,28,female,up_down_width,2025-12-08_15h33.54.877,exp1,2023.1.0,60.03121622553371,
,,,,,,,,,,,,,,,,3,8.9,10,11.1,0,0,1.1,0.7000000000000001,0.4,2.6000000000000005,10,initial,36.05,321,361,400,0,0,9,9,9,0,0,,,,,,,1,0,1,0,0,18,18,4,,,,,,,,,,,,,,2,1.3992589000263251,2,0.5,0.7000000000000002,25.23005,return,2.6528723999508657,,,,,,,,,,,,,,,,,p316,28,female,up_down_width,2025-12-08_15h33.54.877,exp1,2023.1.0,60.03121622553371,
,,,,,,,,,,,,,,,,3,9.1,10,10.9,0,0,0.9,0.35,0.55,2.35,10,initial,36.05,328,361,393,0,0,9,9,9,0,0,,,,,,,1,0,1,0,0,19,19,11,,,,,,,,,,,,,,3,1.3184485999518074,3,0.55,0.8500000000000003,30.63649,return,2.320096699986607,,,,,,,,,,,,,,,,,p316,28,female,up_down_width,2025-12-08_15h33.54.877,exp1,2023.1.0,60.03121622553371,
,,,,,,,,,,,,,,,,5,8.6,9.3,10,10.7,11.4,0.7,0.44999999999999996,0.25,3.05,10,initial,36.05,310,335,361,386,411,9,9,9,9,9,,,,,,,1,0,1,0,0,20,20,42,,,,,,,,,,,,,,4,2.7255743000423536,4,0.35,0.25,9.01073,return,1.560163600021042,,,,,,,,,,,,,,,,,p316,28,female,up_down_width,2025-12-08_15h33.54.877,exp1,2023.1.0,60.03121622553371,
,,,,,,,,,,,,,,,,5,8.275,9.1375,10,10.8625,11.725,0.8625,0.6125,0.25,3.7,10,match,36.05,298,329,361,392,423,9,9,9,9,9,,,,,,,1,0,1,0,0,21,21,22,,,,,,,,,,,,,,3,3.194653599988669,3,0.3,0.2,7.20859,return,1.482602300005965,,,,,,,,,,,,,,,,,p316,28,female,up_down_width,2025-12-08_15h33.54.877,exp1,2023.1.0,60.03121622553371,
,,,,,,,,,,,,,,,,5,8.2,9.1,10,10.9,11.8,0.9,0.65,0.25,3.85,10,initial,36.05,296,328,361,393,425,9,9,9,9,9,,,,,,,1,0,1,0,0,22,22,48,,,,,,,,,,,,,,5,1.296285499993246,5,0.5,0.20000000000000007,7.20859,return,2.1869505000067875,,,,,,,,,,,,,,,,,p316,28,female,up_down_width,2025-12-08_15h33.54.877,exp1,2023.1.0,60.03121622553371,
,,,,,,,,,,,,,,,,4,8.95,9.65,10.35,11.05,0,0.7,0.1499999999999999,0.55,2.65,10,initial,36.05,323,348,373,398,0,9,9,9,9,0,,,,,,,1,0,1,0,0,23,23,23,,,,,,,,,,,,,,3,1.6042768000042997,3,0.45,0.6500000000000001,23.4279,return,2.2276411000057124,,,,,,,,,,,,,,,,,p316,28,female,up_down_width,2025-12-08_15h33.54.877,exp1,2023.1.0,60.03121622553371,
,,,,,,,,,,,,,,,,5,7.8,8.9,10,11.1,12.2,1.1,0.55,0.55,4.95,10,initial,36.05,281,321,361,400,440,9,9,9,9,9,,,,,,,1,0,1,0,0,24,24,34,,,,,,,,,,,,,,5,1.5919882000307553,5,0.4,0.7000000000000002,25.23005,return,1.6719406000338495,,,,,,,,,,,,,,,,,p316,28,female,up_down_width,2025-12-08_15h33.54.877,exp1,2023.1.0,60.03121622553371,
,,,,,,,,,,,,,,,,3,8.525,10,11.475,0,0,1.475,1.225,0.25,3.2,10,match,36.05,307,361,414,0,0,9,9,9,0,0,,,,,,,1,0,1,0,0,25,25,45,,,,,,,,,,,,,,3,2.2366497000330128,3,0.25,0.25,9.01073,return,1.2827894000220113,,,,,,,,,,,,,,,,,p316,28,female,up_down_width,2025-12-08_15h33.54.877,exp1,2023.1.0,60.03121622553371,
,,,,,,,,,,,,,,,,4,8.65,9.55,10.45,11.35,0,0.9,0.35,0.55,3.25,10,initial,36.05,312,344,377,409,0,9,9,9,9,0,,,,,,,1,0,1,0,0,26,26,28,,,,,,,,,,,,,,3,1.59026680001989,3,0.35,0.65,23.4279,return,1.6062109000049531,,,,,,,,,,,,,,,,,p316,28,female,up_down_width,2025-12-08_15h33.54.877,exp1,2023.1.0,60.03121622553371,
,,,,,,,,,,,,,,,,3,8.2,10,11.8,0,0,1.8,1.25,0.55,4.15,10,match,36.05,296,361,425,0,0,9,9,9,0,0,,,,,,,1,0,1,0,0,27,27,47,,,,,,,,,,,,,,2,1.1595006000134163,2,0.25,0.8000000000000002,28.83434,return,2.553137200011406,,,,,,,,,,,,,,,,,p316,28,female,up_down_width,2025-12-08_15h33.54.877,exp1,2023.1.0,60.03121622553371,
,,,,,,,,,,,,,,,,4,8.65,9.55,10.45,11.35,0,0.9,0.65,0.25,2.95,10,initial,36.05,312,344,377,409,0,9,9,9,9,0,,,,,,,1,0,1,0,0,28,28,30,,,,,,,,,,,,,,3,1.9103203999693505,3,0.35,0.2,7.20859,return,1.9603845999808982,,,,,,,,,,,,,,,,,p316,28,female,up_down_width,2025-12-08_15h33.54.877,exp1,2023.1.0,60.03121622553371,
,,,,,,,,,,,,,,,,4,9.1,9.7,10.3,10.9,0,0.6,0.04999999999999997,0.55,2.35,10,match,36.05,328,350,371,393,0,9,9,9,9,0,,,,,,,1,0,1,0,0,29,29,12,,,,,,,,,,,,,,2,1.5201456000213511,2,0.35,0.8000000000000002,28.83434,return,2.5156664000242017,,,,,,,,,,,,,,,,,p316,28,female,up_down_width,2025-12-08_15h33.54.877,exp1,2023.1.0,60.03121622553371,
,,,,,,,,,,,,,,,,3,9.1,10,10.9,0,0,0.9,0.5,0.4,2.2,10,initial,36.05,328,361,393,0,0,9,9,9,0,0,,,,,,,1,0,1,0,0,30,30,15,,,,,,,,,,,,,,2,1.285839699965436,2,0.4,0.6500000000000001,23.4279,return,1.921847700024955,,,,,,,,,,,,,,,,,p316,28,female,up_down_width,2025-12-08_15h33.54.877,exp1,2023.1.0,60.03121622553371,
,,,,,,,,,,,,,,,,3,8.6,10,11.4,0,0,1.4,1.15,0.25,3.05,10,match,36.05,310,361,411,0,0,9,9,9,0,0,,,,,,,1,0,1,0,0,31,31,43,,,,,,,,,,,,,,2,1.4893314999644645,2,0.25,0.25,9.01073,return,1.2528531000134535,,,,,,,,,,,,,,,,,p316,28,female,up_down_width,2025-12-08_15h33.54.877,exp1,2023.1.0,60.03121622553371,
,,,,,,,,,,,,,,,,3,8.9,10,11.1,0,0,1.1,0.8500000000000001,0.25,2.45,10,initial,36.05,321,361,400,0,0,9,9,9,0,0,,,,,,,1,0,1,0,0,32,32,2,,,,,,,,,,,,,,2,2.3793278000084683,2,0.3,0.3,10.81288,return,0.714165800018236,,,,,,,,,,,,,,,,,p316,28,female,up_down_width,2025-12-08_15h33.54.877,exp1,2023.1.0,60.03121622553371,
,,,,,,,,,,,,,,,,3,8.9,10,11.1,0,0,1.1,0.55,0.55,2.75,10,initial,36.05,321,361,400,0,0,9,9,9,0,0,,,,,,,1,0,1,0,0,33,33,0,,,,,,,,,,,,,,2,1.9695340000325814,2,0.25,0.65,23.4279,return,3.2328697000048123,,,,,,,,,,,,,,,,,p316,28,female,up_down_width,2025-12-08_15h33.54.877,exp1,2023.1.0,60.03121622553371,
,,,,,,,,,,,,,,,,4,8.35,9.45,10.55,11.65,0,1.1,0.55,0.55,3.8500000000000005,10,initial,36.05,301,341,380,420,0,9,9,9,9,0,,,,,,,1,0,1,0,0,34,34,17,,,,,,,,,,,,,,4,2.477935599978082,4,0.5,0.6000000000000001,21.62576,return,1.0976135000237264,,,,,,,,,,,,,,,,,p316,28,female,up_down_width,2025-12-08_15h33.54.877,exp1,2023.1.0,60.03121622553371,
,,,,,,,,,,,,,,,,3,9.1,10,10.9,0,0,0.9,0.65,0.25,2.05,10,initial,36.05,328,361,393,0,0,9,9,9,0,0,,,,,,,1,0,1,0,0,35,35,13,,,,,,,,,,,,,,3,2.063576999993529,3,0.55,0.30000000000000004,10.81288,return,2.1242052000015974,,,,,,,,,,,,,,,,,p316,28,female,up_down_width,2025-12-08_15h33.54.877,exp1,2023.1.0,60.03121622553371,
,,,,,,,,,,,,,,,,4,9.1,9.7,10.3,10.9,0,0.5999999999999999,0.3499999999999999,0.25,2.05,10,match,36.05,328,350,371,393,0,9,9,9,9,0,,,,,,,1,0,1,0,0,36,36,14,,,,,,,,,,,,,,4,1.625743499957025,4,0.25,0.2,7.20859,return,2.9044711000169627,,,,,,,,,,,,,,,,,p316,28,female,up_down_width,2025-12-08_15h33.54.877,exp1,2023.1.0,60.03121622553371,
,,,,,,,,,,,,,,,,4,8.35,9.45,10.55,11.65,0,1.1,0.7000000000000001,0.4,3.7,10,initial,36.05,301,341,380,420,0,9,9,9,9,0,,,,,,,1,0,1,0,0,37,37,21,,,,,,,,,,,,,,3,1.3223385000019334,3,0.2,0.44999999999999996,16.21932,return,2.084295300010126,,,,,,,,,,,,,,,,,p316,28,female,up_down_width,2025-12-08_15h33.54.877,exp1,2023.1.0,60.03121622553371,
,,,,,,,,,,,,,,,,4,8.95,9.65,10.35,11.05,0,0.7,0.44999999999999996,0.25,2.3499999999999996,10,initial,36.05,323,348,373,398,0,9,9,9,9,0,,,,,,,1,0,1,0,0,38,38,24,,,,,,,,,,,,,,3,1.274691900005564,3,0.5,0.25000000000000006,9.01073,return,3.254540399997495,,,,,,,,,,,,,,,,,p316,28,female,up_down_width,2025-12-08_15h33.54.877,exp1,2023.1.0,60.03121622553371,
,,,,,,,,,,,,,,,,3,9.3,10,10.7,0,0,0.7,0.29999999999999993,0.4,1.8,10,initial,36.05,335,361,386,0,0,9,9,9,0,0,,,,,,,1,0,1,0,0,39,39,9,,,,,,,,,,,,,,3,1.1568600000464357,3,0.2,0.44999999999999996,16.21932,return,3.301282899978105,,,,,,,,,,,,,,,,,p316,28,female,up_down_width,2025-12-08_15h33.54.877,exp1,2023.1.0,60.03121622553371,
,,,,,,,,,,,,,,,,4,8.9,9.633333333333333,10.366666666666667,11.1,0,0.7333333333333334,0.4833333333333334,0.25,2.45,10,match,36.05,321,347,374,400,0,9,9,9,9,0,,,,,,,1,0,1,0,0,40,40,3,,,,,,,,,,,,,,4,1.615782799955923,4,0.5,0.25000000000000006,9.01073,return,3.261367600003723,,,,,,,,,,,,,,,,,p316,28,female,up_down_width,2025-12-08_15h33.54.877,exp1,2023.1.0,60.03121622553371,
,,,,,,,,,,,,,,,,5,8.35,9.175,10,10.825,11.65,0.825,0.575,0.25,3.55,10,match,36.05,301,331,361,390,420,9,9,9,9,9,,,,,,,1,0,1,0,0,41,41,20,,,,,,,,,,,,,,6,2.105068500037305,6,0.5,0.20000000000000007,7.20859,return,2.275037400017027,,,,,,,,,,,,,,,,,p316,28,female,up_down_width,2025-12-08_15h33.54.877,exp1,2023.1.0,60.03121622553371,
,,,,,,,,,,,,,,,,3,8.2,10,11.8,0,0,1.7999999999999998,1.4,0.4,4,10,match,36.05,296,361,425,0,0,9,9,9,0,0,,,,,,,1,0,1,0,0,42,42,51,,,,,,,,,,,,,,3,1.3165308000170626,3,0.35,0.39999999999999997,14.41717,return,3.5513664000318386,,,,,,,,,,,,,,,,,p316,28,female,up_down_width,2025-12-08_15h33.54.877,exp1,2023.1.0,60.03121622553371,
,,,,,,,,,,,,,,,,4,8.95,9.65,10.35,11.05,0,0.7,0.29999999999999993,0.4,2.5,10,initial,36.05,323,348,373,398,0,9,9,9,9,0,,,,,,,1,0,1,0,0,43,43,26,,,,,,,,,,,,,,4,1.8492415000218898,4,0.55,0.45,16.21932,return,2.38269900000887,,,,,,,,,,,,,,,,,p316,28,female,up_down_width,2025-12-08_15h33.54.877,exp1,2023.1.0,60.03121622553371,
,,,,,,,,,,,,,,,,5,8.95,9.475,10,10.525,11.05,0.525,0.125,0.4,2.5,10,match,36.05,323,342,361,379,398,9,9,9,9,9,,,,,,,1,0,1,0,0,44,44,27,,,,,,,,,,,,,,5,1.5591775000211783,5,0.55,0.35000000000000003,12.61502,return,1.8788248000200838,,,,,,,,,,,,,,,,,p316,28,female,up_down_width,2025-12-08_15h33.54.877,exp1,2023.1.0,60.03121622553371,
,,,,,,,,,,,,,,,,5,8.2,9.1,10,10.9,11.8,0.9,0.35,0.55,4.15,10,initial,36.05,296,328,361,393,425,9,9,9,9,9,,,,,,,1,0,1,0,0,45,45,46,,,,,,,,,,,,,,5,2.0216984000289813,5,0.45,0.55,19.82361,return,2.0028199999942444,,,,,,,,,,,,,,,,,p316,28,female,up_down_width,2025-12-08_15h33.54.877,exp1,2023.1.0,60.03121622553371,
,,,,,,,,,,,,,,,,5,7.8,8.9,10,11.1,12.2,1.1,0.8500000000000001,0.25,4.65,10,initial,36.05,281,321,361,400,440,9,9,9,9,9,,,,,,,1,0,1,0,0,46,46,36,,,,,,,,,,,,,,4,3.0601576999761164,4,0.3,0.25,9.01073,return,2.680068699992262,,,,,,,,,,,,,,,,,p316,28,female,up_down_width,2025-12-08_15h33.54.877,exp1,2023.1.0,60.03121622553371,
,,,,,,,,,,,,,,,,3,7.800000000000001,10,12.2,0,0,2.1999999999999997,1.7999999999999998,0.4,4.8,10,match,36.05,281,361,440,0,0,9,9,9,0,0,,,,,,,1,0,1,0,0,47,47,39,,,,,,,,,,,,,,3,1.4440375000122003,3,0.5,0.6000000000000001,21.62576,return,1.2580355000100099,,,,,,,,,,,,,,,,,p316,28,female,up_down_width,2025-12-08_15h33.54.877,exp1,2023.1.0,60.03121622553371,
,,,,,,,,,,,,,,,,3,9.3,10,10.7,0,0,0.7,0.44999999999999996,0.25,1.65,10,initial,36.05,335,361,386,0,0,9,9,9,0,0,,,,,,,1,0,1,0,0,48,48,7,,,,,,,,,,,,,,2,1.3642390000168234,2,0.3,0.35,12.61502,return,2.316133299958892,,,,,,,,,,,,,,,,,p316,28,female,up_down_width,2025-12-08_15h33.54.877,exp1,2023.1.0,60.03121622553371,
,,,,,,,,,,,,,,,,3,8.2,10,11.8,0,0,1.8,1.55,0.25,3.85,10,match,36.05,296,361,425,0,0,9,9,9,0,0,,,,,,,1,0,1,0,0,49,49,49,,,,,,,,,,,,,,3,1.3290096999844536,3,0.35,0.39999999999999997,14.41717,return,2.0602232000092044,,,,,,,,,,,,,,,,,p316,28,female,up_down_width,2025-12-08_15h33.54.877,exp1,2023.1.0,60.03121622553371,
,,,,,,,,,,,,,,,,5,7.8,8.9,10,11.1,12.2,1.1,0.7000000000000001,0.4,4.800000000000001,10,initial,36.05,281,321,361,400,440,9,9,9,9,9,,,,,,,1,0,1,0,0,50,50,38,,,,,,,,,,,,,,5,1.6020006000180729,5,0.35,0.49999999999999994,18.02146,return,2.68817040004069,,,,,,,,,,,,,,,,,p316,28,female,up_down_width,2025-12-08_15h33.54.877,exp1,2023.1.0,60.03121622553371,
,,,,,,,,,,,,,,,,3,7.8,10,12.2,0,0,2.2,1.9500000000000002,0.25,4.65,10,match,36.05,281,361,440,0,0,9,9,9,0,0,,,,,,,1,0,1,0,0,51,51,37,,,,,,,,,,,,,,3,1.3849699999555014,3,0.25,0.3,10.81288,return,2.5909496000385843,,,,,,,,,,,,,,,,,p316,28,female,up_down_width,2025-12-08_15h33.54.877,exp1,2023.1.0,60.03121622553371,
,,,,,,,,,,,,,,,,,,,,,,,,,,,,,,,,,,,,,,,,,,,,,1,0,1,0,,,,,,,,,,,,,,,,,,,,,,,,,,,,1183.7664413999883,1183.7664413999883,1183.7664413999883,,,,,,,,,,,,p316,28,female,up_down_width,2025-12-08_15h33.54.877,exp1,2023.1.0,60.03121622553371,
,,,,,,,,,,,,,,,,4,8.35,9.45,10.55,11.65,0,1.1,0.8500000000000001,0.25,3.5500000000000003,10,initial,36.05,301,341,380,420,0,9,9,9,9,0,,,,,,,2,0,2,0,0,0,0,19,,,,,,,,,,,,,,4,1.7861914000241086,4,0.55,0.30000000000000004,10.81288,return,2.1467559000011533,,,,,,,,,,,,,,,,,p316,28,female,up_down_width,2025-12-08_15h33.54.877,exp1,2023.1.0,60.03121622553371,
,,,,,,,,,,,,,,,,3,8.2,10,11.8,0,0,1.7999999999999998,1.4,0.4,4,10,match,36.05,296,361,425,0,0,9,9,9,0,0,,,,,,,2,0,2,0,0,1,1,51,,,,,,,,,,,,,,3,1.3921207999810576,3,0.25,0.5499999999999999,19.82361,return,1.8622775999829173,,,,,,,,,,,,,,,,,p316,28,female,up_down_width,2025-12-08_15h33.54.877,exp1,2023.1.0,60.03121622553371,
,,,,,,,,,,,,,,,,4,8.9,9.633333333333333,10.366666666666667,11.1,0,0.7333333333333334,0.4833333333333334,0.25,2.45,10,match,36.05,321,347,374,400,0,9,9,9,9,0,,,,,,,2,0,2,0,0,2,2,3,,,,,,,,,,,,,,3,1.8622692999779247,3,0.4,0.25000000000000006,9.01073,return,1.514305000018794,,,,,,,,,,,,,,,,,p316,28,female,up_down_width,2025-12-08_15h33.54.877,exp1,2023.1.0,60.03121622553371,
,,,,,,,,,,,,,,,,4,9.1,9.7,10.3,10.9,0,0.6,0.04999999999999997,0.55,2.35,10,match,36.05,328,350,371,393,0,9,9,9,9,0,,,,,,,2,0,2,0,0,3,3,12,,,,,,,,,,,,,,3,2.4555206999648362,3,0.25,0.7500000000000001,27.0322,return,3.0443102000281215,,,,,,,,,,,,,,,,,p316,28,female,up_down_width,2025-12-08_15h33.54.877,exp1,2023.1.0,60.03121622553371,
,,,,,,,,,,,,,,,,3,8.2,10,11.8,0,0,1.8,1.55,0.25,3.85,10,match,36.05,296,361,425,0,0,9,9,9,0,0,,,,,,,2,0,2,0,0,4,4,49,,,,,,,,,,,,,,3,1.9161319000413641,3,0.2,0.35,12.61502,return,1.4868412999785505,,,,,,,,,,,,,,,,,p316,28,female,up_down_width,2025-12-08_15h33.54.877,exp1,2023.1.0,60.03121622553371,
,,,,,,,,,,,,,,,,3,9.1,10,10.9,0,0,0.9,0.65,0.25,2.05,10,initial,36.05,328,361,393,0,0,9,9,9,0,0,,,,,,,2,0,2,0,0,5,5,13,,,,,,,,,,,,,,3,1.3933405000134371,3,0.55,0.30000000000000004,10.81288,return,2.5195358999771997,,,,,,,,,,,,,,,,,p316,28,female,up_down_width,2025-12-08_15h33.54.877,exp1,2023.1.0,60.03121622553371,
,,,,,,,,,,,,,,,,4,8.65,9.55,10.45,11.35,0,0.9,0.65,0.25,2.95,10,initial,36.05,312,344,377,409,0,9,9,9,9,0,,,,,,,2,0,2,0,0,6,6,30,,,,,,,,,,,,,,4,1.2901087999925949,4,0.4,0.30000000000000004,10.81288,return,1.8142106999875978,,,,,,,,,,,,,,,,,p316,28,female,up_down_width,2025-12-08_15h33.54.877,exp1,2023.1.0,60.03121622553371,
,,,,,,,,,,,,,,,,4,8.825,9.608333333333333,10.391666666666667,11.175,0,0.7833333333333333,0.5333333333333333,0.25,2.6,10,match,36.05,318,346,375,403,0,9,9,9,9,0,,,,,,,2,0,2,0,0,7,7,5,,,,,,,,,,,,,,4,1.1843130000052042,4,0.55,0.30000000000000004,10.81288,return,2.1602023000014015,,,,,,,,,,,,,,,,,p316,28,female,up_down_width,2025-12-08_15h33.54.877,exp1,2023.1.0,60.03121622553371,
,,,,,,,,,,,,,,,,4,8.35,9.45,10.55,11.65,0,1.1,0.55,0.55,3.8500000000000005,10,initial,36.05,301,341,380,420,0,9,9,9,9,0,,,,,,,2,0,2,0,0,8,8,17,,,,,,,,,,,,,,3,2.7581294999690726,3,0.45,0.6000000000000001,21.62576,return,1.2547710000071675,,,,,,,,,,,,,,,,,p316,28,female,up_down_width,2025-12-08_15h33.54.877,exp1,2023.1.0,60.03121622553371,
,,,,,,,,,,,,,,,,4,8.95,9.65,10.35,11.05,0,0.7,0.29999999999999993,0.4,2.5,10,initial,36.05,323,348,373,398,0,9,9,9,9,0,,,,,,,2,0,2,0,0,9,9,26,,,,,,,,,,,,,,4,1.3095445000217296,4,0.55,0.5,18.02146,return,2.8081704000360332,,,,,,,,,,,,,,,,,p316,28,female,up_down_width,2025-12-08_15h33.54.877,exp1,2023.1.0,60.03121622553371,
,,,,,,,,,,,,,,,,4,9.1,9.7,10.3,10.9,0,0.5999999999999999,0.3499999999999999,0.25,2.05,10,match,36.05,328,350,371,393,0,9,9,9,9,0,,,,,,,2,0,2,0,0,10,10,14,,,,,,,,,,,,,,4,1.2816286999732256,4,0.35,0.35,12.61502,return,2.7976377000450157,,,,,,,,,,,,,,,,,p316,28,female,up_down_width,2025-12-08_15h33.54.877,exp1,2023.1.0,60.03121622553371,
,,,,,,,,,,,,,,,,4,8.65,9.55,10.45,11.35,0,0.9,0.35,0.55,3.25,10,initial,36.05,312,344,377,409,0,9,9,9,9,0,,,,,,,2,0,2,0,0,11,11,28,,,,,,,,,,,,,,3,1.6702580000273883,3,0.55,0.7500000000000002,27.0322,return,1.234270800021477,,,,,,,,,,,,,,,,,p316,28,female,up_down_width,2025-12-08_15h33.54.877,exp1,2023.1.0,60.03121622553371,
,,,,,,,,,,,,,,,,5,8.65,9.325,10,10.675,11.35,0.675,0.275,0.4,3.1,10,match,36.05,312,336,361,385,409,9,9,9,9,9,,,,,,,2,0,2,0,0,12,12,33,,,,,,,,,,,,,,5,2.090233700000681,5,0.5,0.6000000000000001,21.62576,return,1.5095471999957226,,,,,,,,,,,,,,,,,p316,28,female,up_down_width,2025-12-08_15h33.54.877,exp1,2023.1.0,60.03121622553371,
,,,,,,,,,,,,,,,,5,8.6,9.3,10,10.7,11.4,0.7,0.29999999999999993,0.4,3.1999999999999997,10,initial,36.05,310,335,361,386,411,9,9,9,9,9,,,,,,,2,0,2,0,0,13,13,44,,,,,,,,,,,,,,5,1.4145066000055522,5,0.3,0.5499999999999999,19.82361,return,1.884869700006675,,,,,,,,,,,,,,,,,p316,28,female,up_down_width,2025-12-08_15h33.54.877,exp1,2023.1.0,60.03121622553371,
,,,,,,,,,,,,,,,,5,8.275,9.1375,10,10.8625,11.725,0.8625,0.6125,0.25,3.7,10,match,36.05,298,329,361,392,423,9,9,9,9,9,,,,,,,2,0,2,0,0,14,14,22,,,,,,,,,,,,,,5,2.1369923999882303,5,0.4,0.25000000000000006,9.01073,return,1.2495724999462254,,,,,,,,,,,,,,,,,p316,28,female,up_down_width,2025-12-08_15h33.54.877,exp1,2023.1.0,60.03121622553371,
,,,,,,,,,,,,,,,,4,9.3,9.766666666666667,10.233333333333333,10.7,0,0.4666666666666667,0.06666666666666665,0.4,1.8,10,match,36.05,335,352,369,386,0,9,9,9,9,0,,,,,,,2,0,2,0,0,15,15,10,,,,,,,,,,,,,,4,2.802270300046075,4,0.25,0.39999999999999997,14.41717,return,2.193610800022725,,,,,,,,,,,,,,,,,p316,28,female,up_down_width,2025-12-08_15h33.54.877,exp1,2023.1.0,60.03121622553371,
,,,,,,,,,,,,,,,,4,8.9,9.633333333333333,10.366666666666667,11.1,0,0.7333333333333333,0.18333333333333326,0.55,2.75,10,match,36.05,321,347,374,400,0,9,9,9,9,0,,,,,,,2,0,2,0,0,16,16,1,,,,,,,,,,,,,,4,2.9517876000027172,4,0.4,0.6000000000000001,21.62576,return,3.0561807000194676,,,,,,,,,,,,,,,,,p316,28,female,up_down_width,2025-12-08_15h33.54.877,exp1,2023.1.0,60.03121622553371,
,,,,,,,,,,,,,,,,5,8.65,9.325,10,10.675,11.35,0.675,0.125,0.55,3.25,10,match,36.05,312,336,361,385,409,9,9,9,9,9,,,,,,,2,0,2,0,0,17,17,29,,,,,,,,,,,,,,5,2.59493190003559,5,0.3,0.5499999999999999,19.82361,return,2.8576172000030056,,,,,,,,,,,,,,,,,p316,28,female,up_down_width,2025-12-08_15h33.54.877,exp1,2023.1.0,60.03121622553371,
,,,,,,,,,,,,,,,,3,8.9,10,11.1,0,0,1.1,0.55,0.55,2.75,10,initial,36.05,321,361,400,0,0,9,9,9,0,0,,,,,,,2,0,2,0,0,18,18,0,,,,,,,,,,,,,,3,1.3857375999796204,3,0.45,0.7000000000000002,25.23005,return,2.6262094999547116,,,,,,,,,,,,,,,,,p316,28,female,up_down_width,2025-12-08_15h33.54.877,exp1,2023.1.0,60.03121622553371,
,,,,,,,,,,,,,,,,5,8.6,9.3,10,10.7,11.4,0.7,0.44999999999999996,0.25,3.05,10,initial,36.05,310,335,361,386,411,9,9,9,9,9,,,,,,,2,0,2,0,0,19,19,42,,,,,,,,,,,,,,4,2.2777057999628596,4,0.5,0.30000000000000004,10.81288,return,3.22560499998508,,,,,,,,,,,,,,,,,p316,28,female,up_down_width,2025-12-08_15h33.54.877,exp1,2023.1.0,60.03121622553371,
,,,,,,,,,,,,,,,,4,8.35,9.45,10.55,11.65,0,1.1,0.7000000000000001,0.4,3.7,10,initial,36.05,301,341,380,420,0,9,9,9,9,0,,,,,,,2,0,2,0,0,20,20,21,,,,,,,,,,,,,,4,2.981930800015107,4,0.55,0.55,19.82361,return,1.8210116000263952,,,,,,,,,,,,,,,,,p316,28,female,up_down_width,2025-12-08_15h33.54.877,exp1,2023.1.0,60.03121622553371,
,,,,,,,,,,,,,,,,4,8.95,9.65,10.35,11.05,0,0.7,0.1499999999999999,0.55,2.65,10,initial,36.05,323,348,373,398,0,9,9,9,9,0,,,,,,,2,0,2,0,0,21,21,23,,,,,,,,,,,,,,3,1.9695889999857172,3,0.3,0.65,23.4279,return,2.7209316000225954,,,,,,,,,,,,,,,,,p316,28,female,up_down_width,2025-12-08_15h33.54.877,exp1,2023.1.0,60.03121622553371,
,,,,,,,,,,,,,,,,3,7.8,10,12.2,0,0,2.2,1.9500000000000002,0.25,4.65,10,match,36.05,281,361,440,0,0,9,9,9,0,0,,,,,,,2,0,2,0,0,22,22,37,,,,,,,,,,,,,,3,2.1742436999920756,3,0.35,0.44999999999999996,16.21932,return,1.877443699981086,,,,,,,,,,,,,,,,,p316,28,female,up_down_width,2025-12-08_15h33.54.877,exp1,2023.1.0,60.03121622553371,
,,,,,,,,,,,,,,,,3,9.1,10,10.9,0,0,0.9,0.5,0.4,2.2,10,initial,36.05,328,361,393,0,0,9,9,9,0,0,,,,,,,2,0,2,0,0,23,23,15,,,,,,,,,,,,,,2,1.2782371999928728,2,0.3,0.35,12.61502,return,2.697523300012108,,,,,,,,,,,,,,,,,p316,28,female,up_down_width,2025-12-08_15h33.54.877,exp1,2023.1.0,60.03121622553371,
,,,,,,,,,,,,,,,,5,8.35,9.175,10,10.825,11.65,0.825,0.575,0.25,3.55,10,match,36.05,301,331,361,390,420,9,9,9,9,9,,,,,,,2,0,2,0,0,24,24,20,,,,,,,,,,,,,,4,2.6870244999881834,4,0.2,0.3,10.81288,return,4.755132099962793,,,,,,,,,,,,,,,,,p316,28,female,up_down_width,2025-12-08_15h33.54.877,exp1,2023.1.0,60.03121622553371,
,,,,,,,,,,,,,,,,3,8.9,10,11.1,0,0,1.1,0.8500000000000001,0.25,2.45,10,initial,36.05,321,361,400,0,0,9,9,9,0,0,,,,,,,2,0,2,0,0,25,25,2,,,,,,,,,,,,,,2,2.0849918000167236,2,0.25,0.25,9.01073,return,2.1603302999865264,,,,,,,,,,,,,,,,,p316,28,female,up_down_width,2025-12-08_15h33.54.877,exp1,2023.1.0,60.03121622553371,
,,,,,,,,,,,,,,,,5,7.8,8.9,10,11.1,12.2,1.1,0.7000000000000001,0.4,4.800000000000001,10,initial,36.05,281,321,361,400,440,9,9,9,9,9,,,,,,,2,0,2,0,0,26,26,38,,,,,,,,,,,,,,5,1.3468721999670379,5,0.4,0.45,16.21932,return,2.46040440001525,,,,,,,,,,,,,,,,,p316,28,female,up_down_width,2025-12-08_15h33.54.877,exp1,2023.1.0,60.03121622553371,
,,,,,,,,,,,,,,,,3,8.9,10,11.1,0,0,1.1,0.7000000000000001,0.4,2.6000000000000005,10,initial,36.05,321,361,400,0,0,9,9,9,0,0,,,,,,,2,0,2,0,0,27,27,4,,,,,,,,,,,,,,2,1.2293906999984756,2,0.35,0.44999999999999996,16.21932,return,1.2596175000071526,,,,,,,,,,,,,,,,,p316,28,female,up_down_width,2025-12-08_15h33.54.877,exp1,2023.1.0,60.03121622553371,
,,,,,,,,,,,,,,,,3,9.3,10,10.7,0,0,0.7,0.1499999999999999,0.55,1.95,10,initial,36.05,335,361,386,0,0,9,9,9,0,0,,,,,,,2,0,2,0,0,28,28,6,,,,,,,,,,,,,,2,1.242377899994608,2,0.5,0.6000000000000001,21.62576,return,2.3263041999889538,,,,,,,,,,,,,,,,,p316,28,female,up_down_width,2025-12-08_15h33.54.877,exp1,2023.1.0,60.03121622553371,
,,,,,,,,,,,,,,,,3,8.525,10,11.475,0,0,1.475,1.225,0.25,3.2,10,match,36.05,307,361,414,0,0,9,9,9,0,0,,,,,,,2,0,2,0,0,29,29,45,,,,,,,,,,,,,,2,1.229081200028304,2,0.55,0.25000000000000006,9.01073,return,3.371373499976471,,,,,,,,,,,,,,,,,p316,28,female,up_down_width,2025-12-08_15h33.54.877,exp1,2023.1.0,60.03121622553371,
,,,,,,,,,,,,,,,,4,8.95,9.65,10.35,11.05,0,0.7,0.44999999999999996,0.25,2.3499999999999996,10,initial,36.05,323,348,373,398,0,9,9,9,9,0,,,,,,,2,0,2,0,0,30,30,24,,,,,,,,,,,,,,4,2.029291999991983,4,0.25,0.3,10.81288,return,3.5310000000172295,,,,,,,,,,,,,,,,,p316,28,female,up_down_width,2025-12-08_15h33.54.877,exp1,2023.1.0,60.03121622553371,
,,,,,,,,,,,,,,,,5,7.8,8.9,10,11.1,12.2,1.1,0.8500000000000001,0.25,4.65,10,initial,36.05,281,321,361,400,440,9,9,9,9,9,,,,,,,2,0,2,0,0,31,31,36,,,,,,,,,,,,,,5,1.1848818000289612,5,0.35,0.25,9.01073,return,2.143767100002151,,,,,,,,,,,,,,,,,p316,28,female,up_down_width,2025-12-08_15h33.54.877,exp1,2023.1.0,60.03121622553371,
,,,,,,,,,,,,,,,,5,8.65,9.325,10,10.675,11.35,0.675,0.42500000000000004,0.25,2.95,10,match,36.05,312,336,361,385,409,9,9,9,9,9,,,,,,,2,0,2,0,0,32,32,31,,,,,,,,,,,,,,5,1.6461526000057347,5,0.2,0.25,9.01073,return,2.1552538000396453,,,,,,,,,,,,,,,,,p316,28,female,up_down_width,2025-12-08_15h33.54.877,exp1,2023.1.0,60.03121622553371,
,,,,,,,,,,,,,,,,5,8.2,9.1,10,10.9,11.8,0.9,0.35,0.55,4.15,10,initial,36.05,296,328,361,393,425,9,9,9,9,9,,,,,,,2,0,2,0,0,33,33,46,,,,,,,,,,,,,,4,1.533929699973669,4,0.5,0.7000000000000002,25.23005,return,1.2790310000418685,,,,,,,,,,,,,,,,,p316,28,female,up_down_width,2025-12-08_15h33.54.877,exp1,2023.1.0,60.03121622553371,
,,,,,,,,,,,,,,,,4,9.3,9.766666666666667,10.233333333333333,10.7,0,0.4666666666666667,0.21666666666666665,0.25,1.65,10,match,36.05,335,352,369,386,0,9,9,9,9,0,,,,,,,2,0,2,0,0,34,34,8,,,,,,,,,,,,,,4,2.606701700016856,4,0.3,0.25,9.01073,return,1.3179284000070766,,,,,,,,,,,,,,,,,p316,28,female,up_down_width,2025-12-08_15h33.54.877,exp1,2023.1.0,60.03121622553371,
,,,,,,,,,,,,,,,,4,9.1,9.7,10.3,10.9,0,0.6000000000000001,0.20000000000000004,0.4,2.2,10,match,36.05,328,350,371,393,0,9,9,9,9,0,,,,,,,2,0,2,0,0,35,35,16,,,,,,,,,,,,,,3,1.1346353000262752,3,0.3,0.35,12.61502,return,1.2955811000429094,,,,,,,,,,,,,,,,,p316,28,female,up_down_width,2025-12-08_15h33.54.877,exp1,2023.1.0,60.03121622553371,
,,,,,,,,,,,,,,,,4,8.65,9.55,10.45,11.35,0,0.9,0.5,0.4,3.1,10,initial,36.05,312,344,377,409,0,9,9,9,9,0,,,,,,,2,0,2,0,0,36,36,32,,,,,,,,,,,,,,4,1.2463320000097156,4,0.4,0.45,16.21932,return,2.251304400037043,,,,,,,,,,,,,,,,,p316,28,female,up_down_width,2025-12-08_15h33.54.877,exp1,2023.1.0,60.03121622553371,
,,,,,,,,,,,,,,,,5,8.2,9.1,10,10.9,11.8,0.9,0.65,0.25,3.85,10,initial,36.05,296,328,361,393,425,9,9,9,9,9,,,,,,,2,0,2,0,0,37,37,48,,,,,,,,,,,,,,5,1.7216235999949276,5,0.4,0.25000000000000006,9.01073,return,3.66630919999443,,,,,,,,,,,,,,,,,p316,28,female,up_down_width,2025-12-08_15h33.54.877,exp1,2023.1.0,60.03121622553371,
,,,,,,,,,,,,,,,,5,8.95,9.475,10,10.525,11.05,0.525,0.275,0.25,2.35,10,match,36.05,323,342,361,379,398,9,9,9,9,9,,,,,,,2,0,2,0,0,38,38,25,,,,,,,,,,,,,,5,1.5299438000074588,5,0.3,0.25,9.01073,return,2.955397500016261,,,,,,,,,,,,,,,,,p316,28,female,up_down_width,2025-12-08_15h33.54.877,exp1,2023.1.0,60.03121622553371,
,,,,,,,,,,,,,,,,3,7.800000000000001,10,12.2,0,0,2.1999999999999997,1.7999999999999998,0.4,4.8,10,match,36.05,281,361,440,0,0,9,9,9,0,0,,,,,,,2,0,2,0,0,39,39,39,,,,,,,,,,,,,,3,1.6403525000205263,3,0.55,0.6000000000000001,21.62576,return,2.5013211999903433,,,,,,,,,,,,,,,,,p316,28,female,up_down_width,2025-12-08_15h33.54.877,exp1,2023.1.0,60.03121622553371,
,,,,,,,,,,,,,,,,3,8.6,10,11.4,0,0,1.4,1.15,0.25,3.05,10,match,36.05,310,361,411,0,0,9,9,9,0,0,,,,,,,2,0,2,0,0,40,40,43,,,,,,,,,,,,,,2,1.1790597999934107,2,0.25,0.3,10.81288,return,1.7861910999636166,,,,,,,,,,,,,,,,,p316,28,female,up_down_width,2025-12-08_15h33.54.877,exp1,2023.1.0,60.03121622553371,
,,,,,,,,,,,,,,,,3,9.3,10,10.7,0,0,0.7,0.44999999999999996,0.25,1.65,10,initial,36.05,335,361,386,0,0,9,9,9,0,0,,,,,,,2,0,2,0,0,41,41,7,,,,,,,,,,,,,,2,1.7390083000063896,2,0.2,0.3,10.81288,return,2.3395868000225164,,,,,,,,,,,,,,,,,p316,28,female,up_down_width,2025-12-08_15h33.54.877,exp1,2023.1.0,60.03121622553371,
,,,,,,,,,,,,,,,,3,8.2,10,11.8,0,0,1.8,1.25,0.55,4.15,10,match,36.05,296,361,425,0,0,9,9,9,0,0,,,,,,,2,0,2,0,0,42,42,47,,,,,,,,,,,,,,3,1.7090668000164442,3,0.55,0.7000000000000002,25.23005,return,2.2157141999923624,,,,,,,,,,,,,,,,,p316,28,female,up_down_width,2025-12-08_15h33.54.877,exp1,2023.1.0,60.03121622553371,
,,,,,,,,,,,,,,,,5,8.95,9.475,10,10.525,11.05,0.525,0.125,0.4,2.5,10,match,36.05,323,342,361,379,398,9,9,9,9,9,,,,,,,2,0,2,0,0,43,43,27,,,,,,,,,,,,,,5,1.824854799953755,5,0.35,0.7000000000000001,25.23005,return,3.2376397000043653,,,,,,,,,,,,,,,,,p316,28,female,up_down_width,2025-12-08_15h33.54.877,exp1,2023.1.0,60.03121622553371,
,,,,,,,,,,,,,,,,5,8.2,9.1,10,10.9,11.8,0.9,0.5,0.4,4,10,initial,36.05,296,328,361,393,425,9,9,9,9,9,,,,,,,2,0,2,0,0,44,44,50,,,,,,,,,,,,,,5,1.9322606999776326,5,0.5,0.55,19.82361,return,1.2464434999856167,,,,,,,,,,,,,,,,,p316,28,female,up_down_width,2025-12-08_15h33.54.877,exp1,2023.1.0,60.03121622553371,
,,,,,,,,,,,,,,,,3,8.6,10,11.4,0,0,1.4,0.85,0.55,3.35,10,match,36.05,310,361,411,0,0,9,9,9,0,0,,,,,,,2,0,2,0,0,45,45,41,,,,,,,,,,,,,,3,2.100970400031656,3,0.55,0.6500000000000001,23.4279,return,1.5987886000075378,,,,,,,,,,,,,,,,,p316,28,female,up_down_width,2025-12-08_15h33.54.877,exp1,2023.1.0,60.03121622553371,
,,,,,,,,,,,,,,,,3,9.3,10,10.7,0,0,0.7,0.29999999999999993,0.4,1.8,10,initial,36.05,335,361,386,0,0,9,9,9,0,0,,,,,,,2,0,2,0,0,46,46,9,,,,,,,,,,,,,,3,1.2715771000366658,3,0.2,0.5499999999999999,19.82361,return,3.939474100014195,,,,,,,,,,,,,,,,,p316,28,female,up_down_width,2025-12-08_15h33.54.877,exp1,2023.1.0,60.03121622553371,
,,,,,,,,,,,,,,,,3,7.8,10,12.2,0,0,2.2,1.65,0.55,4.95,10,match,36.05,281,361,440,0,0,9,9,9,0,0,,,,,,,2,0,2,0,0,47,47,35,,,,,,,,,,,,,,3,1.501753699965775,3,0.55,0.7000000000000002,25.23005,return,1.249617199995555,,,,,,,,,,,,,,,,,p316,28,female,up_down_width,2025-12-08_15h33.54.877,exp1,2023.1.0,60.03121622553371,
,,,,,,,,,,,,,,,,3,9.1,10,10.9,0,0,0.9,0.35,0.55,2.35,10,initial,36.05,328,361,393,0,0,9,9,9,0,0,,,,,,,2,0,2,0,0,48,48,11,,,,,,,,,,,,,,2,1.2275900999666192,2,0.3,0.49999999999999994,18.02146,return,2.345693300012499,,,,,,,,,,,,,,,,,p316,28,female,up_down_width,2025-12-08_15h33.54.877,exp1,2023.1.0,60.03121622553371,
,,,,,,,,,,,,,,,,5,7.8,8.9,10,11.1,12.2,1.1,0.55,0.55,4.95,10,initial,36.05,281,321,361,400,440,9,9,9,9,9,,,,,,,2,0,2,0,0,49,49,34,,,,,,,,,,,,,,5,1.3663465999998152,5,0.2,0.65,23.4279,return,3.2945414999849163,,,,,,,,,,,,,,,,,p316,28,female,up_down_width,2025-12-08_15h33.54.877,exp1,2023.1.0,60.03121622553371,
,,,,,,,,,,,,,,,,5,8.6,9.3,10,10.7,11.4,0.7,0.1499999999999999,0.55,3.3499999999999996,10,initial,36.05,310,335,361,386,411,9,9,9,9,9,,,,,,,2,0,2,0,0,50,50,40,,,,,,,,,,,,,,4,1.4050088999792933,4,0.25,0.6,21.62576,return,1.780728799989447,,,,,,,,,,,,,,,,,p316,28,female,up_down_width,2025-12-08_15h33.54.877,exp1,2023.1.0,60.03121622553371,
,,,,,,,,,,,,,,,,5,8.35,9.175,10,10.825,11.65,0.8250000000000001,0.275,0.55,3.85,10,match,36.05,301,331,361,390,420,9,9,9,9,9,,,,,,,2,0,2,0,0,51,51,18,,,,,,,,,,,,,,5,1.230928800010588,5,0.3,0.6,21.62576,return,1.948656199965626,,,,,,,,,,,,,,,,,p316,28,female,up_down_width,2025-12-08_15h33.54.877,exp1,2023.1.0,60.03121622553371,
,,,,,,,,,,,,,,,,,,,,,,,,,,,,,,,,,,,,,,,,,,,,,2,0,2,0,,,,,,,,,,,,,,,,,,,,,,,,,,,,1521.19948760001,1521.19948760001,1521.19948760001,,,,,,,,,,,,p316,28,female,up_down_width,2025-12-08_15h33.54.877,exp1,2023.1.0,60.03121622553371,
,,,,,,,,,,,,,,,,3,8.2,10,11.8,0,0,1.7999999999999998,1.4,0.4,4,10,match,36.05,296,361,425,0,0,9,9,9,0,0,,,,,,,3,0,3,0,0,0,0,51,,,,,,,,,,,,,,3,1.3295598000404425,3,0.3,0.3,10.81288,return,1.9309783999924548,,,,,,,,,,,,,,,,,p316,28,female,up_down_width,2025-12-08_15h33.54.877,exp1,2023.1.0,60.03121622553371,
,,,,,,,,,,,,,,,,3,9.3,10,10.7,0,0,0.7,0.1499999999999999,0.55,1.95,10,initial,36.05,335,361,386,0,0,9,9,9,0,0,,,,,,,3,0,3,0,0,1,1,6,,,,,,,,,,,,,,2,1.4282973000081256,2,0.3,0.6,21.62576,return,1.563125199987553,,,,,,,,,,,,,,,,,p316,28,female,up_down_width,2025-12-08_15h33.54.877,exp1,2023.1.0,60.03121622553371,
,,,,,,,,,,,,,,,,5,7.8,8.9,10,11.1,12.2,1.1,0.7000000000000001,0.4,4.800000000000001,10,initial,36.05,281,321,361,400,440,9,9,9,9,9,,,,,,,3,0,3,0,0,2,2,38,,,,,,,,,,,,,,5,1.2460617000469938,5,0.25,0.44999999999999996,16.21932,return,1.5477782000089064,,,,,,,,,,,,,,,,,p316,28,female,up_down_width,2025-12-08_15h33.54.877,exp1,2023.1.0,60.03121622553371,
,,,,,,,,,,,,,,,,5,8.35,9.175,10,10.825,11.65,0.825,0.575,0.25,3.55,10,match,36.05,301,331,361,390,420,9,9,9,9,9,,,,,,,3,0,3,0,0,3,3,20,,,,,,,,,,,,,,5,3.9678388999891467,5,0.45,0.30000000000000004,10.81288,return,2.5768144000321627,,,,,,,,,,,,,,,,,p316,28,female,up_down_width,2025-12-08_15h33.54.877,exp1,2023.1.0,60.03121622553371,
,,,,,,,,,,,,,,,,5,8.6,9.3,10,10.7,11.4,0.7,0.44999999999999996,0.25,3.05,10,initial,36.05,310,335,361,386,411,9,9,9,9,9,,,,,,,3,0,3,0,0,4,4,42,,,,,,,,,,,,,,5,1.2321170000359416,5,0.5,0.20000000000000007,7.20859,return,2.174498600012157,,,,,,,,,,,,,,,,,p316,28,female,up_down_width,2025-12-08_15h33.54.877,exp1,2023.1.0,60.03121622553371,
,,,,,,,,,,,,,,,,3,8.525,10,11.475,0,0,1.475,1.225,0.25,3.2,10,match,36.05,307,361,414,0,0,9,9,9,0,0,,,,,,,3,0,3,0,0,5,5,45,,,,,,,,,,,,,,3,1.3164402000256814,3,0.35,0.25,9.01073,return,1.134640500007663,,,,,,,,,,,,,,,,,p316,28,female,up_down_width,2025-12-08_15h33.54.877,exp1,2023.1.0,60.03121622553371,
,,,,,,,,,,,,,,,,4,8.65,9.55,10.45,11.35,0,0.9,0.5,0.4,3.1,10,initial,36.05,312,344,377,409,0,9,9,9,9,0,,,,,,,3,0,3,0,0,6,6,32,,,,,,,,,,,,,,3,1.70162419998087,3,0.45,0.5,18.02146,return,1.0882954999688081,,,,,,,,,,,,,,,,,p316,28,female,up_down_width,2025-12-08_15h33.54.877,exp1,2023.1.0,60.03121622553371,
,,,,,,,,,,,,,,,,3,8.9,10,11.1,0,0,1.1,0.7000000000000001,0.4,2.6000000000000005,10,initial,36.05,321,361,400,0,0,9,9,9,0,0,,,,,,,3,0,3,0,0,7,7,4,,,,,,,,,,,,,,2,1.2803676999756135,2,0.4,0.55,19.82361,return,1.1808586999541149,,,,,,,,,,,,,,,,,p316,28,female,up_down_width,2025-12-08_15h33.54.877,exp1,2023.1.0,60.03121622553371,
,,,,,,,,,,,,,,,,4,8.95,9.65,10.35,11.05,0,0.7,0.29999999999999993,0.4,2.5,10,initial,36.05,323,348,373,398,0,9,9,9,9,0,,,,,,,3,0,3,0,0,8,8,26,,,,,,,,,,,,,,3,1.397419999993872,3,0.55,0.5,18.02146,return,1.7406499000499025,,,,,,,,,,,,,,,,,p316,28,female,up_down_width,2025-12-08_15h33.54.877,exp1,2023.1.0,60.03121622553371,
,,,,,,,,,,,,,,,,3,8.6,10,11.4,0,0,1.4,1.15,0.25,3.05,10,match,36.05,310,361,411,0,0,9,9,9,0,0,,,,,,,3,0,3,0,0,9,9,43,,,,,,,,,,,,,,3,1.327563100028783,3,0.35,0.25,9.01073,return,1.481826999981422,,,,,,,,,,,,,,,,,p316,28,female,up_down_width,2025-12-08_15h33.54.877,exp1,2023.1.0,60.03121622553371,
,,,,,,,,,,,,,,,,4,8.35,9.45,10.55,11.65,0,1.1,0.7000000000000001,0.4,3.7,10,initial,36.05,301,341,380,420,0,9,9,9,9,0,,,,,,,3,0,3,0,0,10,10,21,,,,,,,,,,,,,,4,1.24761129997205,4,0.25,0.44999999999999996,16.21932,return,2.9256539999623783,,,,,,,,,,,,,,,,,p316,28,female,up_down_width,2025-12-08_15h33.54.877,exp1,2023.1.0,60.03121622553371,
,,,,,,,,,,,,,,,,5,7.8,8.9,10,11.1,12.2,1.1,0.55,0.55,4.95,10,initial,36.05,281,321,361,400,440,9,9,9,9,9,,,,,,,3,0,3,0,0,11,11,34,,,,,,,,,,,,,,5,1.1684600999578834,5,0.2,0.49999999999999994,18.02146,return,1.7773771000211127,,,,,,,,,,,,,,,,,p316,28,female,up_down_width,2025-12-08_15h33.54.877,exp1,2023.1.0,60.03121622553371,
,,,,,,,,,,,,,,,,3,7.800000000000001,10,12.2,0,0,2.1999999999999997,1.7999999999999998,0.4,4.8,10,match,36.05,281,361,440,0,0,9,9,9,0,0,,,,,,,3,0,3,0,0,12,12,39,,,,,,,,,,,,,,3,1.1233984000282362,3,0.2,0.39999999999999997,14.41717,return,1.700904100027401,,,,,,,,,,,,,,,,,p316,28,female,up_down_width,2025-12-08_15h33.54.877,exp1,2023.1.0,60.03121622553371,
,,,,,,,,,,,,,,,,4,8.95,9.65,10.35,11.05,0,0.7,0.44999999999999996,0.25,2.3499999999999996,10,initial,36.05,323,348,373,398,0,9,9,9,9,0,,,,,,,3,0,3,0,0,13,13,24,,,,,,,,,,,,,,3,1.2846757000079378,3,0.45,0.25000000000000006,9.01073,return,2.7357677000109106,,,,,,,,,,,,,,,,,p316,28,female,up_down_width,2025-12-08_15h33.54.877,exp1,2023.1.0,60.03121622553371,
,,,,,,,,,,,,,,,,4,8.9,9.633333333333333,10.366666666666667,11.1,0,0.7333333333333333,0.18333333333333326,0.55,2.75,10,match,36.05,321,347,374,400,0,9,9,9,9,0,,,,,,,3,0,3,0,0,14,14,1,,,,,,,,,,,,,,3,1.1135281000169925,3,0.2,0.5499999999999999,19.82361,return,2.0764069000142626,,,,,,,,,,,,,,,,,p316,28,female,up_down_width,2025-12-08_15h33.54.877,exp1,2023.1.0,60.03121622553371,
,,,,,,,,,,,,,,,,5,8.2,9.1,10,10.9,11.8,0.9,0.35,0.55,4.15,10,initial,36.05,296,328,361,393,425,9,9,9,9,9,,,,,,,3,0,3,0,0,15,15,46,,,,,,,,,,,,,,5,1.0941715000080876,5,0.4,0.6000000000000001,21.62576,return,1.0495043999981135,,,,,,,,,,,,,,,,,p316,28,female,up_down_width,2025-12-08_15h33.54.877,exp1,2023.1.0,60.03121622553371,
,,,,,,,,,,,,,,,,3,8.2,10,11.8,0,0,1.8,1.55,0.25,3.85,10,match,36.05,296,361,425,0,0,9,9,9,0,0,,,,,,,3,0,3,0,0,16,16,49,,,,,,,,,,,,,,3,1.1102365999831818,3,0.4,0.25000000000000006,9.01073,return,1.145691599987913,,,,,,,,,,,,,,,,,p316,28,female,up_down_width,2025-12-08_15h33.54.877,exp1,2023.1.0,60.03121622553371,
,,,,,,,,,,,,,,,,4,9.1,9.7,10.3,10.9,0,0.5999999999999999,0.3499999999999999,0.25,2.05,10,match,36.05,328,350,371,393,0,9,9,9,9,0,,,,,,,3,0,3,0,0,17,17,14,,,,,,,,,,,,,,4,1.2242540000006557,4,0.35,0.25,9.01073,return,0.9015539999818429,,,,,,,,,,,,,,,,,p316,28,female,up_down_width,2025-12-08_15h33.54.877,exp1,2023.1.0,60.03121622553371,
,,,,,,,,,,,,,,,,4,8.65,9.55,10.45,11.35,0,0.9,0.65,0.25,2.95,10,initial,36.05,312,344,377,409,0,9,9,9,9,0,,,,,,,3,0,3,0,0,18,18,30,,,,,,,,,,,,,,4,2.0739370000083,4,0.35,0.2,7.20859,return,1.8937107000383548,,,,,,,,,,,,,,,,,p316,28,female,up_down_width,2025-12-08_15h33.54.877,exp1,2023.1.0,60.03121622553371,
,,,,,,,,,,,,,,,,3,8.6,10,11.4,0,0,1.4,0.85,0.55,3.35,10,match,36.05,310,361,411,0,0,9,9,9,0,0,,,,,,,3,0,3,0,0,19,19,41,,,,,,,,,,,,,,3,1.106943399994634,3,0.35,0.7000000000000001,25.23005,return,2.485018500010483,,,,,,,,,,,,,,,,,p316,28,female,up_down_width,2025-12-08_15h33.54.877,exp1,2023.1.0,60.03121622553371,
,,,,,,,,,,,,,,,,5,7.8,8.9,10,11.1,12.2,1.1,0.8500000000000001,0.25,4.65,10,initial,36.05,281,321,361,400,440,9,9,9,9,9,,,,,,,3,0,3,0,0,20,20,36,,,,,,,,,,,,,,5,1.4589479999849573,5,0.25,0.35,12.61502,return,1.3679441999993287,,,,,,,,,,,,,,,,,p316,28,female,up_down_width,2025-12-08_15h33.54.877,exp1,2023.1.0,60.03121622553371,
,,,,,,,,,,,,,,,,5,8.275,9.1375,10,10.8625,11.725,0.8625,0.6125,0.25,3.7,10,match,36.05,298,329,361,392,423,9,9,9,9,9,,,,,,,3,0,3,0,0,21,21,22,,,,,,,,,,,,,,5,1.363636200025212,5,0.5,0.25000000000000006,9.01073,return,2.4595429000328295,,,,,,,,,,,,,,,,,p316,28,female,up_down_width,2025-12-08_15h33.54.877,exp1,2023.1.0,60.03121622553371,
,,,,,,,,,,,,,,,,3,9.3,10,10.7,0,0,0.7,0.44999999999999996,0.25,1.65,10,initial,36.05,335,361,386,0,0,9,9,9,0,0,,,,,,,3,0,3,0,0,22,22,7,,,,,,,,,,,,,,2,1.2492550000315532,2,0.45,0.25000000000000006,9.01073,return,1.309670399990864,,,,,,,,,,,,,,,,,p316,28,female,up_down_width,2025-12-08_15h33.54.877,exp1,2023.1.0,60.03121622553371,
,,,,,,,,,,,,,,,,5,8.6,9.3,10,10.7,11.4,0.7,0.1499999999999999,0.55,3.3499999999999996,10,initial,36.05,310,335,361,386,411,9,9,9,9,9,,,,,,,3,0,3,0,0,23,23,40,,,,,,,,,,,,,,4,1.1358223000424914,4,0.4,0.6500000000000001,23.4279,return,1.7130169000010937,,,,,,,,,,,,,,,,,p316,28,female,up_down_width,2025-12-08_15h33.54.877,exp1,2023.1.0,60.03121622553371,
,,,,,,,,,,,,,,,,4,8.35,9.45,10.55,11.65,0,1.1,0.55,0.55,3.8500000000000005,10,initial,36.05,301,341,380,420,0,9,9,9,9,0,,,,,,,3,0,3,0,0,24,24,17,,,,,,,,,,,,,,3,2.4462168000172824,3,0.45,0.6500000000000001,23.4279,return,1.4032662999816239,,,,,,,,,,,,,,,,,p316,28,female,up_down_width,2025-12-08_15h33.54.877,exp1,2023.1.0,60.03121622553371,
,,,,,,,,,,,,,,,,3,7.8,10,12.2,0,0,2.2,1.65,0.55,4.95,10,match,36.05,281,361,440,0,0,9,9,9,0,0,,,,,,,3,0,3,0,0,25,25,35,,,,,,,,,,,,,,3,1.356295700010378,3,0.5,0.7000000000000002,25.23005,return,1.4290291999932379,,,,,,,,,,,,,,,,,p316,28,female,up_down_width,2025-12-08_15h33.54.877,exp1,2023.1.0,60.03121622553371,
,,,,,,,,,,,,,,,,4,8.95,9.65,10.35,11.05,0,0.7,0.1499999999999999,0.55,2.65,10,initial,36.05,323,348,373,398,0,9,9,9,9,0,,,,,,,3,0,3,0,0,26,26,23,,,,,,,,,,,,,,3,1.0779540000366978,3,0.35,0.7000000000000001,25.23005,return,2.8404494000133127,,,,,,,,,,,,,,,,,p316,28,female,up_down_width,2025-12-08_15h33.54.877,exp1,2023.1.0,60.03121622553371,
,,,,,,,,,,,,,,,,3,8.9,10,11.1,0,0,1.1,0.8500000000000001,0.25,2.45,10,initial,36.05,321,361,400,0,0,9,9,9,0,0,,,,,,,3,0,3,0,0,27,27,2,,,,,,,,,,,,,,2,1.3101960000349209,2,0.55,0.30000000000000004,10.81288,return,2.409478699963074,,,,,,,,,,,,,,,,,p316,28,female,up_down_width,2025-12-08_15h33.54.877,exp1,2023.1.0,60.03121622553371,
,,,,,,,,,,,,,,,,5,8.35,9.175,10,10.825,11.65,0.8250000000000001,0.275,0.55,3.85,10,match,36.05,301,331,361,390,420,9,9,9,9,9,,,,,,,3,0,3,0,0,28,28,18,,,,,,,,,,,,,,4,1.162985300004948,4,0.45,0.5,18.02146,return,3.084445200045593,,,,,,,,,,,,,,,,,p316,28,female,up_down_width,2025-12-08_15h33.54.877,exp1,2023.1.0,60.03121622553371,
,,,,,,,,,,,,,,,,3,8.9,10,11.1,0,0,1.1,0.55,0.55,2.75,10,initial,36.05,321,361,400,0,0,9,9,9,0,0,,,,,,,3,0,3,0,0,29,29,0,,,,,,,,,,,,,,2,1.1287339000264183,2,0.45,0.6500000000000001,23.4279,return,1.721748200012371,,,,,,,,,,,,,,,,,p316,28,female,up_down_width,2025-12-08_15h33.54.877,exp1,2023.1.0,60.03121622553371,
,,,,,,,,,,,,,,,,3,9.1,10,10.9,0,0,0.9,0.65,0.25,2.05,10,initial,36.05,328,361,393,0,0,9,9,9,0,0,,,,,,,3,0,3,0,0,30,30,13,,,,,,,,,,,,,,2,1.1184917999780737,2,0.4,0.25000000000000006,9.01073,return,1.1998854000121355,,,,,,,,,,,,,,,,,p316,28,female,up_down_width,2025-12-08_15h33.54.877,exp1,2023.1.0,60.03121622553371,
,,,,,,,,,,,,,,,,5,8.95,9.475,10,10.525,11.05,0.525,0.275,0.25,2.35,10,match,36.05,323,342,361,379,398,9,9,9,9,9,,,,,,,3,0,3,0,0,31,31,25,,,,,,,,,,,,,,5,1.313888799981214,5,0.45,0.20000000000000007,7.20859,return,1.5964474000502378,,,,,,,,,,,,,,,,,p316,28,female,up_down_width,2025-12-08_15h33.54.877,exp1,2023.1.0,60.03121622553371,
,,,,,,,,,,,,,,,,3,9.3,10,10.7,0,0,0.7,0.29999999999999993,0.4,1.8,10,initial,36.05,335,361,386,0,0,9,9,9,0,0,,,,,,,3,0,3,0,0,32,32,9,,,,,,,,,,,,,,3,1.1679376999964006,3,0.2,0.25,9.01073,return,1.4874419000116177,,,,,,,,,,,,,,,,,p316,28,female,up_down_width,2025-12-08_15h33.54.877,exp1,2023.1.0,60.03121622553371,
,,,,,,,,,,,,,,,,5,8.65,9.325,10,10.675,11.35,0.675,0.275,0.4,3.1,10,match,36.05,312,336,361,385,409,9,9,9,9,9,,,,,,,3,0,3,0,0,33,33,33,,,,,,,,,,,,,,5,2.4237181000062265,5,0.45,0.35000000000000003,12.61502,return,1.509754900005646,,,,,,,,,,,,,,,,,p316,28,female,up_down_width,2025-12-08_15h33.54.877,exp1,2023.1.0,60.03121622553371,
,,,,,,,,,,,,,,,,5,8.2,9.1,10,10.9,11.8,0.9,0.65,0.25,3.85,10,initial,36.05,296,328,361,393,425,9,9,9,9,9,,,,,,,3,0,3,0,0,34,34,48,,,,,,,,,,,,,,5,1.6969382999814115,5,0.35,0.2,7.20859,return,1.4529145000269637,,,,,,,,,,,,,,,,,p316,28,female,up_down_width,2025-12-08_15h33.54.877,exp1,2023.1.0,60.03121622553371,
,,,,,,,,,,,,,,,,5,8.6,9.3,10,10.7,11.4,0.7,0.29999999999999993,0.4,3.1999999999999997,10,initial,36.05,310,335,361,386,411,9,9,9,9,9,,,,,,,3,0,3,0,0,35,35,44,,,,,,,,,,,,,,5,1.8600124000222422,5,0.3,0.3,10.81288,return,1.8006558999768458,,,,,,,,,,,,,,,,,p316,28,female,up_down_width,2025-12-08_15h33.54.877,exp1,2023.1.0,60.03121622553371,
,,,,,,,,,,,,,,,,4,9.3,9.766666666666667,10.233333333333333,10.7,0,0.4666666666666667,0.06666666666666665,0.4,1.8,10,match,36.05,335,352,369,386,0,9,9,9,9,0,,,,,,,3,0,3,0,0,36,36,10,,,,,,,,,,,,,,4,1.1924419000279158,4,0.55,0.4,14.41717,return,2.6313119999831542,,,,,,,,,,,,,,,,,p316,28,female,up_down_width,2025-12-08_15h33.54.877,exp1,2023.1.0,60.03121622553371,
,,,,,,,,,,,,,,,,3,7.8,10,12.2,0,0,2.2,1.9500000000000002,0.25,4.65,10,match,36.05,281,361,440,0,0,9,9,9,0,0,,,,,,,3,0,3,0,0,37,37,37,,,,,,,,,,,,,,3,1.0638568000285886,3,0.35,0.3,10.81288,return,1.196439300023485,,,,,,,,,,,,,,,,,p316,28,female,up_down_width,2025-12-08_15h33.54.877,exp1,2023.1.0,60.03121622553371,
,,,,,,,,,,,,,,,,3,8.2,10,11.8,0,0,1.8,1.25,0.55,4.15,10,match,36.05,296,361,425,0,0,9,9,9,0,0,,,,,,,3,0,3,0,0,38,38,47,,,,,,,,,,,,,,3,1.2567691000294872,3,0.25,0.7000000000000001,25.23005,return,2.3095050000119954,,,,,,,,,,,,,,,,,p316,28,female,up_down_width,2025-12-08_15h33.54.877,exp1,2023.1.0,60.03121622553371,
,,,,,,,,,,,,,,,,5,8.65,9.325,10,10.675,11.35,0.675,0.42500000000000004,0.25,2.95,10,match,36.05,312,336,361,385,409,9,9,9,9,9,,,,,,,3,0,3,0,0,39,39,31,,,,,,,,,,,,,,5,1.2916673999861814,5,0.55,0.25000000000000006,9.01073,return,2.279564999975264,,,,,,,,,,,,,,,,,p316,28,female,up_down_width,2025-12-08_15h33.54.877,exp1,2023.1.0,60.03121622553371,
,,,,,,,,,,,,,,,,4,9.3,9.766666666666667,10.233333333333333,10.7,0,0.4666666666666667,0.21666666666666665,0.25,1.65,10,match,36.05,335,352,369,386,0,9,9,9,9,0,,,,,,,3,0,3,0,0,40,40,8,,,,,,,,,,,,,,4,1.2638179000350647,4,0.5,0.20000000000000007,7.20859,return,3.883529599988833,,,,,,,,,,,,,,,,,p316,28,female,up_down_width,2025-12-08_15h33.54.877,exp1,2023.1.0,60.03121622553371,
,,,,,,,,,,,,,,,,4,8.35,9.45,10.55,11.65,0,1.1,0.8500000000000001,0.25,3.5500000000000003,10,initial,36.05,301,341,380,420,0,9,9,9,9,0,,,,,,,3,0,3,0,0,41,41,19,,,,,,,,,,,,,,3,1.752051199960988,3,0.3,0.2,7.20859,return,2.5613812999799848,,,,,,,,,,,,,,,,,p316,28,female,up_down_width,2025-12-08_15h33.54.877,exp1,2023.1.0,60.03121622553371,
,,,,,,,,,,,,,,,,4,8.825,9.608333333333333,10.391666666666667,11.175,0,0.7833333333333333,0.5333333333333333,0.25,2.6,10,match,36.05,318,346,375,403,0,9,9,9,9,0,,,,,,,3,0,3,0,0,42,42,5,,,,,,,,,,,,,,3,1.5758162999991328,3,0.55,0.25000000000000006,9.01073,return,2.1030775000108406,,,,,,,,,,,,,,,,,p316,28,female,up_down_width,2025-12-08_15h33.54.877,exp1,2023.1.0,60.03121622553371,
,,,,,,,,,,,,,,,,3,9.1,10,10.9,0,0,0.9,0.35,0.55,2.35,10,initial,36.05,328,361,393,0,0,9,9,9,0,0,,,,,,,3,0,3,0,0,43,43,11,,,,,,,,,,,,,,2,1.7322481999872252,2,0.3,0.7000000000000001,25.23005,return,2.5907614000025205,,,,,,,,,,,,,,,,,p316,28,female,up_down_width,2025-12-08_15h33.54.877,exp1,2023.1.0,60.03121622553371,
,,,,,,,,,,,,,,,,5,8.95,9.475,10,10.525,11.05,0.525,0.125,0.4,2.5,10,match,36.05,323,342,361,379,398,9,9,9,9,9,,,,,,,3,0,3,0,0,44,44,27,,,,,,,,,,,,,,5,2.708434699976351,5,0.3,0.39999999999999997,14.41717,return,2.501915899978485,,,,,,,,,,,,,,,,,p316,28,female,up_down_width,2025-12-08_15h33.54.877,exp1,2023.1.0,60.03121622553371,
,,,,,,,,,,,,,,,,4,9.1,9.7,10.3,10.9,0,0.6000000000000001,0.20000000000000004,0.4,2.2,10,match,36.05,328,350,371,393,0,9,9,9,9,0,,,,,,,3,0,3,0,0,45,45,16,,,,,,,,,,,,,,4,2.367480000015348,4,0.2,0.39999999999999997,14.41717,return,2.078214199980721,,,,,,,,,,,,,,,,,p316,28,female,up_down_width,2025-12-08_15h33.54.877,exp1,2023.1.0,60.03121622553371,
,,,,,,,,,,,,,,,,5,8.65,9.325,10,10.675,11.35,0.675,0.125,0.55,3.25,10,match,36.05,312,336,361,385,409,9,9,9,9,9,,,,,,,3,0,3,0,0,46,46,29,,,,,,,,,,,,,,4,1.4392486999859102,4,0.3,0.65,23.4279,return,2.323824599967338,,,,,,,,,,,,,,,,,p316,28,female,up_down_width,2025-12-08_15h33.54.877,exp1,2023.1.0,60.03121622553371,
,,,,,,,,,,,,,,,,3,9.1,10,10.9,0,0,0.9,0.5,0.4,2.2,10,initial,36.05,328,361,393,0,0,9,9,9,0,0,,,,,,,3,0,3,0,0,47,47,15,,,,,,,,,,,,,,2,2.3311934000230394,2,0.3,0.44999999999999996,16.21932,return,1.6605199999758042,,,,,,,,,,,,,,,,,p316,28,female,up_down_width,2025-12-08_15h33.54.877,exp1,2023.1.0,60.03121622553371,
,,,,,,,,,,,,,,,,4,8.9,9.633333333333333,10.366666666666667,11.1,0,0.7333333333333334,0.4833333333333334,0.25,2.45,10,match,36.05,321,347,374,400,0,9,9,9,9,0,,,,,,,3,0,3,0,0,48,48,3,,,,,,,,,,,,,,3,1.6325205999892205,3,0.55,0.4,14.41717,return,3.1827634000219405,,,,,,,,,,,,,,,,,p316,28,female,up_down_width,2025-12-08_15h33.54.877,exp1,2023.1.0,60.03121622553371,
,,,,,,,,,,,,,,,,4,8.65,9.55,10.45,11.35,0,0.9,0.35,0.55,3.25,10,initial,36.05,312,344,377,409,0,9,9,9,9,0,,,,,,,3,0,3,0,0,49,49,28,,,,,,,,,,,,,,3,1.8008529000217095,3,0.3,0.5499999999999999,19.82361,return,4.448672999977134,,,,,,,,,,,,,,,,,p316,28,female,up_down_width,2025-12-08_15h33.54.877,exp1,2023.1.0,60.03121622553371,
,,,,,,,,,,,,,,,,4,9.1,9.7,10.3,10.9,0,0.6,0.04999999999999997,0.55,2.35,10,match,36.05,328,350,371,393,0,9,9,9,9,0,,,,,,,3,0,3,0,0,50,50,12,,,,,,,,,,,,,,3,0.9825014999951236,3,0.2,0.7000000000000001,25.23005,return,3.551358800032176,,,,,,,,,,,,,,,,,p316,28,female,up_down_width,2025-12-08_15h33.54.877,exp1,2023.1.0,60.03121622553371,
,,,,,,,,,,,,,,,,5,8.2,9.1,10,10.9,11.8,0.9,0.5,0.4,4,10,initial,36.05,296,328,361,393,425,9,9,9,9,9,,,,,,,3,0,3,0,0,51,51,50,,,,,,,,,,,,,,5,2.43017810001038,5,0.4,0.55,19.82361,return,1.7555937999859452,,,,,,,,,,,,,,,,,p316,28,female,up_down_width,2025-12-08_15h33.54.877,exp1,2023.1.0,60.03121622553371,
,,,,,,,,,,,,,,,,,,,,,,,,,,,,,,,,,,,,,,,,,,,,,3,0,3,0,,,,,,,,,,,,,,,,,,,,,,,,,,,,1825.832695899997,1825.832695899997,1825.832695899997,,,,,,,,,,,,p316,28,female,up_down_width,2025-12-08_15h33.54.877,exp1,2023.1.0,60.03121622553371,
,,,,,,,,,,,,,,,,5,8.35,9.175,10,10.825,11.65,0.825,0.575,0.25,3.55,10,match,36.05,301,331,361,390,420,9,9,9,9,9,,,,,,,4,0,4,0,0,0,0,20,,,,,,,,,,,,,,4,2.6234605999779887,4,0.55,0.20000000000000007,7.20859,return,3.189965699973982,,,,,,,,,,,,,,,,,p316,28,female,up_down_width,2025-12-08_15h33.54.877,exp1,2023.1.0,60.03121622553371,
,,,,,,,,,,,,,,,,5,7.8,8.9,10,11.1,12.2,1.1,0.55,0.55,4.95,10,initial,36.05,281,321,361,400,440,9,9,9,9,9,,,,,,,4,0,4,0,0,1,1,34,,,,,,,,,,,,,,5,2.31780289998278,5,0.5,0.5,18.02146,return,2.430942100007087,,,,,,,,,,,,,,,,,p316,28,female,up_down_width,2025-12-08_15h33.54.877,exp1,2023.1.0,60.03121622553371,
,,,,,,,,,,,,,,,,5,8.35,9.175,10,10.825,11.65,0.8250000000000001,0.275,0.55,3.85,10,match,36.05,301,331,361,390,420,9,9,9,9,9,,,,,,,4,0,4,0,0,2,2,18,,,,,,,,,,,,,,4,1.2152808999526314,4,0.5,0.6000000000000001,21.62576,return,4.126404499984346,,,,,,,,,,,,,,,,,p316,28,female,up_down_width,2025-12-08_15h33.54.877,exp1,2023.1.0,60.03121622553371,
,,,,,,,,,,,,,,,,3,8.9,10,11.1,0,0,1.1,0.55,0.55,2.75,10,initial,36.05,321,361,400,0,0,9,9,9,0,0,,,,,,,4,0,4,0,0,3,3,0,,,,,,,,,,,,,,2,1.4174551999894902,2,0.55,0.6000000000000001,21.62576,return,1.8229942999896593,,,,,,,,,,,,,,,,,p316,28,female,up_down_width,2025-12-08_15h33.54.877,exp1,2023.1.0,60.03121622553371,
,,,,,,,,,,,,,,,,5,8.2,9.1,10,10.9,11.8,0.9,0.5,0.4,4,10,initial,36.05,296,328,361,393,425,9,9,9,9,9,,,,,,,4,0,4,0,0,4,4,50,,,,,,,,,,,,,,6,1.8884217999875546,6,0.45,0.5,18.02146,return,2.4988430000375956,,,,,,,,,,,,,,,,,p316,28,female,up_down_width,2025-12-08_15h33.54.877,exp1,2023.1.0,60.03121622553371,
,,,,,,,,,,,,,,,,4,8.65,9.55,10.45,11.35,0,0.9,0.65,0.25,2.95,10,initial,36.05,312,344,377,409,0,9,9,9,9,0,,,,,,,4,0,4,0,0,5,5,30,,,,,,,,,,,,,,4,2.0642700000316836,4,0.55,0.30000000000000004,10.81288,return,2.5570300999679603,,,,,,,,,,,,,,,,,p316,28,female,up_down_width,2025-12-08_15h33.54.877,exp1,2023.1.0,60.03121622553371,
,,,,,,,,,,,,,,,,5,8.2,9.1,10,10.9,11.8,0.9,0.65,0.25,3.85,10,initial,36.05,296,328,361,393,425,9,9,9,9,9,,,,,,,4,0,4,0,0,6,6,48,,,,,,,,,,,,,,4,1.9462919000070542,4,0.5,0.25000000000000006,9.01073,return,3.3721331999986432,,,,,,,,,,,,,,,,,p316,28,female,up_down_width,2025-12-08_15h33.54.877,exp1,2023.1.0,60.03121622553371,
,,,,,,,,,,,,,,,,3,8.6,10,11.4,0,0,1.4,1.15,0.25,3.05,10,match,36.05,310,361,411,0,0,9,9,9,0,0,,,,,,,4,0,4,0,0,7,7,43,,,,,,,,,,,,,,2,2.0608740999596193,2,0.4,0.25000000000000006,9.01073,return,1.6575728000025265,,,,,,,,,,,,,,,,,p316,28,female,up_down_width,2025-12-08_15h33.54.877,exp1,2023.1.0,60.03121622553371,
,,,,,,,,,,,,,,,,3,8.2,10,11.8,0,0,1.8,1.25,0.55,4.15,10,match,36.05,296,361,425,0,0,9,9,9,0,0,,,,,,,4,0,4,0,0,8,8,47,,,,,,,,,,,,,,3,1.1850048000342213,3,0.45,0.6000000000000001,21.62576,return,1.4074984000180848,,,,,,,,,,,,,,,,,p316,28,female,up_down_width,2025-12-08_15h33.54.877,exp1,2023.1.0,60.03121622553371,
,,,,,,,,,,,,,,,,4,8.35,9.45,10.55,11.65,0,1.1,0.55,0.55,3.8500000000000005,10,initial,36.05,301,341,380,420,0,9,9,9,9,0,,,,,,,4,0,4,0,0,9,9,17,,,,,,,,,,,,,,4,1.082182299986016,4,0.2,0.5499999999999999,19.82361,return,1.8065692999516614,,,,,,,,,,,,,,,,,p316,28,female,up_down_width,2025-12-08_15h33.54.877,exp1,2023.1.0,60.03121622553371,
,,,,,,,,,,,,,,,,3,9.1,10,10.9,0,0,0.9,0.5,0.4,2.2,10,initial,36.05,328,361,393,0,0,9,9,9,0,0,,,,,,,4,0,4,0,0,10,10,15,,,,,,,,,,,,,,3,1.4815475000068545,3,0.4,0.55,19.82361,return,1.389167700021062,,,,,,,,,,,,,,,,,p316,28,female,up_down_width,2025-12-08_15h33.54.877,exp1,2023.1.0,60.03121622553371,
,,,,,,,,,,,,,,,,3,8.6,10,11.4,0,0,1.4,0.85,0.55,3.35,10,match,36.05,310,361,411,0,0,9,9,9,0,0,,,,,,,4,0,4,0,0,11,11,41,,,,,,,,,,,,,,2,1.9339350999798626,2,0.55,0.8000000000000003,28.83434,return,1.3910238000098616,,,,,,,,,,,,,,,,,p316,28,female,up_down_width,2025-12-08_15h33.54.877,exp1,2023.1.0,60.03121622553371,
,,,,,,,,,,,,,,,,3,9.1,10,10.9,0,0,0.9,0.65,0.25,2.05,10,initial,36.05,328,361,393,0,0,9,9,9,0,0,,,,,,,4,0,4,0,0,12,12,13,,,,,,,,,,,,,,2,1.5209591999882832,2,0.45,0.30000000000000004,10.81288,return,1.7152632000506856,,,,,,,,,,,,,,,,,p316,28,female,up_down_width,2025-12-08_15h33.54.877,exp1,2023.1.0,60.03121622553371,
,,,,,,,,,,,,,,,,5,8.6,9.3,10,10.7,11.4,0.7,0.44999999999999996,0.25,3.05,10,initial,36.05,310,335,361,386,411,9,9,9,9,9,,,,,,,4,0,4,0,0,13,13,42,,,,,,,,,,,,,,5,1.4840417000232264,5,0.5,0.25000000000000006,9.01073,return,1.759632800007239,,,,,,,,,,,,,,,,,p316,28,female,up_down_width,2025-12-08_15h33.54.877,exp1,2023.1.0,60.03121622553371,
,,,,,,,,,,,,,,,,3,9.3,10,10.7,0,0,0.7,0.1499999999999999,0.55,1.95,10,initial,36.05,335,361,386,0,0,9,9,9,0,0,,,,,,,4,0,4,0,0,14,14,6,,,,,,,,,,,,,,2,2.1536398000316694,2,0.25,0.6,21.62576,return,1.6508635999634862,,,,,,,,,,,,,,,,,p316,28,female,up_down_width,2025-12-08_15h33.54.877,exp1,2023.1.0,60.03121622553371,
,,,,,,,,,,,,,,,,3,8.525,10,11.475,0,0,1.475,1.225,0.25,3.2,10,match,36.05,307,361,414,0,0,9,9,9,0,0,,,,,,,4,0,4,0,0,15,15,45,,,,,,,,,,,,,,3,1.1049062000238337,3,0.35,0.2,7.20859,return,1.5877143000252545,,,,,,,,,,,,,,,,,p316,28,female,up_down_width,2025-12-08_15h33.54.877,exp1,2023.1.0,60.03121622553371,
,,,,,,,,,,,,,,,,4,9.1,9.7,10.3,10.9,0,0.6000000000000001,0.20000000000000004,0.4,2.2,10,match,36.05,328,350,371,393,0,9,9,9,9,0,,,,,,,4,0,4,0,0,16,16,16,,,,,,,,,,,,,,4,1.9325583000318147,4,0.2,0.25,9.01073,return,2.190255999972578,,,,,,,,,,,,,,,,,p316,28,female,up_down_width,2025-12-08_15h33.54.877,exp1,2023.1.0,60.03121622553371,
,,,,,,,,,,,,,,,,4,9.3,9.766666666666667,10.233333333333333,10.7,0,0.4666666666666667,0.06666666666666665,0.4,1.8,10,match,36.05,335,352,369,386,0,9,9,9,9,0,,,,,,,4,0,4,0,0,17,17,10,,,,,,,,,,,,,,3,1.8372324999654666,3,0.35,0.39999999999999997,14.41717,return,2.0017725999932736,,,,,,,,,,,,,,,,,p316,28,female,up_down_width,2025-12-08_15h33.54.877,exp1,2023.1.0,60.03121622553371,
,,,,,,,,,,,,,,,,4,8.35,9.45,10.55,11.65,0,1.1,0.7000000000000001,0.4,3.7,10,initial,36.05,301,341,380,420,0,9,9,9,9,0,,,,,,,4,0,4,0,0,18,18,21,,,,,,,,,,,,,,4,1.823034000059124,4,0.3,0.39999999999999997,14.41717,return,1.4134734999970533,,,,,,,,,,,,,,,,,p316,28,female,up_down_width,2025-12-08_15h33.54.877,exp1,2023.1.0,60.03121622553371,
,,,,,,,,,,,,,,,,4,8.825,9.608333333333333,10.391666666666667,11.175,0,0.7833333333333333,0.5333333333333333,0.25,2.6,10,match,36.05,318,346,375,403,0,9,9,9,9,0,,,,,,,4,0,4,0,0,19,19,5,,,,,,,,,,,,,,3,1.1497793000307865,3,0.2,0.3,10.81288,return,1.5677473999676295,,,,,,,,,,,,,,,,,p316,28,female,up_down_width,2025-12-08_15h33.54.877,exp1,2023.1.0,60.03121622553371,
,,,,,,,,,,,,,,,,5,8.95,9.475,10,10.525,11.05,0.525,0.275,0.25,2.35,10,match,36.05,323,342,361,379,398,9,9,9,9,9,,,,,,,4,0,4,0,0,20,20,25,,,,,,,,,,,,,,5,1.7092700999928638,5,0.55,0.20000000000000007,7.20859,return,2.711545899976045,,,,,,,,,,,,,,,,,p316,28,female,up_down_width,2025-12-08_15h33.54.877,exp1,2023.1.0,60.03121622553371,
,,,,,,,,,,,,,,,,5,8.65,9.325,10,10.675,11.35,0.675,0.275,0.4,3.1,10,match,36.05,312,336,361,385,409,9,9,9,9,9,,,,,,,4,0,4,0,0,21,21,33,,,,,,,,,,,,,,4,1.2467986000119708,4,0.55,0.35000000000000003,12.61502,return,2.5548847999889404,,,,,,,,,,,,,,,,,p316,28,female,up_down_width,2025-12-08_15h33.54.877,exp1,2023.1.0,60.03121622553371,
,,,,,,,,,,,,,,,,5,8.95,9.475,10,10.525,11.05,0.525,0.125,0.4,2.5,10,match,36.05,323,342,361,379,398,9,9,9,9,9,,,,,,,4,0,4,0,0,22,22,27,,,,,,,,,,,,,,5,1.208866200002376,5,0.4,0.35000000000000003,12.61502,return,1.7346844000276178,,,,,,,,,,,,,,,,,p316,28,female,up_down_width,2025-12-08_15h33.54.877,exp1,2023.1.0,60.03121622553371,
,,,,,,,,,,,,,,,,3,8.2,10,11.8,0,0,1.8,1.55,0.25,3.85,10,match,36.05,296,361,425,0,0,9,9,9,0,0,,,,,,,4,0,4,0,0,23,23,49,,,,,,,,,,,,,,2,2.1324758999980986,2,0.5,0.35000000000000003,12.61502,return,1.5509296000236645,,,,,,,,,,,,,,,,,p316,28,female,up_down_width,2025-12-08_15h33.54.877,exp1,2023.1.0,60.03121622553371,
,,,,,,,,,,,,,,,,5,8.275,9.1375,10,10.8625,11.725,0.8625,0.6125,0.25,3.7,10,match,36.05,298,329,361,392,423,9,9,9,9,9,,,,,,,4,0,4,0,0,24,24,22,,,,,,,,,,,,,,4,2.5362598999636248,4,0.2,0.3,10.81288,return,1.2819972000434063,,,,,,,,,,,,,,,,,p316,28,female,up_down_width,2025-12-08_15h33.54.877,exp1,2023.1.0,60.03121622553371,
,,,,,,,,,,,,,,,,3,9.3,10,10.7,0,0,0.7,0.29999999999999993,0.4,1.8,10,initial,36.05,335,361,386,0,0,9,9,9,0,0,,,,,,,4,0,4,0,0,25,25,9,,,,,,,,,,,,,,3,2.424546000023838,3,0.5,0.30000000000000004,10.81288,return,2.1010266999946907,,,,,,,,,,,,,,,,,p316,28,female,up_down_width,2025-12-08_15h33.54.877,exp1,2023.1.0,60.03121622553371,
,,,,,,,,,,,,,,,,3,7.8,10,12.2,0,0,2.2,1.9500000000000002,0.25,4.65,10,match,36.05,281,361,440,0,0,9,9,9,0,0,,,,,,,4,0,4,0,0,26,26,37,,,,,,,,,,,,,,3,0.9599040999892168,3,0.3,0.3,10.81288,return,2.12003829999594,,,,,,,,,,,,,,,,,p316,28,female,up_down_width,2025-12-08_15h33.54.877,exp1,2023.1.0,60.03121622553371,
,,,,,,,,,,,,,,,,4,8.95,9.65,10.35,11.05,0,0.7,0.1499999999999999,0.55,2.65,10,initial,36.05,323,348,373,398,0,9,9,9,9,0,,,,,,,4,0,4,0,0,27,27,23,,,,,,,,,,,,,,3,1.203815700020641,3,0.35,0.65,23.4279,return,1.650809400016442,,,,,,,,,,,,,,,,,p316,28,female,up_down_width,2025-12-08_15h33.54.877,exp1,2023.1.0,60.03121622553371,
,,,,,,,,,,,,,,,,5,8.2,9.1,10,10.9,11.8,0.9,0.35,0.55,4.15,10,initial,36.05,296,328,361,393,425,9,9,9,9,9,,,,,,,4,0,4,0,0,28,28,46,,,,,,,,,,,,,,5,1.6299202000373043,5,0.4,0.55,19.82361,return,1.4355220000143163,,,,,,,,,,,,,,,,,p316,28,female,up_down_width,2025-12-08_15h33.54.877,exp1,2023.1.0,60.03121622553371,
,,,,,,,,,,,,,,,,4,8.9,9.633333333333333,10.366666666666667,11.1,0,0.7333333333333333,0.18333333333333326,0.55,2.75,10,match,36.05,321,347,374,400,0,9,9,9,9,0,,,,,,,4,0,4,0,0,29,29,1,,,,,,,,,,,,,,3,1.2854460999951698,3,0.3,0.6,21.62576,return,1.6005290999892168,,,,,,,,,,,,,,,,,p316,28,female,up_down_width,2025-12-08_15h33.54.877,exp1,2023.1.0,60.03121622553371,
,,,,,,,,,,,,,,,,5,8.65,9.325,10,10.675,11.35,0.675,0.42500000000000004,0.25,2.95,10,match,36.05,312,336,361,385,409,9,9,9,9,9,,,,,,,4,0,4,0,0,30,30,31,,,,,,,,,,,,,,5,2.5534946000552736,5,0.35,0.25,9.01073,return,1.1700363000272773,,,,,,,,,,,,,,,,,p316,28,female,up_down_width,2025-12-08_15h33.54.877,exp1,2023.1.0,60.03121622553371,
,,,,,,,,,,,,,,,,3,9.1,10,10.9,0,0,0.9,0.35,0.55,2.35,10,initial,36.05,328,361,393,0,0,9,9,9,0,0,,,,,,,4,0,4,0,0,31,31,11,,,,,,,,,,,,,,2,2.3082256999914534,2,0.5,0.7000000000000002,25.23005,return,1.5749003000091761,,,,,,,,,,,,,,,,,p316,28,female,up_down_width,2025-12-08_15h33.54.877,exp1,2023.1.0,60.03121622553371,
,,,,,,,,,,,,,,,,4,8.65,9.55,10.45,11.35,0,0.9,0.5,0.4,3.1,10,initial,36.05,312,344,377,409,0,9,9,9,9,0,,,,,,,4,0,4,0,0,32,32,32,,,,,,,,,,,,,,4,1.1897231999901123,4,0.3,0.44999999999999996,16.21932,return,1.0131621999898925,,,,,,,,,,,,,,,,,p316,28,female,up_down_width,2025-12-08_15h33.54.877,exp1,2023.1.0,60.03121622553371,
,,,,,,,,,,,,,,,,4,9.1,9.7,10.3,10.9,0,0.6,0.04999999999999997,0.55,2.35,10,match,36.05,328,350,371,393,0,9,9,9,9,0,,,,,,,4,0,4,0,0,33,33,12,,,,,,,,,,,,,,2,1.9716673000366427,2,0.3,1.0500000000000003,37.84507,return,3.8117780999746174,,,,,,,,,,,,,,,,,p316,28,female,up_down_width,2025-12-08_15h33.54.877,exp1,2023.1.0,60.03121622553371,
,,,,,,,,,,,,,,,,5,7.8,8.9,10,11.1,12.2,1.1,0.7000000000000001,0.4,4.800000000000001,10,initial,36.05,281,321,361,400,440,9,9,9,9,9,,,,,,,4,0,4,0,0,34,34,38,,,,,,,,,,,,,,5,1.4476710999733768,5,0.25,0.5499999999999999,19.82361,return,2.604898800025694,,,,,,,,,,,,,,,,,p316,28,female,up_down_width,2025-12-08_15h33.54.877,exp1,2023.1.0,60.03121622553371,
,,,,,,,,,,,,,,,,3,8.9,10,11.1,0,0,1.1,0.8500000000000001,0.25,2.45,10,initial,36.05,321,361,400,0,0,9,9,9,0,0,,,,,,,4,0,4,0,0,35,35,2,,,,,,,,,,,,,,2,1.5571452000294812,2,0.5,0.30000000000000004,10.81288,return,2.198688200034667,,,,,,,,,,,,,,,,,p316,28,female,up_down_width,2025-12-08_15h33.54.877,exp1,2023.1.0,60.03121622553371,
,,,,,,,,,,,,,,,,3,8.9,10,11.1,0,0,1.1,0.7000000000000001,0.4,2.6000000000000005,10,initial,36.05,321,361,400,0,0,9,9,9,0,0,,,,,,,4,0,4,0,0,36,36,4,,,,,,,,,,,,,,2,2.184842300019227,2,0.55,0.35000000000000003,12.61502,return,1.966361600032542,,,,,,,,,,,,,,,,,p316,28,female,up_down_width,2025-12-08_15h33.54.877,exp1,2023.1.0,60.03121622553371,
,,,,,,,,,,,,,,,,4,8.95,9.65,10.35,11.05,0,0.7,0.29999999999999993,0.4,2.5,10,initial,36.05,323,348,373,398,0,9,9,9,9,0,,,,,,,4,0,4,0,0,37,37,26,,,,,,,,,,,,,,3,1.3358143000514247,3,0.3,0.44999999999999996,16.21932,return,1.2181764999986626,,,,,,,,,,,,,,,,,p316,28,female,up_down_width,2025-12-08_15h33.54.877,exp1,2023.1.0,60.03121622553371,
,,,,,,,,,,,,,,,,3,7.800000000000001,10,12.2,0,0,2.1999999999999997,1.7999999999999998,0.4,4.8,10,match,36.05,281,361,440,0,0,9,9,9,0,0,,,,,,,4,0,4,0,0,38,38,39,,,,,,,,,,,,,,3,0.9847095999866724,3,0.55,0.4,14.41717,return,2.6877794999745674,,,,,,,,,,,,,,,,,p316,28,female,up_down_width,2025-12-08_15h33.54.877,exp1,2023.1.0,60.03121622553371,
,,,,,,,,,,,,,,,,5,8.6,9.3,10,10.7,11.4,0.7,0.1499999999999999,0.55,3.3499999999999996,10,initial,36.05,310,335,361,386,411,9,9,9,9,9,,,,,,,4,0,4,0,0,39,39,40,,,,,,,,,,,,,,4,1.3081807999988087,4,0.3,0.5499999999999999,19.82361,return,1.463096300023608,,,,,,,,,,,,,,,,,p316,28,female,up_down_width,2025-12-08_15h33.54.877,exp1,2023.1.0,60.03121622553371,
,,,,,,,,,,,,,,,,4,8.95,9.65,10.35,11.05,0,0.7,0.44999999999999996,0.25,2.3499999999999996,10,initial,36.05,323,348,373,398,0,9,9,9,9,0,,,,,,,4,0,4,0,0,40,40,24,,,,,,,,,,,,,,4,1.37564260000363,4,0.45,0.15000000000000008,5.40644,return,1.7670925999991596,,,,,,,,,,,,,,,,,p316,28,female,up_down_width,2025-12-08_15h33.54.877,exp1,2023.1.0,60.03121622553371,
,,,,,,,,,,,,,,,,3,9.3,10,10.7,0,0,0.7,0.44999999999999996,0.25,1.65,10,initial,36.05,335,361,386,0,0,9,9,9,0,0,,,,,,,4,0,4,0,0,41,41,7,,,,,,,,,,,,,,3,1.3450219000224024,3,0.3,0.2,7.20859,return,1.0509807000053115,,,,,,,,,,,,,,,,,p316,28,female,up_down_width,2025-12-08_15h33.54.877,exp1,2023.1.0,60.03121622553371,
,,,,,,,,,,,,,,,,5,8.6,9.3,10,10.7,11.4,0.7,0.29999999999999993,0.4,3.1999999999999997,10,initial,36.05,310,335,361,386,411,9,9,9,9,9,,,,,,,4,0,4,0,0,42,42,44,,,,,,,,,,,,,,5,1.5018097999854945,5,0.55,0.4,14.41717,return,2.4491505000041798,,,,,,,,,,,,,,,,,p316,28,female,up_down_width,2025-12-08_15h33.54.877,exp1,2023.1.0,60.03121622553371,
,,,,,,,,,,,,,,,,4,8.9,9.633333333333333,10.366666666666667,11.1,0,0.7333333333333334,0.4833333333333334,0.25,2.45,10,match,36.05,321,347,374,400,0,9,9,9,9,0,,,,,,,4,0,4,0,0,43,43,3,,,,,,,,,,,,,,3,1.8624738999642432,3,0.4,0.25000000000000006,9.01073,return,1.0831062000361271,,,,,,,,,,,,,,,,,p316,28,female,up_down_width,2025-12-08_15h33.54.877,exp1,2023.1.0,60.03121622553371,
,,,,,,,,,,,,,,,,5,8.65,9.325,10,10.675,11.35,0.675,0.125,0.55,3.25,10,match,36.05,312,336,361,385,409,9,9,9,9,9,,,,,,,4,0,4,0,0,44,44,29,,,,,,,,,,,,,,3,1.5431786999688484,3,0.3,0.6,21.62576,return,1.352760500041768,,,,,,,,,,,,,,,,,p316,28,female,up_down_width,2025-12-08_15h33.54.877,exp1,2023.1.0,60.03121622553371,
,,,,,,,,,,,,,,,,4,8.65,9.55,10.45,11.35,0,0.9,0.35,0.55,3.25,10,initial,36.05,312,344,377,409,0,9,9,9,9,0,,,,,,,4,0,4,0,0,45,45,28,,,,,,,,,,,,,,4,1.116344400041271,4,0.3,0.7500000000000001,27.0322,return,1.9341136000002734,,,,,,,,,,,,,,,,,p316,28,female,up_down_width,2025-12-08_15h33.54.877,exp1,2023.1.0,60.03121622553371,
,,,,,,,,,,,,,,,,4,9.3,9.766666666666667,10.233333333333333,10.7,0,0.4666666666666667,0.21666666666666665,0.25,1.65,10,match,36.05,335,352,369,386,0,9,9,9,9,0,,,,,,,4,0,4,0,0,46,46,8,,,,,,,,,,,,,,4,1.4181929000187665,4,0.2,0.15000000000000002,5.40644,return,1.8229728000005707,,,,,,,,,,,,,,,,,p316,28,female,up_down_width,2025-12-08_15h33.54.877,exp1,2023.1.0,60.03121622553371,
,,,,,,,,,,,,,,,,3,8.2,10,11.8,0,0,1.7999999999999998,1.4,0.4,4,10,match,36.05,296,361,425,0,0,9,9,9,0,0,,,,,,,4,0,4,0,0,47,47,51,,,,,,,,,,,,,,3,1.0882519000442699,3,0.55,0.45,16.21932,return,2.0675086000119336,,,,,,,,,,,,,,,,,p316,28,female,up_down_width,2025-12-08_15h33.54.877,exp1,2023.1.0,60.03121622553371,
,,,,,,,,,,,,,,,,4,9.1,9.7,10.3,10.9,0,0.5999999999999999,0.3499999999999999,0.25,2.05,10,match,36.05,328,350,371,393,0,9,9,9,9,0,,,,,,,4,0,4,0,0,48,48,14,,,,,,,,,,,,,,4,1.1879688000190072,4,0.35,0.25,9.01073,return,1.074883499997668,,,,,,,,,,,,,,,,,p316,28,female,up_down_width,2025-12-08_15h33.54.877,exp1,2023.1.0,60.03121622553371,
,,,,,,,,,,,,,,,,4,8.35,9.45,10.55,11.65,0,1.1,0.8500000000000001,0.25,3.5500000000000003,10,initial,36.05,301,341,380,420,0,9,9,9,9,0,,,,,,,4,0,4,0,0,49,49,19,,,,,,,,,,,,,,3,1.0970163999591023,3,0.5,0.20000000000000007,7.20859,return,2.332495199982077,,,,,,,,,,,,,,,,,p316,28,female,up_down_width,2025-12-08_15h33.54.877,exp1,2023.1.0,60.03121622553371,
,,,,,,,,,,,,,,,,3,7.8,10,12.2,0,0,2.2,1.65,0.55,4.95,10,match,36.05,281,361,440,0,0,9,9,9,0,0,,,,,,,4,0,4,0,0,50,50,35,,,,,,,,,,,,,,3,1.2496857999940403,3,0.2,0.6,21.62576,return,2.0956004000036046,,,,,,,,,,,,,,,,,p316,28,female,up_down_width,2025-12-08_15h33.54.877,exp1,2023.1.0,60.03121622553371,
,,,,,,,,,,,,,,,,5,7.8,8.9,10,11.1,12.2,1.1,0.8500000000000001,0.25,4.65,10,initial,36.05,281,321,361,400,440,9,9,9,9,9,,,,,,,4,0,4,0,0,51,51,36,,,,,,,,,,,,,,4,1.2993134999996983,4,0.35,0.25,9.01073,return,1.054393100028392,,,,,,,,,,,,,,,,,p316,28,female,up_down_width,2025-12-08_15h33.54.877,exp1,2023.1.0,60.03121622553371,
,,,,,,,,,,,,,,,,,,,,,,,,,,,,,,,,,,,,,,,,,,,,,4,0,4,0,,,,,,,,,,,,,,,,,,,,,,,,,,,,2123.865680499992,2123.865680499992,2123.865680499992,,,,,,,,,,,,p316,28,female,up_down_width,2025-12-08_15h33.54.877,exp1,2023.1.0,60.03121622553371,
,,,,,,,,,,,,,,,,4,8.95,9.65,10.35,11.05,0,0.7,0.1499999999999999,0.55,2.65,10,initial,36.05,323,348,373,398,0,9,9,9,9,0,,,,,,,5,0,5,0,0,0,0,23,,,,,,,,,,,,,,3,1.2159025999717414,3,0.2,0.44999999999999996,16.21932,return,1.9494073000387289,,,,,,,,,,,,,,,,,p316,28,female,up_down_width,2025-12-08_15h33.54.877,exp1,2023.1.0,60.03121622553371,
,,,,,,,,,,,,,,,,5,8.275,9.1375,10,10.8625,11.725,0.8625,0.6125,0.25,3.7,10,match,36.05,298,329,361,392,423,9,9,9,9,9,,,,,,,5,0,5,0,0,1,1,22,,,,,,,,,,,,,,5,1.4816704000113532,5,0.45,0.20000000000000007,7.20859,return,2.7010969999828376,,,,,,,,,,,,,,,,,p316,28,female,up_down_width,2025-12-08_15h33.54.877,exp1,2023.1.0,60.03121622553371,
,,,,,,,,,,,,,,,,5,8.35,9.175,10,10.825,11.65,0.8250000000000001,0.275,0.55,3.85,10,match,36.05,301,331,361,390,420,9,9,9,9,9,,,,,,,5,0,5,0,0,2,2,18,,,,,,,,,,,,,,5,1.9298106000060216,5,0.55,0.55,19.82361,return,1.3730880999937654,,,,,,,,,,,,,,,,,p316,28,female,up_down_width,2025-12-08_15h33.54.877,exp1,2023.1.0,60.03121622553371,
,,,,,,,,,,,,,,,,5,8.6,9.3,10,10.7,11.4,0.7,0.44999999999999996,0.25,3.05,10,initial,36.05,310,335,361,386,411,9,9,9,9,9,,,,,,,5,0,5,0,0,3,3,42,,,,,,,,,,,,,,5,1.558937199995853,5,0.55,0.25000000000000006,9.01073,return,2.4238299999851733,,,,,,,,,,,,,,,,,p316,28,female,up_down_width,2025-12-08_15h33.54.877,exp1,2023.1.0,60.03121622553371,
,,,,,,,,,,,,,,,,5,8.65,9.325,10,10.675,11.35,0.675,0.275,0.4,3.1,10,match,36.05,312,336,361,385,409,9,9,9,9,9,,,,,,,5,0,5,0,0,4,4,33,,,,,,,,,,,,,,4,1.3955502000171691,4,0.2,0.35,12.61502,return,1.1945686000399292,,,,,,,,,,,,,,,,,p316,28,female,up_down_width,2025-12-08_15h33.54.877,exp1,2023.1.0,60.03121622553371,
,,,,,,,,,,,,,,,,3,8.6,10,11.4,0,0,1.4,0.85,0.55,3.35,10,match,36.05,310,361,411,0,0,9,9,9,0,0,,,,,,,5,0,5,0,0,5,5,41,,,,,,,,,,,,,,3,1.1796068999683484,3,0.3,0.6,21.62576,return,1.227097400056664,,,,,,,,,,,,,,,,,p316,28,female,up_down_width,2025-12-08_15h33.54.877,exp1,2023.1.0,60.03121622553371,
,,,,,,,,,,,,,,,,5,8.2,9.1,10,10.9,11.8,0.9,0.65,0.25,3.85,10,initial,36.05,296,328,361,393,425,9,9,9,9,9,,,,,,,5,0,5,0,0,6,6,48,,,,,,,,,,,,,,5,1.4580657000187784,5,0.35,0.25,9.01073,return,2.023180499963928,,,,,,,,,,,,,,,,,p316,28,female,up_down_width,2025-12-08_15h33.54.877,exp1,2023.1.0,60.03121622553371,
,,,,,,,,,,,,,,,,5,8.95,9.475,10,10.525,11.05,0.525,0.125,0.4,2.5,10,match,36.05,323,342,361,379,398,9,9,9,9,9,,,,,,,5,0,5,0,0,7,7,27,,,,,,,,,,,,,,5,1.3725149999954738,5,0.2,0.39999999999999997,14.41717,return,1.4123420999967493,,,,,,,,,,,,,,,,,p316,28,female,up_down_width,2025-12-08_15h33.54.877,exp1,2023.1.0,60.03121622553371,
,,,,,,,,,,,,,,,,5,8.2,9.1,10,10.9,11.8,0.9,0.35,0.55,4.15,10,initial,36.05,296,328,361,393,425,9,9,9,9,9,,,,,,,5,0,5,0,0,8,8,46,,,,,,,,,,,,,,5,1.516904100019019,5,0.3,0.44999999999999996,16.21932,return,1.5840341000002809,,,,,,,,,,,,,,,,,p316,28,female,up_down_width,2025-12-08_15h33.54.877,exp1,2023.1.0,60.03121622553371,
,,,,,,,,,,,,,,,,5,8.6,9.3,10,10.7,11.4,0.7,0.29999999999999993,0.4,3.1999999999999997,10,initial,36.05,310,335,361,386,411,9,9,9,9,9,,,,,,,5,0,5,0,0,9,9,44,,,,,,,,,,,,,,4,1.193460899987258,4,0.4,0.30000000000000004,10.81288,return,1.3363683000206947,,,,,,,,,,,,,,,,,p316,28,female,up_down_width,2025-12-08_15h33.54.877,exp1,2023.1.0,60.03121622553371,
,,,,,,,,,,,,,,,,3,8.525,10,11.475,0,0,1.475,1.225,0.25,3.2,10,match,36.05,307,361,414,0,0,9,9,9,0,0,,,,,,,5,0,5,0,0,10,10,45,,,,,,,,,,,,,,3,1.3292422000085935,3,0.25,0.2,7.20859,return,1.0509197000064887,,,,,,,,,,,,,,,,,p316,28,female,up_down_width,2025-12-08_15h33.54.877,exp1,2023.1.0,60.03121622553371,
,,,,,,,,,,,,,,,,3,8.2,10,11.8,0,0,1.8,1.55,0.25,3.85,10,match,36.05,296,361,425,0,0,9,9,9,0,0,,,,,,,5,0,5,0,0,11,11,49,,,,,,,,,,,,,,3,1.160662600013893,3,0.35,0.25,9.01073,return,1.912835700029973,,,,,,,,,,,,,,,,,p316,28,female,up_down_width,2025-12-08_15h33.54.877,exp1,2023.1.0,60.03121622553371,
,,,,,,,,,,,,,,,,4,8.65,9.55,10.45,11.35,0,0.9,0.35,0.55,3.25,10,initial,36.05,312,344,377,409,0,9,9,9,9,0,,,,,,,5,0,5,0,0,12,12,28,,,,,,,,,,,,,,3,1.3109910999774002,3,0.55,0.6500000000000001,23.4279,return,1.417698500037659,,,,,,,,,,,,,,,,,p316,28,female,up_down_width,2025-12-08_15h33.54.877,exp1,2023.1.0,60.03121622553371,
,,,,,,,,,,,,,,,,3,8.9,10,11.1,0,0,1.1,0.55,0.55,2.75,10,initial,36.05,321,361,400,0,0,9,9,9,0,0,,,,,,,5,0,5,0,0,13,13,0,,,,,,,,,,,,,,2,1.1182764999684878,2,0.55,0.7000000000000002,25.23005,return,1.087904800020624,,,,,,,,,,,,,,,,,p316,28,female,up_down_width,2025-12-08_15h33.54.877,exp1,2023.1.0,60.03121622553371,
,,,,,,,,,,,,,,,,3,9.1,10,10.9,0,0,0.9,0.5,0.4,2.2,10,initial,36.05,328,361,393,0,0,9,9,9,0,0,,,,,,,5,0,5,0,0,14,14,15,,,,,,,,,,,,,,2,1.201288799988106,2,0.25,0.6,21.62576,return,3.1528388999868184,,,,,,,,,,,,,,,,,p316,28,female,up_down_width,2025-12-08_15h33.54.877,exp1,2023.1.0,60.03121622553371,
,,,,,,,,,,,,,,,,3,9.1,10,10.9,0,0,0.9,0.35,0.55,2.35,10,initial,36.05,328,361,393,0,0,9,9,9,0,0,,,,,,,5,0,5,0,0,15,15,11,,,,,,,,,,,,,,2,1.2798545999685302,2,0.25,0.7000000000000001,25.23005,return,2.3632465000264347,,,,,,,,,,,,,,,,,p316,28,female,up_down_width,2025-12-08_15h33.54.877,exp1,2023.1.0,60.03121622553371,
,,,,,,,,,,,,,,,,3,8.6,10,11.4,0,0,1.4,1.15,0.25,3.05,10,match,36.05,310,361,411,0,0,9,9,9,0,0,,,,,,,5,0,5,0,0,16,16,43,,,,,,,,,,,,,,2,1.1297422999632545,2,0.3,0.25,9.01073,return,1.3550835000351071,,,,,,,,,,,,,,,,,p316,28,female,up_down_width,2025-12-08_15h33.54.877,exp1,2023.1.0,60.03121622553371,
,,,,,,,,,,,,,,,,3,9.3,10,10.7,0,0,0.7,0.29999999999999993,0.4,1.8,10,initial,36.05,335,361,386,0,0,9,9,9,0,0,,,,,,,5,0,5,0,0,17,17,9,,,,,,,,,,,,,,2,1.5344359999871813,2,0.5,0.35000000000000003,12.61502,return,1.5527929999516346,,,,,,,,,,,,,,,,,p316,28,female,up_down_width,2025-12-08_15h33.54.877,exp1,2023.1.0,60.03121622553371,
,,,,,,,,,,,,,,,,4,8.95,9.65,10.35,11.05,0,0.7,0.44999999999999996,0.25,2.3499999999999996,10,initial,36.05,323,348,373,398,0,9,9,9,9,0,,,,,,,5,0,5,0,0,18,18,24,,,,,,,,,,,,,,3,2.0904538999893703,3,0.45,0.30000000000000004,10.81288,return,2.1347114000236616,,,,,,,,,,,,,,,,,p316,28,female,up_down_width,2025-12-08_15h33.54.877,exp1,2023.1.0,60.03121622553371,
,,,,,,,,,,,,,,,,3,8.2,10,11.8,0,0,1.8,1.25,0.55,4.15,10,match,36.05,296,361,425,0,0,9,9,9,0,0,,,,,,,5,0,5,0,0,19,19,47,,,,,,,,,,,,,,2,1.7667923999833874,2,0.35,0.7000000000000001,25.23005,return,2.448848599975463,,,,,,,,,,,,,,,,,p316,28,female,up_down_width,2025-12-08_15h33.54.877,exp1,2023.1.0,60.03121622553371,
,,,,,,,,,,,,,,,,4,9.1,9.7,10.3,10.9,0,0.6000000000000001,0.20000000000000004,0.4,2.2,10,match,36.05,328,350,371,393,0,9,9,9,9,0,,,,,,,5,0,5,0,0,20,20,16,,,,,,,,,,,,,,4,1.431010200001765,4,0.2,0.44999999999999996,16.21932,return,2.5083814000245184,,,,,,,,,,,,,,,,,p316,28,female,up_down_width,2025-12-08_15h33.54.877,exp1,2023.1.0,60.03121622553371,
,,,,,,,,,,,,,,,,4,8.35,9.45,10.55,11.65,0,1.1,0.7000000000000001,0.4,3.7,10,initial,36.05,301,341,380,420,0,9,9,9,9,0,,,,,,,5,0,5,0,0,21,21,21,,,,,,,,,,,,,,4,1.2805634999531321,4,0.5,0.6000000000000001,21.62576,return,2.7155426999670453,,,,,,,,,,,,,,,,,p316,28,female,up_down_width,2025-12-08_15h33.54.877,exp1,2023.1.0,60.03121622553371,
,,,,,,,,,,,,,,,,4,8.95,9.65,10.35,11.05,0,0.7,0.29999999999999993,0.4,2.5,10,initial,36.05,323,348,373,398,0,9,9,9,9,0,,,,,,,5,0,5,0,0,22,22,26,,,,,,,,,,,,,,3,1.2876226999796927,3,0.55,0.45,16.21932,return,1.2029557999921963,,,,,,,,,,,,,,,,,p316,28,female,up_down_width,2025-12-08_15h33.54.877,exp1,2023.1.0,60.03121622553371,
,,,,,,,,,,,,,,,,4,8.65,9.55,10.45,11.35,0,0.9,0.65,0.25,2.95,10,initial,36.05,312,344,377,409,0,9,9,9,9,0,,,,,,,5,0,5,0,0,23,23,30,,,,,,,,,,,,,,4,1.5151077000191435,4,0.25,0.25,9.01073,return,1.0364123999606818,,,,,,,,,,,,,,,,,p316,28,female,up_down_width,2025-12-08_15h33.54.877,exp1,2023.1.0,60.03121622553371,
,,,,,,,,,,,,,,,,5,8.65,9.325,10,10.675,11.35,0.675,0.125,0.55,3.25,10,match,36.05,312,336,361,385,409,9,9,9,9,9,,,,,,,5,0,5,0,0,24,24,29,,,,,,,,,,,,,,4,2.452613300003577,4,0.4,0.55,19.82361,return,1.5203784999903291,,,,,,,,,,,,,,,,,p316,28,female,up_down_width,2025-12-08_15h33.54.877,exp1,2023.1.0,60.03121622553371,
,,,,,,,,,,,,,,,,4,8.35,9.45,10.55,11.65,0,1.1,0.55,0.55,3.8500000000000005,10,initial,36.05,301,341,380,420,0,9,9,9,9,0,,,,,,,5,0,5,0,0,25,25,17,,,,,,,,,,,,,,4,1.2583162999944761,4,0.3,0.6,21.62576,return,2.4397842999896966,,,,,,,,,,,,,,,,,p316,28,female,up_down_width,2025-12-08_15h33.54.877,exp1,2023.1.0,60.03121622553371,
