amount_p,posx1_p,posx2_p,posx3_p,posx4_p,posx5_p,center_to_center_p,edge_to_edge_p,w_p,stim_lengt_p,eccentricity_p,line1_p,line2_p,line3_p,line4_p,line5_p,amount,posx1,posx2,posx3,posx4,posx5,center_to_center,edge_to_edge,w,stim_length,eccentricity,trial_type,deg_to_pix_index,posx1_in_pix,posx2_in_pix,posx3_in_pix,posx4_in_pix,posx5_in_pix,line1,line2,line3,line4,line5,posx,setsize_cobdi,trials.thisRepN,trials.thisTrialN,trials.thisN,trials.thisIndex,blocks.thisRepN,blocks.thisTrialN,blocks.thisN,blocks.thisIndex,loop.thisRepN,loop.thisTrialN,loop.thisN,loop.thisIndex,first.thisRepN,first.thisTrialN,first.thisN,first.thisIndex,second.thisRepN,second.thisTrialN,second.thisN,second.thisIndex,thisRow.t,notes,key_resp_3.started,key_resp_3.keys,key_resp_3.rt,key_resp.keys,key_resp.rt,response,starting_width_deg,response_width_degree,response_width_pixel,next_5.keys,next_5.rt,key_resp_4.keys,key_resp_4.rt,text_3.started,text_4.started,key_resp_2.started,text_2.started,key_resp_2.keys,key_resp_2.rt,adjusting.started,next.keys,next.rt,text_control2.started,key_resp.started,key_resp.corr,text_bye.started,text_bye.stopped,participant,age,gender,resp_group,date,expName,psychopyVersion,frameRate,
,,,,,,,,,,,,,,,,,,,,,,,,,,,,,,,,,,,,,,,,,,,,,,,,,,,,,,,,,,,,,,,35.90858719998505,c,94.72509389999323,,,,,,,,,,,,,,,,,,,,,,,,,p317,22,female,left_right_width,2025-12-10_13h37.11.382,exp1,2023.1.0,59.96368599447664,
4,9.25,9.75,10.25,10.75,0,0.5,0.25,0.25,1.75,10,9,9,9,9,0,,,,,,,,,,,,,,,,,,,,,,,,,,0,0,0,4,,,,,,,,,,,,,,,,,,,,,,4,4.886114099994302,4,0.5,0.20000000000000007,7.20859,return,10.914938299974892,,,,,,,,,,,,,,,,,p317,22,female,left_right_width,2025-12-10_13h37.11.382,exp1,2023.1.0,59.96368599447664,
3,8.2,10,11.8,0,0,1.7999999999999998,1.4,0.4,4,10,9,9,9,0,0,,,,,,,,,,,,,,,,,,,,,,,,,,0,1,1,2,,,,,,,,,,,,,,,,,,,,,,3,3.2952808999689296,3,0.35,0.25,9.01073,return,5.337710099993274,,,,,,,,,,,,,,,,,p317,22,female,left_right_width,2025-12-10_13h37.11.382,exp1,2023.1.0,59.96368599447664,
3,9.5,10,10.5,0,0,0.5,0.4,0.1,1.1,10,9,9,9,0,0,,,,,,,,,,,,,,,,,,,,,,,,,,0,2,2,0,,,,,,,,,,,,,,,,,,,,,,4,3.4990861999685876,4,0.35,0.15000000000000002,5.40644,return,6.095641300023999,,,,,,,,,,,,,,,,,p317,22,female,left_right_width,2025-12-10_13h37.11.382,exp1,2023.1.0,59.96368599447664,
5,9.25,9.625,10,10.375,10.75,0.375,0.125,0.25,1.75,10,9,9,9,9,9,,,,,,,,,,,,,,,,,,,,,,,,,,0,3,3,6,,,,,,,,,,,,,,,,,,,,,,4,2.860972900001798,4,0.25,0.2,7.20859,return,4.248907600005623,,,,,,,,,,,,,,,,,p317,22,female,left_right_width,2025-12-10_13h37.11.382,exp1,2023.1.0,59.96368599447664,
5,9,9.5,10,10.5,11,0.5,0.09999999999999998,0.4,2.4,10,9,9,9,9,9,,,,,,,,,,,,,,,,,,,,,,,,,,0,4,4,8,,,,,,,,,,,,,,,,,,,,,,3,2.546886199968867,3,0.35,0.35,12.61502,return,2.2043110000086017,,,,,,,,,,,,,,,,,p317,22,female,left_right_width,2025-12-10_13h37.11.382,exp1,2023.1.0,59.96368599447664,
4,8.65,9.55,10.45,11.35,0,0.9,0.5,0.4,3.1,10,9,9,9,9,0,,,,,,,,,,,,,,,,,,,,,,,,,,0,5,5,5,,,,,,,,,,,,,,,,,,,,,,4,3.696924299991224,4,0.2,0.3,10.81288,return,4.205027399992105,,,,,,,,,,,,,,,,,p317,22,female,left_right_width,2025-12-10_13h37.11.382,exp1,2023.1.0,59.96368599447664,
3,9,10,11,0,0,1,0.9,0.1,2.1,10,9,9,9,0,0,,,,,,,,,,,,,,,,,,,,,,,,,,0,6,6,1,,,,,,,,,,,,,,,,,,,,,,3,1.9158779000281356,3,0.5,0.05000000000000007,1.80215,return,5.055247799959034,,,,,,,,,,,,,,,,,p317,22,female,left_right_width,2025-12-10_13h37.11.382,exp1,2023.1.0,59.96368599447664,
4,9.5,9.833333333333334,10.166666666666666,10.5,0,0.33333333333333337,0.23333333333333336,0.1,1.1,10,9,9,9,9,0,,,,,,,,,,,,,,,,,,,,,,,,,,0,7,7,3,,,,,,,,,,,,,,,,,,,,,,4,1.8998317000223324,4,0.3,0.10000000000000002,3.60429,return,3.5511357999639586,,,,,,,,,,,,,,,,,p317,22,female,left_right_width,2025-12-10_13h37.11.382,exp1,2023.1.0,59.96368599447664,
5,8.6,9.3,10,10.7,11.4,0.7,0.29999999999999993,0.4,3.1999999999999997,10,9,9,9,9,9,,,,,,,,,,,,,,,,,,,,,,,,,,0,8,8,7,,,,,,,,,,,,,,,,,,,,,,4,1.7426337000215426,4,0.2,0.25,9.01073,return,2.616215599991847,,,,,,,,,,,,,,,,,p317,22,female,left_right_width,2025-12-10_13h37.11.382,exp1,2023.1.0,59.96368599447664,
,,,,,,,,,,,,,,,,,,,,,,,,,,,,,,,,,,,,,,,,,,,,,,,,,,,,,,,,,,,,,,,,,,,,,,,,,,c,13.48606560000917,,,,,,,,,,,,,,,p317,22,female,left_right_width,2025-12-10_13h37.11.382,exp1,2023.1.0,59.96368599447664,
,,,,,,,,,,,,,,,,4,8.35,9.45,10.55,11.65,0,1.1,0.8500000000000001,0.25,3.5500000000000003,10,initial,36.05,301,341,380,420,0,9,9,9,9,0,,,,,,,0,0,0,0,0,0,0,19,,,,,,,,,,,,,,3,1.7219910999410786,3,0.2,0.2,7.20859,return,1.2841219999827445,,,,,,,,,,,,,,,,,p317,22,female,left_right_width,2025-12-10_13h37.11.382,exp1,2023.1.0,59.96368599447664,
,,,,,,,,,,,,,,,,5,8.6,9.3,10,10.7,11.4,0.7,0.29999999999999993,0.4,3.1999999999999997,10,initial,36.05,310,335,361,386,411,9,9,9,9,9,,,,,,,0,0,0,0,0,1,1,44,,,,,,,,,,,,,,5,1.715906500001438,5,0.2,0.25,9.01073,return,3.134725400013849,,,,,,,,,,,,,,,,,p317,22,female,left_right_width,2025-12-10_13h37.11.382,exp1,2023.1.0,59.96368599447664,
,,,,,,,,,,,,,,,,3,7.800000000000001,10,12.2,0,0,2.1999999999999997,1.7999999999999998,0.4,4.8,10,match,36.05,281,361,440,0,0,9,9,9,0,0,,,,,,,0,0,0,0,0,2,2,39,,,,,,,,,,,,,,3,1.8275435999967158,3,0.25,0.25,9.01073,return,2.7622054999810643,,,,,,,,,,,,,,,,,p317,22,female,left_right_width,2025-12-10_13h37.11.382,exp1,2023.1.0,59.96368599447664,
,,,,,,,,,,,,,,,,3,9.1,10,10.9,0,0,0.9,0.35,0.55,2.35,10,initial,36.05,328,361,393,0,0,9,9,9,0,0,,,,,,,0,0,0,0,0,3,3,11,,,,,,,,,,,,,,3,1.2041010000393726,3,0.25,0.3,10.81288,return,1.7637655999860726,,,,,,,,,,,,,,,,,p317,22,female,left_right_width,2025-12-10_13h37.11.382,exp1,2023.1.0,59.96368599447664,
,,,,,,,,,,,,,,,,4,8.35,9.45,10.55,11.65,0,1.1,0.7000000000000001,0.4,3.7,10,initial,36.05,301,341,380,420,0,9,9,9,9,0,,,,,,,0,0,0,0,0,4,4,21,,,,,,,,,,,,,,4,1.4611237000208348,4,0.5,0.25000000000000006,9.01073,return,3.498660099983681,,,,,,,,,,,,,,,,,p317,22,female,left_right_width,2025-12-10_13h37.11.382,exp1,2023.1.0,59.96368599447664,
,,,,,,,,,,,,,,,,4,8.65,9.55,10.45,11.35,0,0.9,0.65,0.25,2.95,10,initial,36.05,312,344,377,409,0,9,9,9,9,0,,,,,,,0,0,0,0,0,5,5,30,,,,,,,,,,,,,,4,1.399569800007157,4,0.35,0.2,7.20859,return,3.0552905999938957,,,,,,,,,,,,,,,,,p317,22,female,left_right_width,2025-12-10_13h37.11.382,exp1,2023.1.0,59.96368599447664,
,,,,,,,,,,,,,,,,4,9.1,9.7,10.3,10.9,0,0.5999999999999999,0.3499999999999999,0.25,2.05,10,match,36.05,328,350,371,393,0,9,9,9,9,0,,,,,,,0,0,0,0,0,6,6,14,,,,,,,,,,,,,,4,1.1737576000159606,4,0.25,0.25,9.01073,return,1.3342227999819443,,,,,,,,,,,,,,,,,p317,22,female,left_right_width,2025-12-10_13h37.11.382,exp1,2023.1.0,59.96368599447664,
,,,,,,,,,,,,,,,,3,7.8,10,12.2,0,0,2.2,1.9500000000000002,0.25,4.65,10,match,36.05,281,361,440,0,0,9,9,9,0,0,,,,,,,0,0,0,0,0,7,7,37,,,,,,,,,,,,,,3,1.4183838000171818,3,0.45,0.25000000000000006,9.01073,return,2.432719799980987,,,,,,,,,,,,,,,,,p317,22,female,left_right_width,2025-12-10_13h37.11.382,exp1,2023.1.0,59.96368599447664,
,,,,,,,,,,,,,,,,4,8.95,9.65,10.35,11.05,0,0.7,0.1499999999999999,0.55,2.65,10,initial,36.05,323,348,373,398,0,9,9,9,9,0,,,,,,,0,0,0,0,0,8,8,23,,,,,,,,,,,,,,3,1.6332517999690026,3,0.35,0.49999999999999994,18.02146,return,2.784132899949327,,,,,,,,,,,,,,,,,p317,22,female,left_right_width,2025-12-10_13h37.11.382,exp1,2023.1.0,59.96368599447664,
,,,,,,,,,,,,,,,,3,9.3,10,10.7,0,0,0.7,0.1499999999999999,0.55,1.95,10,initial,36.05,335,361,386,0,0,9,9,9,0,0,,,,,,,0,0,0,0,0,9,9,6,,,,,,,,,,,,,,3,0.8462812000070699,3,0.35,0.49999999999999994,18.02146,return,3.515804799972102,,,,,,,,,,,,,,,,,p317,22,female,left_right_width,2025-12-10_13h37.11.382,exp1,2023.1.0,59.96368599447664,
,,,,,,,,,,,,,,,,5,8.2,9.1,10,10.9,11.8,0.9,0.35,0.55,4.15,10,initial,36.05,296,328,361,393,425,9,9,9,9,9,,,,,,,0,0,0,0,0,10,10,46,,,,,,,,,,,,,,5,1.7402663999819197,5,0.55,0.45,16.21932,return,3.029303599963896,,,,,,,,,,,,,,,,,p317,22,female,left_right_width,2025-12-10_13h37.11.382,exp1,2023.1.0,59.96368599447664,
,,,,,,,,,,,,,,,,4,8.65,9.55,10.45,11.35,0,0.9,0.5,0.4,3.1,10,initial,36.05,312,344,377,409,0,9,9,9,9,0,,,,,,,0,0,0,0,0,11,11,32,,,,,,,,,,,,,,4,1.3060638000024483,4,0.55,0.4,14.41717,return,2.7085041000391357,,,,,,,,,,,,,,,,,p317,22,female,left_right_width,2025-12-10_13h37.11.382,exp1,2023.1.0,59.96368599447664,
,,,,,,,,,,,,,,,,5,8.95,9.475,10,10.525,11.05,0.525,0.275,0.25,2.35,10,match,36.05,323,342,361,379,398,9,9,9,9,9,,,,,,,0,0,0,0,0,12,12,25,,,,,,,,,,,,,,4,1.3810571000212803,4,0.55,0.30000000000000004,10.81288,return,2.028238099999726,,,,,,,,,,,,,,,,,p317,22,female,left_right_width,2025-12-10_13h37.11.382,exp1,2023.1.0,59.96368599447664,
,,,,,,,,,,,,,,,,4,9.1,9.7,10.3,10.9,0,0.6000000000000001,0.20000000000000004,0.4,2.2,10,match,36.05,328,350,371,393,0,9,9,9,9,0,,,,,,,0,0,0,0,0,13,13,16,,,,,,,,,,,,,,4,0.8092079000198282,4,0.45,0.35000000000000003,12.61502,return,1.7038469999679364,,,,,,,,,,,,,,,,,p317,22,female,left_right_width,2025-12-10_13h37.11.382,exp1,2023.1.0,59.96368599447664,
,,,,,,,,,,,,,,,,3,9.1,10,10.9,0,0,0.9,0.5,0.4,2.2,10,initial,36.05,328,361,393,0,0,9,9,9,0,0,,,,,,,0,0,0,0,0,14,14,15,,,,,,,,,,,,,,3,1.227896700031124,3,0.25,0.35,12.61502,return,1.769576099992264,,,,,,,,,,,,,,,,,p317,22,female,left_right_width,2025-12-10_13h37.11.382,exp1,2023.1.0,59.96368599447664,
,,,,,,,,,,,,,,,,4,8.95,9.65,10.35,11.05,0,0.7,0.44999999999999996,0.25,2.3499999999999996,10,initial,36.05,323,348,373,398,0,9,9,9,9,0,,,,,,,0,0,0,0,0,15,15,24,,,,,,,,,,,,,,4,1.146348200039938,4,0.4,0.30000000000000004,10.81288,return,1.563204899954144,,,,,,,,,,,,,,,,,p317,22,female,left_right_width,2025-12-10_13h37.11.382,exp1,2023.1.0,59.96368599447664,
,,,,,,,,,,,,,,,,3,9.3,10,10.7,0,0,0.7,0.29999999999999993,0.4,1.8,10,initial,36.05,335,361,386,0,0,9,9,9,0,0,,,,,,,0,0,0,0,0,16,16,9,,,,,,,,,,,,,,3,1.3325740000000224,3,0.35,0.25,9.01073,return,1.6465437000151724,,,,,,,,,,,,,,,,,p317,22,female,left_right_width,2025-12-10_13h37.11.382,exp1,2023.1.0,59.96368599447664,
,,,,,,,,,,,,,,,,5,8.6,9.3,10,10.7,11.4,0.7,0.44999999999999996,0.25,3.05,10,initial,36.05,310,335,361,386,411,9,9,9,9,9,,,,,,,0,0,0,0,0,17,17,42,,,,,,,,,,,,,,5,2.329190699965693,5,0.35,0.25,9.01073,return,2.843569800024852,,,,,,,,,,,,,,,,,p317,22,female,left_right_width,2025-12-10_13h37.11.382,exp1,2023.1.0,59.96368599447664,
,,,,,,,,,,,,,,,,3,8.525,10,11.475,0,0,1.475,1.225,0.25,3.2,10,match,36.05,307,361,414,0,0,9,9,9,0,0,,,,,,,0,0,0,0,0,18,18,45,,,,,,,,,,,,,,3,1.6217267000465654,3,0.55,0.25000000000000006,9.01073,return,3.1410893999855034,,,,,,,,,,,,,,,,,p317,22,female,left_right_width,2025-12-10_13h37.11.382,exp1,2023.1.0,59.96368599447664,
,,,,,,,,,,,,,,,,5,8.65,9.325,10,10.675,11.35,0.675,0.125,0.55,3.25,10,match,36.05,312,336,361,385,409,9,9,9,9,9,,,,,,,0,0,0,0,0,19,19,29,,,,,,,,,,,,,,4,1.3595471000298858,4,0.35,0.44999999999999996,16.21932,return,1.913041899970267,,,,,,,,,,,,,,,,,p317,22,female,left_right_width,2025-12-10_13h37.11.382,exp1,2023.1.0,59.96368599447664,
,,,,,,,,,,,,,,,,3,8.9,10,11.1,0,0,1.1,0.7000000000000001,0.4,2.6000000000000005,10,initial,36.05,321,361,400,0,0,9,9,9,0,0,,,,,,,0,0,0,0,0,20,20,4,,,,,,,,,,,,,,3,1.8075024000136182,3,0.4,0.30000000000000004,10.81288,return,2.4849424000130966,,,,,,,,,,,,,,,,,p317,22,female,left_right_width,2025-12-10_13h37.11.382,exp1,2023.1.0,59.96368599447664,
,,,,,,,,,,,,,,,,3,8.2,10,11.8,0,0,1.7999999999999998,1.4,0.4,4,10,match,36.05,296,361,425,0,0,9,9,9,0,0,,,,,,,0,0,0,0,0,21,21,51,,,,,,,,,,,,,,3,1.3075819999794476,3,0.45,0.30000000000000004,10.81288,return,2.7577349999919534,,,,,,,,,,,,,,,,,p317,22,female,left_right_width,2025-12-10_13h37.11.382,exp1,2023.1.0,59.96368599447664,
,,,,,,,,,,,,,,,,5,7.8,8.9,10,11.1,12.2,1.1,0.8500000000000001,0.25,4.65,10,initial,36.05,281,321,361,400,440,9,9,9,9,9,,,,,,,0,0,0,0,0,22,22,36,,,,,,,,,,,,,,5,1.5453385000000708,5,0.55,0.25000000000000006,9.01073,return,2.5057048000162467,,,,,,,,,,,,,,,,,p317,22,female,left_right_width,2025-12-10_13h37.11.382,exp1,2023.1.0,59.96368599447664,
,,,,,,,,,,,,,,,,5,8.65,9.325,10,10.675,11.35,0.675,0.275,0.4,3.1,10,match,36.05,312,336,361,385,409,9,9,9,9,9,,,,,,,0,0,0,0,0,23,23,33,,,,,,,,,,,,,,5,1.6408600000431761,5,0.45,0.30000000000000004,10.81288,return,2.1340638999827206,,,,,,,,,,,,,,,,,p317,22,female,left_right_width,2025-12-10_13h37.11.382,exp1,2023.1.0,59.96368599447664,
,,,,,,,,,,,,,,,,5,8.35,9.175,10,10.825,11.65,0.825,0.575,0.25,3.55,10,match,36.05,301,331,361,390,420,9,9,9,9,9,,,,,,,0,0,0,0,0,24,24,20,,,,,,,,,,,,,,4,1.3941255999961868,4,0.4,0.20000000000000007,7.20859,return,1.9776544999913312,,,,,,,,,,,,,,,,,p317,22,female,left_right_width,2025-12-10_13h37.11.382,exp1,2023.1.0,59.96368599447664,
,,,,,,,,,,,,,,,,3,7.8,10,12.2,0,0,2.2,1.65,0.55,4.95,10,match,36.05,281,361,440,0,0,9,9,9,0,0,,,,,,,0,0,0,0,0,25,25,35,,,,,,,,,,,,,,3,1.1379355000099167,3,0.45,0.4,14.41717,return,1.5700954000349157,,,,,,,,,,,,,,,,,p317,22,female,left_right_width,2025-12-10_13h37.11.382,exp1,2023.1.0,59.96368599447664,
,,,,,,,,,,,,,,,,4,8.35,9.45,10.55,11.65,0,1.1,0.55,0.55,3.8500000000000005,10,initial,36.05,301,341,380,420,0,9,9,9,9,0,,,,,,,0,0,0,0,0,26,26,17,,,,,,,,,,,,,,4,1.495248899969738,4,0.35,0.35,12.61502,return,1.1943171000457369,,,,,,,,,,,,,,,,,p317,22,female,left_right_width,2025-12-10_13h37.11.382,exp1,2023.1.0,59.96368599447664,
,,,,,,,,,,,,,,,,5,8.35,9.175,10,10.825,11.65,0.8250000000000001,0.275,0.55,3.85,10,match,36.05,301,331,361,390,420,9,9,9,9,9,,,,,,,0,0,0,0,0,27,27,18,,,,,,,,,,,,,,4,1.4526620000251569,4,0.55,0.5,18.02146,return,2.5299594000098296,,,,,,,,,,,,,,,,,p317,22,female,left_right_width,2025-12-10_13h37.11.382,exp1,2023.1.0,59.96368599447664,
,,,,,,,,,,,,,,,,5,8.2,9.1,10,10.9,11.8,0.9,0.5,0.4,4,10,initial,36.05,296,328,361,393,425,9,9,9,9,9,,,,,,,0,0,0,0,0,28,28,50,,,,,,,,,,,,,,5,1.8871251000091434,5,0.4,0.35000000000000003,12.61502,return,1.8744680000236258,,,,,,,,,,,,,,,,,p317,22,female,left_right_width,2025-12-10_13h37.11.382,exp1,2023.1.0,59.96368599447664,
,,,,,,,,,,,,,,,,4,8.95,9.65,10.35,11.05,0,0.7,0.29999999999999993,0.4,2.5,10,initial,36.05,323,348,373,398,0,9,9,9,9,0,,,,,,,0,0,0,0,0,29,29,26,,,,,,,,,,,,,,4,1.4893808999913745,4,0.45,0.35000000000000003,12.61502,return,1.4130443999893032,,,,,,,,,,,,,,,,,p317,22,female,left_right_width,2025-12-10_13h37.11.382,exp1,2023.1.0,59.96368599447664,
,,,,,,,,,,,,,,,,4,9.3,9.766666666666667,10.233333333333333,10.7,0,0.4666666666666667,0.21666666666666665,0.25,1.65,10,match,36.05,335,352,369,386,0,9,9,9,9,0,,,,,,,0,0,0,0,0,30,30,8,,,,,,,,,,,,,,4,2.0347437000018544,4,0.45,0.25000000000000006,9.01073,return,2.2237335999961942,,,,,,,,,,,,,,,,,p317,22,female,left_right_width,2025-12-10_13h37.11.382,exp1,2023.1.0,59.96368599447664,
,,,,,,,,,,,,,,,,5,8.95,9.475,10,10.525,11.05,0.525,0.125,0.4,2.5,10,match,36.05,323,342,361,379,398,9,9,9,9,9,,,,,,,0,0,0,0,0,31,31,27,,,,,,,,,,,,,,4,2.1357824000297114,4,0.5,0.4,14.41717,return,1.6825884999707341,,,,,,,,,,,,,,,,,p317,22,female,left_right_width,2025-12-10_13h37.11.382,exp1,2023.1.0,59.96368599447664,
,,,,,,,,,,,,,,,,3,9.3,10,10.7,0,0,0.7,0.44999999999999996,0.25,1.65,10,initial,36.05,335,361,386,0,0,9,9,9,0,0,,,,,,,0,0,0,0,0,32,32,7,,,,,,,,,,,,,,3,1.6820540999760851,3,0.5,0.25000000000000006,9.01073,return,1.6625849999836646,,,,,,,,,,,,,,,,,p317,22,female,left_right_width,2025-12-10_13h37.11.382,exp1,2023.1.0,59.96368599447664,
,,,,,,,,,,,,,,,,3,8.2,10,11.8,0,0,1.8,1.25,0.55,4.15,10,match,36.05,296,361,425,0,0,9,9,9,0,0,,,,,,,0,0,0,0,0,33,33,47,,,,,,,,,,,,,,3,1.4801530999829993,3,0.45,0.5,18.02146,return,2.540825100033544,,,,,,,,,,,,,,,,,p317,22,female,left_right_width,2025-12-10_13h37.11.382,exp1,2023.1.0,59.96368599447664,
,,,,,,,,,,,,,,,,5,8.2,9.1,10,10.9,11.8,0.9,0.65,0.25,3.85,10,initial,36.05,296,328,361,393,425,9,9,9,9,9,,,,,,,0,0,0,0,0,34,34,48,,,,,,,,,,,,,,4,1.549689200008288,4,0.4,0.30000000000000004,10.81288,return,2.3029282999923453,,,,,,,,,,,,,,,,,p317,22,female,left_right_width,2025-12-10_13h37.11.382,exp1,2023.1.0,59.96368599447664,
,,,,,,,,,,,,,,,,4,8.9,9.633333333333333,10.366666666666667,11.1,0,0.7333333333333334,0.4833333333333334,0.25,2.45,10,match,36.05,321,347,374,400,0,9,9,9,9,0,,,,,,,0,0,0,0,0,35,35,3,,,,,,,,,,,,,,4,1.178229100012686,4,0.5,0.30000000000000004,10.81288,return,2.2654861000482924,,,,,,,,,,,,,,,,,p317,22,female,left_right_width,2025-12-10_13h37.11.382,exp1,2023.1.0,59.96368599447664,
,,,,,,,,,,,,,,,,5,8.6,9.3,10,10.7,11.4,0.7,0.1499999999999999,0.55,3.3499999999999996,10,initial,36.05,310,335,361,386,411,9,9,9,9,9,,,,,,,0,0,0,0,0,36,36,40,,,,,,,,,,,,,,4,2.0569855999783613,4,0.2,0.49999999999999994,18.02146,return,4.293787800008431,,,,,,,,,,,,,,,,,p317,22,female,left_right_width,2025-12-10_13h37.11.382,exp1,2023.1.0,59.96368599447664,
,,,,,,,,,,,,,,,,4,8.65,9.55,10.45,11.35,0,0.9,0.35,0.55,3.25,10,initial,36.05,312,344,377,409,0,9,9,9,9,0,,,,,,,0,0,0,0,0,37,37,28,,,,,,,,,,,,,,4,1.4045716000255197,4,0.5,0.5,18.02146,return,1.2824298000195995,,,,,,,,,,,,,,,,,p317,22,female,left_right_width,2025-12-10_13h37.11.382,exp1,2023.1.0,59.96368599447664,
,,,,,,,,,,,,,,,,5,7.8,8.9,10,11.1,12.2,1.1,0.55,0.55,4.95,10,initial,36.05,281,321,361,400,440,9,9,9,9,9,,,,,,,0,0,0,0,0,38,38,34,,,,,,,,,,,,,,5,1.6185396000510082,5,0.35,0.35,12.61502,return,1.5364337000064552,,,,,,,,,,,,,,,,,p317,22,female,left_right_width,2025-12-10_13h37.11.382,exp1,2023.1.0,59.96368599447664,
,,,,,,,,,,,,,,,,5,8.275,9.1375,10,10.8625,11.725,0.8625,0.6125,0.25,3.7,10,match,36.05,298,329,361,392,423,9,9,9,9,9,,,,,,,0,0,0,0,0,39,39,22,,,,,,,,,,,,,,4,2.044482800003607,4,0.55,0.35000000000000003,12.61502,return,2.5211914000101388,,,,,,,,,,,,,,,,,p317,22,female,left_right_width,2025-12-10_13h37.11.382,exp1,2023.1.0,59.96368599447664,
,,,,,,,,,,,,,,,,4,8.9,9.633333333333333,10.366666666666667,11.1,0,0.7333333333333333,0.18333333333333326,0.55,2.75,10,match,36.05,321,347,374,400,0,9,9,9,9,0,,,,,,,0,0,0,0,0,40,40,1,,,,,,,,,,,,,,3,1.4217337999725714,3,0.4,0.6000000000000001,21.62576,return,2.25907129998086,,,,,,,,,,,,,,,,,p317,22,female,left_right_width,2025-12-10_13h37.11.382,exp1,2023.1.0,59.96368599447664,
,,,,,,,,,,,,,,,,5,7.8,8.9,10,11.1,12.2,1.1,0.7000000000000001,0.4,4.800000000000001,10,initial,36.05,281,321,361,400,440,9,9,9,9,9,,,,,,,0,0,0,0,0,41,41,38,,,,,,,,,,,,,,5,1.254470499989111,5,0.2,0.35,12.61502,return,2.755897199967876,,,,,,,,,,,,,,,,,p317,22,female,left_right_width,2025-12-10_13h37.11.382,exp1,2023.1.0,59.96368599447664,
,,,,,,,,,,,,,,,,4,9.1,9.7,10.3,10.9,0,0.6,0.04999999999999997,0.55,2.35,10,match,36.05,328,350,371,393,0,9,9,9,9,0,,,,,,,0,0,0,0,0,42,42,12,,,,,,,,,,,,,,4,2.3661021000007167,4,0.3,0.5499999999999999,19.82361,return,2.6224377999897115,,,,,,,,,,,,,,,,,p317,22,female,left_right_width,2025-12-10_13h37.11.382,exp1,2023.1.0,59.96368599447664,
,,,,,,,,,,,,,,,,3,8.2,10,11.8,0,0,1.8,1.55,0.25,3.85,10,match,36.05,296,361,425,0,0,9,9,9,0,0,,,,,,,0,0,0,0,0,43,43,49,,,,,,,,,,,,,,3,1.5911096999770962,3,0.35,0.3,10.81288,return,1.1903627999708988,,,,,,,,,,,,,,,,,p317,22,female,left_right_width,2025-12-10_13h37.11.382,exp1,2023.1.0,59.96368599447664,
,,,,,,,,,,,,,,,,5,8.65,9.325,10,10.675,11.35,0.675,0.42500000000000004,0.25,2.95,10,match,36.05,312,336,361,385,409,9,9,9,9,9,,,,,,,0,0,0,0,0,44,44,31,,,,,,,,,,,,,,4,2.6325484000262804,4,0.5,0.30000000000000004,10.81288,return,2.4317879999871366,,,,,,,,,,,,,,,,,p317,22,female,left_right_width,2025-12-10_13h37.11.382,exp1,2023.1.0,59.96368599447664,
,,,,,,,,,,,,,,,,4,8.825,9.608333333333333,10.391666666666667,11.175,0,0.7833333333333333,0.5333333333333333,0.25,2.6,10,match,36.05,318,346,375,403,0,9,9,9,9,0,,,,,,,0,0,0,0,0,45,45,5,,,,,,,,,,,,,,4,1.7449280000291765,4,0.35,0.35,12.61502,return,1.3059993999777362,,,,,,,,,,,,,,,,,p317,22,female,left_right_width,2025-12-10_13h37.11.382,exp1,2023.1.0,59.96368599447664,
,,,,,,,,,,,,,,,,3,8.6,10,11.4,0,0,1.4,0.85,0.55,3.35,10,match,36.05,310,361,411,0,0,9,9,9,0,0,,,,,,,0,0,0,0,0,46,46,41,,,,,,,,,,,,,,3,1.4877542000031099,3,0.5,0.5,18.02146,return,0.9781840000068769,,,,,,,,,,,,,,,,,p317,22,female,left_right_width,2025-12-10_13h37.11.382,exp1,2023.1.0,59.96368599447664,
,,,,,,,,,,,,,,,,3,9.1,10,10.9,0,0,0.9,0.65,0.25,2.05,10,initial,36.05,328,361,393,0,0,9,9,9,0,0,,,,,,,0,0,0,0,0,47,47,13,,,,,,,,,,,,,,3,1.4611251999740489,3,0.55,0.30000000000000004,10.81288,return,2.377125700004399,,,,,,,,,,,,,,,,,p317,22,female,left_right_width,2025-12-10_13h37.11.382,exp1,2023.1.0,59.96368599447664,
,,,,,,,,,,,,,,,,4,9.3,9.766666666666667,10.233333333333333,10.7,0,0.4666666666666667,0.06666666666666665,0.4,1.8,10,match,36.05,335,352,369,386,0,9,9,9,9,0,,,,,,,0,0,0,0,0,48,48,10,,,,,,,,,,,,,,3,1.7293827999965288,3,0.35,0.44999999999999996,16.21932,return,1.467543700011447,,,,,,,,,,,,,,,,,p317,22,female,left_right_width,2025-12-10_13h37.11.382,exp1,2023.1.0,59.96368599447664,
,,,,,,,,,,,,,,,,3,8.6,10,11.4,0,0,1.4,1.15,0.25,3.05,10,match,36.05,310,361,411,0,0,9,9,9,0,0,,,,,,,0,0,0,0,0,49,49,43,,,,,,,,,,,,,,3,1.1396045999717899,3,0.5,0.25000000000000006,9.01073,return,1.9883004000294022,,,,,,,,,,,,,,,,,p317,22,female,left_right_width,2025-12-10_13h37.11.382,exp1,2023.1.0,59.96368599447664,
,,,,,,,,,,,,,,,,3,8.9,10,11.1,0,0,1.1,0.55,0.55,2.75,10,initial,36.05,321,361,400,0,0,9,9,9,0,0,,,,,,,0,0,0,0,0,50,50,0,,,,,,,,,,,,,,3,1.1491616999846883,3,0.25,0.35,12.61502,return,1.534632699971553,,,,,,,,,,,,,,,,,p317,22,female,left_right_width,2025-12-10_13h37.11.382,exp1,2023.1.0,59.96368599447664,
,,,,,,,,,,,,,,,,3,8.9,10,11.1,0,0,1.1,0.8500000000000001,0.25,2.45,10,initial,36.05,321,361,400,0,0,9,9,9,0,0,,,,,,,0,0,0,0,0,51,51,2,,,,,,,,,,,,,,3,1.2375134999747388,3,0.5,0.25000000000000006,9.01073,return,2.6102300999918953,,,,,,,,,,,,,,,,,p317,22,female,left_right_width,2025-12-10_13h37.11.382,exp1,2023.1.0,59.96368599447664,
,,,,,,,,,,,,,,,,,,,,,,,,,,,,,,,,,,,,,,,,,,,,,0,0,0,0,,,,,,,,,,,,,,,,,,,,,,,,,,,,519.9197621999774,519.9197621999774,519.9197621999774,,,,,,,,,,,,p317,22,female,left_right_width,2025-12-10_13h37.11.382,exp1,2023.1.0,59.96368599447664,
,,,,,,,,,,,,,,,,5,8.35,9.175,10,10.825,11.65,0.825,0.575,0.25,3.55,10,match,36.05,301,331,361,390,420,9,9,9,9,9,,,,,,,1,0,1,0,0,0,0,20,,,,,,,,,,,,,,5,1.3158645000075921,5,0.5,0.25000000000000006,9.01073,return,2.782857900019735,,,,,,,,,,,,,,,,,p317,22,female,left_right_width,2025-12-10_13h37.11.382,exp1,2023.1.0,59.96368599447664,
,,,,,,,,,,,,,,,,3,8.2,10,11.8,0,0,1.8,1.25,0.55,4.15,10,match,36.05,296,361,425,0,0,9,9,9,0,0,,,,,,,1,0,1,0,0,1,1,47,,,,,,,,,,,,,,3,1.481543599977158,3,0.2,0.3,10.81288,return,1.3898753999965265,,,,,,,,,,,,,,,,,p317,22,female,left_right_width,2025-12-10_13h37.11.382,exp1,2023.1.0,59.96368599447664,
,,,,,,,,,,,,,,,,3,7.8,10,12.2,0,0,2.2,1.65,0.55,4.95,10,match,36.05,281,361,440,0,0,9,9,9,0,0,,,,,,,1,0,1,0,0,2,2,35,,,,,,,,,,,,,,3,1.3825397999607958,3,0.35,0.35,12.61502,return,1.007295899966266,,,,,,,,,,,,,,,,,p317,22,female,left_right_width,2025-12-10_13h37.11.382,exp1,2023.1.0,59.96368599447664,
,,,,,,,,,,,,,,,,3,7.800000000000001,10,12.2,0,0,2.1999999999999997,1.7999999999999998,0.4,4.8,10,match,36.05,281,361,440,0,0,9,9,9,0,0,,,,,,,1,0,1,0,0,3,3,39,,,,,,,,,,,,,,3,0.6161107999505475,3,0.5,0.45,16.21932,return,1.3896922999992967,,,,,,,,,,,,,,,,,p317,22,female,left_right_width,2025-12-10_13h37.11.382,exp1,2023.1.0,59.96368599447664,
,,,,,,,,,,,,,,,,3,9.1,10,10.9,0,0,0.9,0.65,0.25,2.05,10,initial,36.05,328,361,393,0,0,9,9,9,0,0,,,,,,,1,0,1,0,0,4,4,13,,,,,,,,,,,,,,3,1.5391261999611743,3,0.45,0.30000000000000004,10.81288,return,1.3812343999743462,,,,,,,,,,,,,,,,,p317,22,female,left_right_width,2025-12-10_13h37.11.382,exp1,2023.1.0,59.96368599447664,
,,,,,,,,,,,,,,,,3,8.6,10,11.4,0,0,1.4,0.85,0.55,3.35,10,match,36.05,310,361,411,0,0,9,9,9,0,0,,,,,,,1,0,1,0,0,5,5,41,,,,,,,,,,,,,,3,1.4016728999558836,3,0.4,0.4,14.41717,return,0.8329301999765448,,,,,,,,,,,,,,,,,p317,22,female,left_right_width,2025-12-10_13h37.11.382,exp1,2023.1.0,59.96368599447664,
,,,,,,,,,,,,,,,,3,8.2,10,11.8,0,0,1.8,1.55,0.25,3.85,10,match,36.05,296,361,425,0,0,9,9,9,0,0,,,,,,,1,0,1,0,0,6,6,49,,,,,,,,,,,,,,3,1.6579153999919072,3,0.3,0.25,9.01073,return,1.0623091000015847,,,,,,,,,,,,,,,,,p317,22,female,left_right_width,2025-12-10_13h37.11.382,exp1,2023.1.0,59.96368599447664,
,,,,,,,,,,,,,,,,5,8.65,9.325,10,10.675,11.35,0.675,0.125,0.55,3.25,10,match,36.05,312,336,361,385,409,9,9,9,9,9,,,,,,,1,0,1,0,0,7,7,29,,,,,,,,,,,,,,4,1.3097470999928191,4,0.3,0.39999999999999997,14.41717,return,1.1935902999830432,,,,,,,,,,,,,,,,,p317,22,female,left_right_width,2025-12-10_13h37.11.382,exp1,2023.1.0,59.96368599447664,
,,,,,,,,,,,,,,,,5,7.8,8.9,10,11.1,12.2,1.1,0.55,0.55,4.95,10,initial,36.05,281,321,361,400,440,9,9,9,9,9,,,,,,,1,0,1,0,0,8,8,34,,,,,,,,,,,,,,5,1.299136899993755,5,0.3,0.35,12.61502,return,1.6465608999715187,,,,,,,,,,,,,,,,,p317,22,female,left_right_width,2025-12-10_13h37.11.382,exp1,2023.1.0,59.96368599447664,
,,,,,,,,,,,,,,,,5,8.6,9.3,10,10.7,11.4,0.7,0.1499999999999999,0.55,3.3499999999999996,10,initial,36.05,310,335,361,386,411,9,9,9,9,9,,,,,,,1,0,1,0,0,9,9,40,,,,,,,,,,,,,,4,0.7660602999967523,4,0.3,0.35,12.61502,return,1.6780771999619901,,,,,,,,,,,,,,,,,p317,22,female,left_right_width,2025-12-10_13h37.11.382,exp1,2023.1.0,59.96368599447664,
,,,,,,,,,,,,,,,,3,8.2,10,11.8,0,0,1.7999999999999998,1.4,0.4,4,10,match,36.05,296,361,425,0,0,9,9,9,0,0,,,,,,,1,0,1,0,0,10,10,51,,,,,,,,,,,,,,3,1.0699021999607794,3,0.55,0.45,16.21932,return,1.0899518000078388,,,,,,,,,,,,,,,,,p317,22,female,left_right_width,2025-12-10_13h37.11.382,exp1,2023.1.0,59.96368599447664,
,,,,,,,,,,,,,,,,5,7.8,8.9,10,11.1,12.2,1.1,0.7000000000000001,0.4,4.800000000000001,10,initial,36.05,281,321,361,400,440,9,9,9,9,9,,,,,,,1,0,1,0,0,11,11,38,,,,,,,,,,,,,,5,1.549191800004337,5,0.2,0.35,12.61502,return,3.0547228999785148,,,,,,,,,,,,,,,,,p317,22,female,left_right_width,2025-12-10_13h37.11.382,exp1,2023.1.0,59.96368599447664,
,,,,,,,,,,,,,,,,3,9.3,10,10.7,0,0,0.7,0.29999999999999993,0.4,1.8,10,initial,36.05,335,361,386,0,0,9,9,9,0,0,,,,,,,1,0,1,0,0,12,12,9,,,,,,,,,,,,,,3,1.4850054999697022,3,0.35,0.35,12.61502,return,0.9606302999891341,,,,,,,,,,,,,,,,,p317,22,female,left_right_width,2025-12-10_13h37.11.382,exp1,2023.1.0,59.96368599447664,
,,,,,,,,,,,,,,,,5,8.6,9.3,10,10.7,11.4,0.7,0.44999999999999996,0.25,3.05,10,initial,36.05,310,335,361,386,411,9,9,9,9,9,,,,,,,1,0,1,0,0,13,13,42,,,,,,,,,,,,,,4,0.9156007000128739,4,0.4,0.35000000000000003,12.61502,return,1.501185600005556,,,,,,,,,,,,,,,,,p317,22,female,left_right_width,2025-12-10_13h37.11.382,exp1,2023.1.0,59.96368599447664,
,,,,,,,,,,,,,,,,4,8.9,9.633333333333333,10.366666666666667,11.1,0,0.7333333333333334,0.4833333333333334,0.25,2.45,10,match,36.05,321,347,374,400,0,9,9,9,9,0,,,,,,,1,0,1,0,0,14,14,3,,,,,,,,,,,,,,4,1.3053935999632813,4,0.55,0.25000000000000006,9.01073,return,2.532102599972859,,,,,,,,,,,,,,,,,p317,22,female,left_right_width,2025-12-10_13h37.11.382,exp1,2023.1.0,59.96368599447664,
,,,,,,,,,,,,,,,,4,9.1,9.7,10.3,10.9,0,0.6000000000000001,0.20000000000000004,0.4,2.2,10,match,36.05,328,350,371,393,0,9,9,9,9,0,,,,,,,1,0,1,0,0,15,15,16,,,,,,,,,,,,,,4,1.3943335000076331,4,0.45,0.35000000000000003,12.61502,return,1.9135396999772638,,,,,,,,,,,,,,,,,p317,22,female,left_right_width,2025-12-10_13h37.11.382,exp1,2023.1.0,59.96368599447664,
,,,,,,,,,,,,,,,,4,9.1,9.7,10.3,10.9,0,0.6,0.04999999999999997,0.55,2.35,10,match,36.05,328,350,371,393,0,9,9,9,9,0,,,,,,,1,0,1,0,0,16,16,12,,,,,,,,,,,,,,3,1.6044095999677666,3,0.55,0.6000000000000001,21.62576,return,0.9468961000093259,,,,,,,,,,,,,,,,,p317,22,female,left_right_width,2025-12-10_13h37.11.382,exp1,2023.1.0,59.96368599447664,
,,,,,,,,,,,,,,,,4,8.95,9.65,10.35,11.05,0,0.7,0.1499999999999999,0.55,2.65,10,initial,36.05,323,348,373,398,0,9,9,9,9,0,,,,,,,1,0,1,0,0,17,17,23,,,,,,,,,,,,,,3,1.1131048999959603,3,0.2,0.49999999999999994,18.02146,return,2.124922399991192,,,,,,,,,,,,,,,,,p317,22,female,left_right_width,2025-12-10_13h37.11.382,exp1,2023.1.0,59.96368599447664,
,,,,,,,,,,,,,,,,5,8.65,9.325,10,10.675,11.35,0.675,0.42500000000000004,0.25,2.95,10,match,36.05,312,336,361,385,409,9,9,9,9,9,,,,,,,1,0,1,0,0,18,18,31,,,,,,,,,,,,,,4,1.7425473000039347,4,0.35,0.3,10.81288,return,1.1602883000159636,,,,,,,,,,,,,,,,,p317,22,female,left_right_width,2025-12-10_13h37.11.382,exp1,2023.1.0,59.96368599447664,
,,,,,,,,,,,,,,,,4,9.3,9.766666666666667,10.233333333333333,10.7,0,0.4666666666666667,0.06666666666666665,0.4,1.8,10,match,36.05,335,352,369,386,0,9,9,9,9,0,,,,,,,1,0,1,0,0,19,19,10,,,,,,,,,,,,,,3,1.7664826000109315,3,0.2,0.39999999999999997,14.41717,return,1.838563300028909,,,,,,,,,,,,,,,,,p317,22,female,left_right_width,2025-12-10_13h37.11.382,exp1,2023.1.0,59.96368599447664,
,,,,,,,,,,,,,,,,4,8.35,9.45,10.55,11.65,0,1.1,0.8500000000000001,0.25,3.5500000000000003,10,initial,36.05,301,341,380,420,0,9,9,9,9,0,,,,,,,1,0,1,0,0,20,20,19,,,,,,,,,,,,,,4,0.8231642000027932,4,0.5,0.25000000000000006,9.01073,return,1.668083900003694,,,,,,,,,,,,,,,,,p317,22,female,left_right_width,2025-12-10_13h37.11.382,exp1,2023.1.0,59.96368599447664,
,,,,,,,,,,,,,,,,4,8.65,9.55,10.45,11.35,0,0.9,0.35,0.55,3.25,10,initial,36.05,312,344,377,409,0,9,9,9,9,0,,,,,,,1,0,1,0,0,21,21,28,,,,,,,,,,,,,,4,1.3216154999681748,4,0.2,0.35,12.61502,return,1.6990104999858886,,,,,,,,,,,,,,,,,p317,22,female,left_right_width,2025-12-10_13h37.11.382,exp1,2023.1.0,59.96368599447664,
,,,,,,,,,,,,,,,,5,8.6,9.3,10,10.7,11.4,0.7,0.29999999999999993,0.4,3.1999999999999997,10,initial,36.05,310,335,361,386,411,9,9,9,9,9,,,,,,,1,0,1,0,0,22,22,44,,,,,,,,,,,,,,5,1.601761700003408,5,0.2,0.35,12.61502,return,2.7209702000254765,,,,,,,,,,,,,,,,,p317,22,female,left_right_width,2025-12-10_13h37.11.382,exp1,2023.1.0,59.96368599447664,
,,,,,,,,,,,,,,,,4,8.95,9.65,10.35,11.05,0,0.7,0.29999999999999993,0.4,2.5,10,initial,36.05,323,348,373,398,0,9,9,9,9,0,,,,,,,1,0,1,0,0,23,23,26,,,,,,,,,,,,,,4,1.3257786000031047,4,0.25,0.3,10.81288,return,1.4797106999903917,,,,,,,,,,,,,,,,,p317,22,female,left_right_width,2025-12-10_13h37.11.382,exp1,2023.1.0,59.96368599447664,
,,,,,,,,,,,,,,,,3,9.1,10,10.9,0,0,0.9,0.5,0.4,2.2,10,initial,36.05,328,361,393,0,0,9,9,9,0,0,,,,,,,1,0,1,0,0,24,24,15,,,,,,,,,,,,,,3,1.7413787000114098,3,0.25,0.35,12.61502,return,1.3827160999644548,,,,,,,,,,,,,,,,,p317,22,female,left_right_width,2025-12-10_13h37.11.382,exp1,2023.1.0,59.96368599447664,
,,,,,,,,,,,,,,,,5,8.2,9.1,10,10.9,11.8,0.9,0.65,0.25,3.85,10,initial,36.05,296,328,361,393,425,9,9,9,9,9,,,,,,,1,0,1,0,0,25,25,48,,,,,,,,,,,,,,5,1.4470020000007935,5,0.5,0.25000000000000006,9.01073,return,2.573328499973286,,,,,,,,,,,,,,,,,p317,22,female,left_right_width,2025-12-10_13h37.11.382,exp1,2023.1.0,59.96368599447664,
,,,,,,,,,,,,,,,,3,8.9,10,11.1,0,0,1.1,0.55,0.55,2.75,10,initial,36.05,321,361,400,0,0,9,9,9,0,0,,,,,,,1,0,1,0,0,26,26,0,,,,,,,,,,,,,,3,0.8925355999963358,3,0.4,0.4,14.41717,return,1.3842170999851078,,,,,,,,,,,,,,,,,p317,22,female,left_right_width,2025-12-10_13h37.11.382,exp1,2023.1.0,59.96368599447664,
,,,,,,,,,,,,,,,,4,8.35,9.45,10.55,11.65,0,1.1,0.7000000000000001,0.4,3.7,10,initial,36.05,301,341,380,420,0,9,9,9,9,0,,,,,,,1,0,1,0,0,27,27,21,,,,,,,,,,,,,,4,0.8783571000094526,4,0.2,0.35,12.61502,return,1.4973848999943584,,,,,,,,,,,,,,,,,p317,22,female,left_right_width,2025-12-10_13h37.11.382,exp1,2023.1.0,59.96368599447664,
,,,,,,,,,,,,,,,,4,9.3,9.766666666666667,10.233333333333333,10.7,0,0.4666666666666667,0.21666666666666665,0.25,1.65,10,match,36.05,335,352,369,386,0,9,9,9,9,0,,,,,,,1,0,1,0,0,28,28,8,,,,,,,,,,,,,,4,1.3350863000378013,4,0.4,0.4,14.41717,return,1.0565026000258513,,,,,,,,,,,,,,,,,p317,22,female,left_right_width,2025-12-10_13h37.11.382,exp1,2023.1.0,59.96368599447664,
,,,,,,,,,,,,,,,,4,8.825,9.608333333333333,10.391666666666667,11.175,0,0.7833333333333333,0.5333333333333333,0.25,2.6,10,match,36.05,318,346,375,403,0,9,9,9,9,0,,,,,,,1,0,1,0,0,29,29,5,,,,,,,,,,,,,,4,0.6116245999583043,4,0.45,0.30000000000000004,10.81288,return,1.7213373000267893,,,,,,,,,,,,,,,,,p317,22,female,left_right_width,2025-12-10_13h37.11.382,exp1,2023.1.0,59.96368599447664,
,,,,,,,,,,,,,,,,5,8.2,9.1,10,10.9,11.8,0.9,0.5,0.4,4,10,initial,36.05,296,328,361,393,425,9,9,9,9,9,,,,,,,1,0,1,0,0,30,30,50,,,,,,,,,,,,,,5,1.1491781999939121,5,0.5,0.4,14.41717,return,1.3274487999733537,,,,,,,,,,,,,,,,,p317,22,female,left_right_width,2025-12-10_13h37.11.382,exp1,2023.1.0,59.96368599447664,
,,,,,,,,,,,,,,,,3,9.3,10,10.7,0,0,0.7,0.44999999999999996,0.25,1.65,10,initial,36.05,335,361,386,0,0,9,9,9,0,0,,,,,,,1,0,1,0,0,31,31,7,,,,,,,,,,,,,,3,1.1973387000034563,3,0.4,0.30000000000000004,10.81288,return,1.724917399988044,,,,,,,,,,,,,,,,,p317,22,female,left_right_width,2025-12-10_13h37.11.382,exp1,2023.1.0,59.96368599447664,
,,,,,,,,,,,,,,,,3,8.6,10,11.4,0,0,1.4,1.15,0.25,3.05,10,match,36.05,310,361,411,0,0,9,9,9,0,0,,,,,,,1,0,1,0,0,32,32,43,,,,,,,,,,,,,,3,1.0730544999823906,3,0.5,0.25000000000000006,9.01073,return,1.5406985000008717,,,,,,,,,,,,,,,,,p317,22,female,left_right_width,2025-12-10_13h37.11.382,exp1,2023.1.0,59.96368599447664,
,,,,,,,,,,,,,,,,4,8.35,9.45,10.55,11.65,0,1.1,0.55,0.55,3.8500000000000005,10,initial,36.05,301,341,380,420,0,9,9,9,9,0,,,,,,,1,0,1,0,0,33,33,17,,,,,,,,,,,,,,4,0.8781326999887824,4,0.5,0.45,16.21932,return,0.9697123999940231,,,,,,,,,,,,,,,,,p317,22,female,left_right_width,2025-12-10_13h37.11.382,exp1,2023.1.0,59.96368599447664,
,,,,,,,,,,,,,,,,3,7.8,10,12.2,0,0,2.2,1.9500000000000002,0.25,4.65,10,match,36.05,281,361,440,0,0,9,9,9,0,0,,,,,,,1,0,1,0,0,34,34,37,,,,,,,,,,,,,,3,0.7624121000408195,3,0.35,0.15000000000000002,5.40644,return,1.3552291999803856,,,,,,,,,,,,,,,,,p317,22,female,left_right_width,2025-12-10_13h37.11.382,exp1,2023.1.0,59.96368599447664,
,,,,,,,,,,,,,,,,3,9.1,10,10.9,0,0,0.9,0.35,0.55,2.35,10,initial,36.05,328,361,393,0,0,9,9,9,0,0,,,,,,,1,0,1,0,0,35,35,11,,,,,,,,,,,,,,3,0.7085119999828748,3,0.45,0.4,14.41717,return,1.0161770000122488,,,,,,,,,,,,,,,,,p317,22,female,left_right_width,2025-12-10_13h37.11.382,exp1,2023.1.0,59.96368599447664,
,,,,,,,,,,,,,,,,4,9.1,9.7,10.3,10.9,0,0.5999999999999999,0.3499999999999999,0.25,2.05,10,match,36.05,328,350,371,393,0,9,9,9,9,0,,,,,,,1,0,1,0,0,36,36,14,,,,,,,,,,,,,,4,0.8186518999864347,4,0.5,0.35000000000000003,12.61502,return,1.424388999992516,,,,,,,,,,,,,,,,,p317,22,female,left_right_width,2025-12-10_13h37.11.382,exp1,2023.1.0,59.96368599447664,
,,,,,,,,,,,,,,,,5,7.8,8.9,10,11.1,12.2,1.1,0.8500000000000001,0.25,4.65,10,initial,36.05,281,321,361,400,440,9,9,9,9,9,,,,,,,1,0,1,0,0,37,37,36,,,,,,,,,,,,,,5,1.594557199976407,5,0.35,0.3,10.81288,return,0.858479599992279,,,,,,,,,,,,,,,,,p317,22,female,left_right_width,2025-12-10_13h37.11.382,exp1,2023.1.0,59.96368599447664,
,,,,,,,,,,,,,,,,3,8.525,10,11.475,0,0,1.475,1.225,0.25,3.2,10,match,36.05,307,361,414,0,0,9,9,9,0,0,,,,,,,1,0,1,0,0,38,38,45,,,,,,,,,,,,,,3,0.7144324999535456,3,0.55,0.25000000000000006,9.01073,return,2.060439199965913,,,,,,,,,,,,,,,,,p317,22,female,left_right_width,2025-12-10_13h37.11.382,exp1,2023.1.0,59.96368599447664,
,,,,,,,,,,,,,,,,5,8.35,9.175,10,10.825,11.65,0.8250000000000001,0.275,0.55,3.85,10,match,36.05,301,331,361,390,420,9,9,9,9,9,,,,,,,1,0,1,0,0,39,39,18,,,,,,,,,,,,,,4,1.459170099988114,4,0.2,0.39999999999999997,14.41717,return,2.0878166999900714,,,,,,,,,,,,,,,,,p317,22,female,left_right_width,2025-12-10_13h37.11.382,exp1,2023.1.0,59.96368599447664,
,,,,,,,,,,,,,,,,5,8.2,9.1,10,10.9,11.8,0.9,0.35,0.55,4.15,10,initial,36.05,296,328,361,393,425,9,9,9,9,9,,,,,,,1,0,1,0,0,40,40,46,,,,,,,,,,,,,,5,2.158378799969796,5,0.35,0.35,12.61502,return,0.9826995999901555,,,,,,,,,,,,,,,,,p317,22,female,left_right_width,2025-12-10_13h37.11.382,exp1,2023.1.0,59.96368599447664,
,,,,,,,,,,,,,,,,4,8.65,9.55,10.45,11.35,0,0.9,0.5,0.4,3.1,10,initial,36.05,312,344,377,409,0,9,9,9,9,0,,,,,,,1,0,1,0,0,41,41,32,,,,,,,,,,,,,,4,1.2328865000163205,4,0.3,0.3,10.81288,return,0.6857523000217043,,,,,,,,,,,,,,,,,p317,22,female,left_right_width,2025-12-10_13h37.11.382,exp1,2023.1.0,59.96368599447664,
,,,,,,,,,,,,,,,,5,8.95,9.475,10,10.525,11.05,0.525,0.125,0.4,2.5,10,match,36.05,323,342,361,379,398,9,9,9,9,9,,,,,,,1,0,1,0,0,42,42,27,,,,,,,,,,,,,,5,1.4119270000373945,5,0.3,0.3,10.81288,return,0.682165400008671,,,,,,,,,,,,,,,,,p317,22,female,left_right_width,2025-12-10_13h37.11.382,exp1,2023.1.0,59.96368599447664,
,,,,,,,,,,,,,,,,4,8.65,9.55,10.45,11.35,0,0.9,0.65,0.25,2.95,10,initial,36.05,312,344,377,409,0,9,9,9,9,0,,,,,,,1,0,1,0,0,43,43,30,,,,,,,,,,,,,,4,1.1229883999913,4,0.35,0.3,10.81288,return,1.3798975000390783,,,,,,,,,,,,,,,,,p317,22,female,left_right_width,2025-12-10_13h37.11.382,exp1,2023.1.0,59.96368599447664,
,,,,,,,,,,,,,,,,5,8.275,9.1375,10,10.8625,11.725,0.8625,0.6125,0.25,3.7,10,match,36.05,298,329,361,392,423,9,9,9,9,9,,,,,,,1,0,1,0,0,44,44,22,,,,,,,,,,,,,,5,1.3704825000022538,5,0.3,0.25,9.01073,return,1.394500499998685,,,,,,,,,,,,,,,,,p317,22,female,left_right_width,2025-12-10_13h37.11.382,exp1,2023.1.0,59.96368599447664,
,,,,,,,,,,,,,,,,5,8.65,9.325,10,10.675,11.35,0.675,0.275,0.4,3.1,10,match,36.05,312,336,361,385,409,9,9,9,9,9,,,,,,,1,0,1,0,0,45,45,33,,,,,,,,,,,,,,4,1.0903481999994256,4,0.55,0.4,14.41717,return,3.0612546000047587,,,,,,,,,,,,,,,,,p317,22,female,left_right_width,2025-12-10_13h37.11.382,exp1,2023.1.0,59.96368599447664,
,,,,,,,,,,,,,,,,3,8.9,10,11.1,0,0,1.1,0.7000000000000001,0.4,2.6000000000000005,10,initial,36.05,321,361,400,0,0,9,9,9,0,0,,,,,,,1,0,1,0,0,46,46,4,,,,,,,,,,,,,,3,1.0992329000146128,3,0.45,0.45,16.21932,return,1.2309910000185482,,,,,,,,,,,,,,,,,p317,22,female,left_right_width,2025-12-10_13h37.11.382,exp1,2023.1.0,59.96368599447664,
,,,,,,,,,,,,,,,,3,8.9,10,11.1,0,0,1.1,0.8500000000000001,0.25,2.45,10,initial,36.05,321,361,400,0,0,9,9,9,0,0,,,,,,,1,0,1,0,0,47,47,2,,,,,,,,,,,,,,3,0.8316467999829911,3,0.45,0.25000000000000006,9.01073,return,1.1977963999961503,,,,,,,,,,,,,,,,,p317,22,female,left_right_width,2025-12-10_13h37.11.382,exp1,2023.1.0,59.96368599447664,
,,,,,,,,,,,,,,,,5,8.95,9.475,10,10.525,11.05,0.525,0.275,0.25,2.35,10,match,36.05,323,342,361,379,398,9,9,9,9,9,,,,,,,1,0,1,0,0,48,48,25,,,,,,,,,,,,,,5,1.4792017000145279,5,0.2,0.2,7.20859,return,0.699463700002525,,,,,,,,,,,,,,,,,p317,22,female,left_right_width,2025-12-10_13h37.11.382,exp1,2023.1.0,59.96368599447664,
,,,,,,,,,,,,,,,,4,8.9,9.633333333333333,10.366666666666667,11.1,0,0.7333333333333333,0.18333333333333326,0.55,2.75,10,match,36.05,321,347,374,400,0,9,9,9,9,0,,,,,,,1,0,1,0,0,49,49,1,,,,,,,,,,,,,,3,1.0631380999693647,3,0.35,0.39999999999999997,14.41717,return,0.8292094999924302,,,,,,,,,,,,,,,,,p317,22,female,left_right_width,2025-12-10_13h37.11.382,exp1,2023.1.0,59.96368599447664,
,,,,,,,,,,,,,,,,3,9.3,10,10.7,0,0,0.7,0.1499999999999999,0.55,1.95,10,initial,36.05,335,361,386,0,0,9,9,9,0,0,,,,,,,1,0,1,0,0,50,50,6,,,,,,,,,,,,,,3,1.141155700024683,3,0.45,0.45,16.21932,return,0.9182877999846824,,,,,,,,,,,,,,,,,p317,22,female,left_right_width,2025-12-10_13h37.11.382,exp1,2023.1.0,59.96368599447664,
,,,,,,,,,,,,,,,,4,8.95,9.65,10.35,11.05,0,0.7,0.44999999999999996,0.25,2.3499999999999996,10,initial,36.05,323,348,373,398,0,9,9,9,9,0,,,,,,,1,0,1,0,0,51,51,24,,,,,,,,,,,,,,4,0.8184419000172056,4,0.55,0.25000000000000006,9.01073,return,1.9514829999534413,,,,,,,,,,,,,,,,,p317,22,female,left_right_width,2025-12-10_13h37.11.382,exp1,2023.1.0,59.96368599447664,
,,,,,,,,,,,,,,,,,,,,,,,,,,,,,,,,,,,,,,,,,,,,,1,0,1,0,,,,,,,,,,,,,,,,,,,,,,,,,,,,780.5362658000086,780.5362658000086,780.5362658000086,,,,,,,,,,,,p317,22,female,left_right_width,2025-12-10_13h37.11.382,exp1,2023.1.0,59.96368599447664,
,,,,,,,,,,,,,,,,5,8.35,9.175,10,10.825,11.65,0.825,0.575,0.25,3.55,10,match,36.05,301,331,361,390,420,9,9,9,9,9,,,,,,,2,0,2,0,0,0,0,20,,,,,,,,,,,,,,4,3.4390250999713317,4,0.35,0.3,10.81288,return,1.3639863999560475,,,,,,,,,,,,,,,,,p317,22,female,left_right_width,2025-12-10_13h37.11.382,exp1,2023.1.0,59.96368599447664,
,,,,,,,,,,,,,,,,5,8.2,9.1,10,10.9,11.8,0.9,0.65,0.25,3.85,10,initial,36.05,296,328,361,393,425,9,9,9,9,9,,,,,,,2,0,2,0,0,1,1,48,,,,,,,,,,,,,,4,0.7180727999657393,4,0.4,0.25000000000000006,9.01073,return,1.1366377000231296,,,,,,,,,,,,,,,,,p317,22,female,left_right_width,2025-12-10_13h37.11.382,exp1,2023.1.0,59.96368599447664,
,,,,,,,,,,,,,,,,5,8.35,9.175,10,10.825,11.65,0.8250000000000001,0.275,0.55,3.85,10,match,36.05,301,331,361,390,420,9,9,9,9,9,,,,,,,2,0,2,0,0,2,2,18,,,,,,,,,,,,,,5,1.14012559998082,5,0.55,0.45,16.21932,return,1.0776712999795564,,,,,,,,,,,,,,,,,p317,22,female,left_right_width,2025-12-10_13h37.11.382,exp1,2023.1.0,59.96368599447664,
,,,,,,,,,,,,,,,,5,8.95,9.475,10,10.525,11.05,0.525,0.275,0.25,2.35,10,match,36.05,323,342,361,379,398,9,9,9,9,9,,,,,,,2,0,2,0,0,3,3,25,,,,,,,,,,,,,,5,0.8939581000013277,5,0.3,0.25,9.01073,return,1.3363587000058033,,,,,,,,,,,,,,,,,p317,22,female,left_right_width,2025-12-10_13h37.11.382,exp1,2023.1.0,59.96368599447664,
,,,,,,,,,,,,,,,,5,8.65,9.325,10,10.675,11.35,0.675,0.42500000000000004,0.25,2.95,10,match,36.05,312,336,361,385,409,9,9,9,9,9,,,,,,,2,0,2,0,0,4,4,31,,,,,,,,,,,,,,4,0.9277196999755688,4,0.2,0.2,7.20859,return,1.2744889999739826,,,,,,,,,,,,,,,,,p317,22,female,left_right_width,2025-12-10_13h37.11.382,exp1,2023.1.0,59.96368599447664,
,,,,,,,,,,,,,,,,3,9.1,10,10.9,0,0,0.9,0.65,0.25,2.05,10,initial,36.05,328,361,393,0,0,9,9,9,0,0,,,,,,,2,0,2,0,0,5,5,13,,,,,,,,,,,,,,3,0.7012580999871716,3,0.25,0.25,9.01073,return,1.0729169999831356,,,,,,,,,,,,,,,,,p317,22,female,left_right_width,2025-12-10_13h37.11.382,exp1,2023.1.0,59.96368599447664,
,,,,,,,,,,,,,,,,5,8.2,9.1,10,10.9,11.8,0.9,0.35,0.55,4.15,10,initial,36.05,296,328,361,393,425,9,9,9,9,9,,,,,,,2,0,2,0,0,6,6,46,,,,,,,,,,,,,,4,1.1494489000178874,4,0.3,0.35,12.61502,return,1.4862057999707758,,,,,,,,,,,,,,,,,p317,22,female,left_right_width,2025-12-10_13h37.11.382,exp1,2023.1.0,59.96368599447664,
,,,,,,,,,,,,,,,,3,9.1,10,10.9,0,0,0.9,0.35,0.55,2.35,10,initial,36.05,328,361,393,0,0,9,9,9,0,0,,,,,,,2,0,2,0,0,7,7,11,,,,,,,,,,,,,,3,0.6707339999848045,3,0.25,0.35,12.61502,return,1.1066568000242114,,,,,,,,,,,,,,,,,p317,22,female,left_right_width,2025-12-10_13h37.11.382,exp1,2023.1.0,59.96368599447664,
,,,,,,,,,,,,,,,,3,9.3,10,10.7,0,0,0.7,0.44999999999999996,0.25,1.65,10,initial,36.05,335,361,386,0,0,9,9,9,0,0,,,,,,,2,0,2,0,0,8,8,7,,,,,,,,,,,,,,3,0.5265873000025749,3,0.55,0.25000000000000006,9.01073,return,1.7195654999813996,,,,,,,,,,,,,,,,,p317,22,female,left_right_width,2025-12-10_13h37.11.382,exp1,2023.1.0,59.96368599447664,
,,,,,,,,,,,,,,,,5,8.6,9.3,10,10.7,11.4,0.7,0.29999999999999993,0.4,3.1999999999999997,10,initial,36.05,310,335,361,386,411,9,9,9,9,9,,,,,,,2,0,2,0,0,9,9,44,,,,,,,,,,,,,,6,2.35136919998331,6,0.25,0.3,10.81288,return,1.1848955999594182,,,,,,,,,,,,,,,,,p317,22,female,left_right_width,2025-12-10_13h37.11.382,exp1,2023.1.0,59.96368599447664,
,,,,,,,,,,,,,,,,4,8.65,9.55,10.45,11.35,0,0.9,0.5,0.4,3.1,10,initial,36.05,312,344,377,409,0,9,9,9,9,0,,,,,,,2,0,2,0,0,10,10,32,,,,,,,,,,,,,,5,1.4154381999978796,5,0.3,0.3,10.81288,return,0.7179082999937236,,,,,,,,,,,,,,,,,p317,22,female,left_right_width,2025-12-10_13h37.11.382,exp1,2023.1.0,59.96368599447664,
,,,,,,,,,,,,,,,,5,8.6,9.3,10,10.7,11.4,0.7,0.44999999999999996,0.25,3.05,10,initial,36.05,310,335,361,386,411,9,9,9,9,9,,,,,,,2,0,2,0,0,11,11,42,,,,,,,,,,,,,,5,0.9973109999555163,5,0.35,0.3,10.81288,return,1.515910999965854,,,,,,,,,,,,,,,,,p317,22,female,left_right_width,2025-12-10_13h37.11.382,exp1,2023.1.0,59.96368599447664,
,,,,,,,,,,,,,,,,4,8.95,9.65,10.35,11.05,0,0.7,0.44999999999999996,0.25,2.3499999999999996,10,initial,36.05,323,348,373,398,0,9,9,9,9,0,,,,,,,2,0,2,0,0,12,12,24,,,,,,,,,,,,,,4,1.2544377999729477,4,0.35,0.3,10.81288,return,1.2842045000288635,,,,,,,,,,,,,,,,,p317,22,female,left_right_width,2025-12-10_13h37.11.382,exp1,2023.1.0,59.96368599447664,
,,,,,,,,,,,,,,,,5,7.8,8.9,10,11.1,12.2,1.1,0.55,0.55,4.95,10,initial,36.05,281,321,361,400,440,9,9,9,9,9,,,,,,,2,0,2,0,0,13,13,34,,,,,,,,,,,,,,5,1.458091400039848,5,0.2,0.35,12.61502,return,2.519086199987214,,,,,,,,,,,,,,,,,p317,22,female,left_right_width,2025-12-10_13h37.11.382,exp1,2023.1.0,59.96368599447664,
,,,,,,,,,,,,,,,,4,8.35,9.45,10.55,11.65,0,1.1,0.55,0.55,3.8500000000000005,10,initial,36.05,301,341,380,420,0,9,9,9,9,0,,,,,,,2,0,2,0,0,14,14,17,,,,,,,,,,,,,,5,1.1450395000283606,5,0.35,0.3,10.81288,return,1.1131357999984175,,,,,,,,,,,,,,,,,p317,22,female,left_right_width,2025-12-10_13h37.11.382,exp1,2023.1.0,59.96368599447664,
,,,,,,,,,,,,,,,,4,8.35,9.45,10.55,11.65,0,1.1,0.8500000000000001,0.25,3.5500000000000003,10,initial,36.05,301,341,380,420,0,9,9,9,9,0,,,,,,,2,0,2,0,0,15,15,19,,,,,,,,,,,,,,4,2.4678476999979466,4,0.5,0.30000000000000004,10.81288,return,2.1763525000424124,,,,,,,,,,,,,,,,,p317,22,female,left_right_width,2025-12-10_13h37.11.382,exp1,2023.1.0,59.96368599447664,
,,,,,,,,,,,,,,,,5,8.275,9.1375,10,10.8625,11.725,0.8625,0.6125,0.25,3.7,10,match,36.05,298,329,361,392,423,9,9,9,9,9,,,,,,,2,0,2,0,0,16,16,22,,,,,,,,,,,,,,5,0.9783916999585927,5,0.35,0.2,7.20859,return,1.8030026000342332,,,,,,,,,,,,,,,,,p317,22,female,left_right_width,2025-12-10_13h37.11.382,exp1,2023.1.0,59.96368599447664,
,,,,,,,,,,,,,,,,4,8.9,9.633333333333333,10.366666666666667,11.1,0,0.7333333333333333,0.18333333333333326,0.55,2.75,10,match,36.05,321,347,374,400,0,9,9,9,9,0,,,,,,,2,0,2,0,0,17,17,1,,,,,,,,,,,,,,4,1.4030391999986023,4,0.4,0.4,14.41717,return,0.8978355000144802,,,,,,,,,,,,,,,,,p317,22,female,left_right_width,2025-12-10_13h37.11.382,exp1,2023.1.0,59.96368599447664,
,,,,,,,,,,,,,,,,5,7.8,8.9,10,11.1,12.2,1.1,0.7000000000000001,0.4,4.800000000000001,10,initial,36.05,281,321,361,400,440,9,9,9,9,9,,,,,,,2,0,2,0,0,18,18,38,,,,,,,,,,,,,,5,0.7791611999855377,5,0.4,0.4,14.41717,return,0.8112556000123732,,,,,,,,,,,,,,,,,p317,22,female,left_right_width,2025-12-10_13h37.11.382,exp1,2023.1.0,59.96368599447664,
,,,,,,,,,,,,,,,,4,9.3,9.766666666666667,10.233333333333333,10.7,0,0.4666666666666667,0.06666666666666665,0.4,1.8,10,match,36.05,335,352,369,386,0,9,9,9,9,0,,,,,,,2,0,2,0,0,19,19,10,,,,,,,,,,,,,,3,1.628156399994623,3,0.2,0.39999999999999997,14.41717,return,2.1863553999573924,,,,,,,,,,,,,,,,,p317,22,female,left_right_width,2025-12-10_13h37.11.382,exp1,2023.1.0,59.96368599447664,
,,,,,,,,,,,,,,,,4,8.65,9.55,10.45,11.35,0,0.9,0.65,0.25,2.95,10,initial,36.05,312,344,377,409,0,9,9,9,9,0,,,,,,,2,0,2,0,0,20,20,30,,,,,,,,,,,,,,5,0.8905282000196166,5,0.35,0.25,9.01073,return,1.8144556999905035,,,,,,,,,,,,,,,,,p317,22,female,left_right_width,2025-12-10_13h37.11.382,exp1,2023.1.0,59.96368599447664,
,,,,,,,,,,,,,,,,4,8.9,9.633333333333333,10.366666666666667,11.1,0,0.7333333333333334,0.4833333333333334,0.25,2.45,10,match,36.05,321,347,374,400,0,9,9,9,9,0,,,,,,,2,0,2,0,0,21,21,3,,,,,,,,,,,,,,4,1.5890658000134863,4,0.3,0.3,10.81288,return,1.0602908000000753,,,,,,,,,,,,,,,,,p317,22,female,left_right_width,2025-12-10_13h37.11.382,exp1,2023.1.0,59.96368599447664,
,,,,,,,,,,,,,,,,3,8.2,10,11.8,0,0,1.8,1.25,0.55,4.15,10,match,36.05,296,361,425,0,0,9,9,9,0,0,,,,,,,2,0,2,0,0,22,22,47,,,,,,,,,,,,,,4,0.8277270999969915,4,0.2,0.39999999999999997,14.41717,return,2.0731270000105724,,,,,,,,,,,,,,,,,p317,22,female,left_right_width,2025-12-10_13h37.11.382,exp1,2023.1.0,59.96368599447664,
,,,,,,,,,,,,,,,,3,8.9,10,11.1,0,0,1.1,0.55,0.55,2.75,10,initial,36.05,321,361,400,0,0,9,9,9,0,0,,,,,,,2,0,2,0,0,23,23,0,,,,,,,,,,,,,,4,0.5027133999974467,4,0.2,0.39999999999999997,14.41717,return,3.2016782999853604,,,,,,,,,,,,,,,,,p317,22,female,left_right_width,2025-12-10_13h37.11.382,exp1,2023.1.0,59.96368599447664,
,,,,,,,,,,,,,,,,5,8.65,9.325,10,10.675,11.35,0.675,0.125,0.55,3.25,10,match,36.05,312,336,361,385,409,9,9,9,9,9,,,,,,,2,0,2,0,0,24,24,29,,,,,,,,,,,,,,5,1.1341292000142857,5,0.5,0.4,14.41717,return,1.391825600003358,,,,,,,,,,,,,,,,,p317,22,female,left_right_width,2025-12-10_13h37.11.382,exp1,2023.1.0,59.96368599447664,
,,,,,,,,,,,,,,,,3,9.3,10,10.7,0,0,0.7,0.1499999999999999,0.55,1.95,10,initial,36.05,335,361,386,0,0,9,9,9,0,0,,,,,,,2,0,2,0,0,25,25,6,,,,,,,,,,,,,,4,0.5751780999707989,4,0.45,0.35000000000000003,12.61502,return,1.8798829999868758,,,,,,,,,,,,,,,,,p317,22,female,left_right_width,2025-12-10_13h37.11.382,exp1,2023.1.0,59.96368599447664,
,,,,,,,,,,,,,,,,4,9.3,9.766666666666667,10.233333333333333,10.7,0,0.4666666666666667,0.21666666666666665,0.25,1.65,10,match,36.05,335,352,369,386,0,9,9,9,9,0,,,,,,,2,0,2,0,0,26,26,8,,,,,,,,,,,,,,4,0.8030712999752723,4,0.3,0.25,9.01073,return,0.8987702000304125,,,,,,,,,,,,,,,,,p317,22,female,left_right_width,2025-12-10_13h37.11.382,exp1,2023.1.0,59.96368599447664,
,,,,,,,,,,,,,,,,4,8.825,9.608333333333333,10.391666666666667,11.175,0,0.7833333333333333,0.5333333333333333,0.25,2.6,10,match,36.05,318,346,375,403,0,9,9,9,9,0,,,,,,,2,0,2,0,0,27,27,5,,,,,,,,,,,,,,4,0.6299409000203013,4,0.5,0.30000000000000004,10.81288,return,1.338527099986095,,,,,,,,,,,,,,,,,p317,22,female,left_right_width,2025-12-10_13h37.11.382,exp1,2023.1.0,59.96368599447664,
,,,,,,,,,,,,,,,,3,8.9,10,11.1,0,0,1.1,0.8500000000000001,0.25,2.45,10,initial,36.05,321,361,400,0,0,9,9,9,0,0,,,,,,,2,0,2,0,0,28,28,2,,,,,,,,,,,,,,3,0.9417929999763146,3,0.35,0.15000000000000002,5.40644,return,1.2876078999834135,,,,,,,,,,,,,,,,,p317,22,female,left_right_width,2025-12-10_13h37.11.382,exp1,2023.1.0,59.96368599447664,
,,,,,,,,,,,,,,,,4,8.95,9.65,10.35,11.05,0,0.7,0.1499999999999999,0.55,2.65,10,initial,36.05,323,348,373,398,0,9,9,9,9,0,,,,,,,2,0,2,0,0,29,29,23,,,,,,,,,,,,,,4,0.8290538999717683,4,0.3,0.35,12.61502,return,1.003263499995228,,,,,,,,,,,,,,,,,p317,22,female,left_right_width,2025-12-10_13h37.11.382,exp1,2023.1.0,59.96368599447664,
,,,,,,,,,,,,,,,,3,8.9,10,11.1,0,0,1.1,0.7000000000000001,0.4,2.6000000000000005,10,initial,36.05,321,361,400,0,0,9,9,9,0,0,,,,,,,2,0,2,0,0,30,30,4,,,,,,,,,,,,,,3,0.8763277999823913,3,0.3,0.3,10.81288,return,0.6796472999849357,,,,,,,,,,,,,,,,,p317,22,female,left_right_width,2025-12-10_13h37.11.382,exp1,2023.1.0,59.96368599447664,
,,,,,,,,,,,,,,,,4,8.65,9.55,10.45,11.35,0,0.9,0.35,0.55,3.25,10,initial,36.05,312,344,377,409,0,9,9,9,9,0,,,,,,,2,0,2,0,0,31,31,28,,,,,,,,,,,,,,4,0.6821873000008054,4,0.25,0.39999999999999997,14.41717,return,1.8377087999833748,,,,,,,,,,,,,,,,,p317,22,female,left_right_width,2025-12-10_13h37.11.382,exp1,2023.1.0,59.96368599447664,
,,,,,,,,,,,,,,,,5,8.6,9.3,10,10.7,11.4,0.7,0.1499999999999999,0.55,3.3499999999999996,10,initial,36.05,310,335,361,386,411,9,9,9,9,9,,,,,,,2,0,2,0,0,32,32,40,,,,,,,,,,,,,,4,0.7153809999581426,4,0.55,0.5,18.02146,return,1.006614800018724,,,,,,,,,,,,,,,,,p317,22,female,left_right_width,2025-12-10_13h37.11.382,exp1,2023.1.0,59.96368599447664,
,,,,,,,,,,,,,,,,3,7.8,10,12.2,0,0,2.2,1.65,0.55,4.95,10,match,36.05,281,361,440,0,0,9,9,9,0,0,,,,,,,2,0,2,0,0,33,33,35,,,,,,,,,,,,,,3,0.8057636000448838,3,0.5,0.55,19.82361,return,0.9495876999571919,,,,,,,,,,,,,,,,,p317,22,female,left_right_width,2025-12-10_13h37.11.382,exp1,2023.1.0,59.96368599447664,
,,,,,,,,,,,,,,,,5,8.2,9.1,10,10.9,11.8,0.9,0.5,0.4,4,10,initial,36.05,296,328,361,393,425,9,9,9,9,9,,,,,,,2,0,2,0,0,34,34,50,,,,,,,,,,,,,,5,2.5885548000223935,5,0.5,0.5,18.02146,return,1.251365500036627,,,,,,,,,,,,,,,,,p317,22,female,left_right_width,2025-12-10_13h37.11.382,exp1,2023.1.0,59.96368599447664,
,,,,,,,,,,,,,,,,4,9.1,9.7,10.3,10.9,0,0.6,0.04999999999999997,0.55,2.35,10,match,36.05,328,350,371,393,0,9,9,9,9,0,,,,,,,2,0,2,0,0,35,35,12,,,,,,,,,,,,,,3,1.011150499980431,3,0.4,0.6500000000000001,23.4279,return,2.793233699980192,,,,,,,,,,,,,,,,,p317,22,female,left_right_width,2025-12-10_13h37.11.382,exp1,2023.1.0,59.96368599447664,
,,,,,,,,,,,,,,,,3,7.8,10,12.2,0,0,2.2,1.9500000000000002,0.25,4.65,10,match,36.05,281,361,440,0,0,9,9,9,0,0,,,,,,,2,0,2,0,0,36,36,37,,,,,,,,,,,,,,3,0.7535537999938242,3,0.45,0.20000000000000007,7.20859,return,2.4495714000076987,,,,,,,,,,,,,,,,,p317,22,female,left_right_width,2025-12-10_13h37.11.382,exp1,2023.1.0,59.96368599447664,
,,,,,,,,,,,,,,,,3,8.525,10,11.475,0,0,1.475,1.225,0.25,3.2,10,match,36.05,307,361,414,0,0,9,9,9,0,0,,,,,,,2,0,2,0,0,37,37,45,,,,,,,,,,,,,,3,1.6016952999634668,3,0.3,0.25,9.01073,return,1.7925609000376426,,,,,,,,,,,,,,,,,p317,22,female,left_right_width,2025-12-10_13h37.11.382,exp1,2023.1.0,59.96368599447664,
,,,,,,,,,,,,,,,,4,8.95,9.65,10.35,11.05,0,0.7,0.29999999999999993,0.4,2.5,10,initial,36.05,323,348,373,398,0,9,9,9,9,0,,,,,,,2,0,2,0,0,38,38,26,,,,,,,,,,,,,,4,0.703613999998197,4,0.2,0.3,10.81288,return,1.5371937999734655,,,,,,,,,,,,,,,,,p317,22,female,left_right_width,2025-12-10_13h37.11.382,exp1,2023.1.0,59.96368599447664,
,,,,,,,,,,,,,,,,3,9.1,10,10.9,0,0,0.9,0.5,0.4,2.2,10,initial,36.05,328,361,393,0,0,9,9,9,0,0,,,,,,,2,0,2,0,0,39,39,15,,,,,,,,,,,,,,3,1.2655324999941513,3,0.3,0.3,10.81288,return,0.6856261999928392,,,,,,,,,,,,,,,,,p317,22,female,left_right_width,2025-12-10_13h37.11.382,exp1,2023.1.0,59.96368599447664,
,,,,,,,,,,,,,,,,5,8.95,9.475,10,10.525,11.05,0.525,0.125,0.4,2.5,10,match,36.05,323,342,361,379,398,9,9,9,9,9,,,,,,,2,0,2,0,0,40,40,27,,,,,,,,,,,,,,4,0.7256678999983706,4,0.45,0.30000000000000004,10.81288,return,1.782511199999135,,,,,,,,,,,,,,,,,p317,22,female,left_right_width,2025-12-10_13h37.11.382,exp1,2023.1.0,59.96368599447664,
,,,,,,,,,,,,,,,,3,7.800000000000001,10,12.2,0,0,2.1999999999999997,1.7999999999999998,0.4,4.8,10,match,36.05,281,361,440,0,0,9,9,9,0,0,,,,,,,2,0,2,0,0,41,41,39,,,,,,,,,,,,,,3,0.7611821000464261,3,0.35,0.35,12.61502,return,0.7302674000384286,,,,,,,,,,,,,,,,,p317,22,female,left_right_width,2025-12-10_13h37.11.382,exp1,2023.1.0,59.96368599447664,
,,,,,,,,,,,,,,,,4,8.35,9.45,10.55,11.65,0,1.1,0.7000000000000001,0.4,3.7,10,initial,36.05,301,341,380,420,0,9,9,9,9,0,,,,,,,2,0,2,0,0,42,42,21,,,,,,,,,,,,,,4,0.6611702999798581,4,0.55,0.4,14.41717,return,1.4352742999908514,,,,,,,,,,,,,,,,,p317,22,female,left_right_width,2025-12-10_13h37.11.382,exp1,2023.1.0,59.96368599447664,
,,,,,,,,,,,,,,,,5,7.8,8.9,10,11.1,12.2,1.1,0.8500000000000001,0.25,4.65,10,initial,36.05,281,321,361,400,440,9,9,9,9,9,,,,,,,2,0,2,0,0,43,43,36,,,,,,,,,,,,,,5,0.9746228999574669,5,0.3,0.3,10.81288,return,0.758395999961067,,,,,,,,,,,,,,,,,p317,22,female,left_right_width,2025-12-10_13h37.11.382,exp1,2023.1.0,59.96368599447664,
,,,,,,,,,,,,,,,,4,9.1,9.7,10.3,10.9,0,0.5999999999999999,0.3499999999999999,0.25,2.05,10,match,36.05,328,350,371,393,0,9,9,9,9,0,,,,,,,2,0,2,0,0,44,44,14,,,,,,,,,,,,,,4,0.8682273000013083,4,0.3,0.25,9.01073,return,1.519775099994149,,,,,,,,,,,,,,,,,p317,22,female,left_right_width,2025-12-10_13h37.11.382,exp1,2023.1.0,59.96368599447664,
,,,,,,,,,,,,,,,,3,8.6,10,11.4,0,0,1.4,1.15,0.25,3.05,10,match,36.05,310,361,411,0,0,9,9,9,0,0,,,,,,,2,0,2,0,0,45,45,43,,,,,,,,,,,,,,3,1.2841678999830037,3,0.25,0.3,10.81288,return,1.3598384000360966,,,,,,,,,,,,,,,,,p317,22,female,left_right_width,2025-12-10_13h37.11.382,exp1,2023.1.0,59.96368599447664,
,,,,,,,,,,,,,,,,3,9.3,10,10.7,0,0,0.7,0.29999999999999993,0.4,1.8,10,initial,36.05,335,361,386,0,0,9,9,9,0,0,,,,,,,2,0,2,0,0,46,46,9,,,,,,,,,,,,,,3,0.8549789999960922,3,0.4,0.35000000000000003,12.61502,return,1.1552491000038572,,,,,,,,,,,,,,,,,p317,22,female,left_right_width,2025-12-10_13h37.11.382,exp1,2023.1.0,59.96368599447664,
,,,,,,,,,,,,,,,,3,8.2,10,11.8,0,0,1.8,1.55,0.25,3.85,10,match,36.05,296,361,425,0,0,9,9,9,0,0,,,,,,,2,0,2,0,0,47,47,49,,,,,,,,,,,,,,3,0.549287399975583,3,0.2,0.2,7.20859,return,0.767512499995064,,,,,,,,,,,,,,,,,p317,22,female,left_right_width,2025-12-10_13h37.11.382,exp1,2023.1.0,59.96368599447664,
,,,,,,,,,,,,,,,,3,8.2,10,11.8,0,0,1.7999999999999998,1.4,0.4,4,10,match,36.05,296,361,425,0,0,9,9,9,0,0,,,,,,,2,0,2,0,0,48,48,51,,,,,,,,,,,,,,3,0.8398368000052869,3,0.5,0.30000000000000004,10.81288,return,1.6696339000482112,,,,,,,,,,,,,,,,,p317,22,female,left_right_width,2025-12-10_13h37.11.382,exp1,2023.1.0,59.96368599447664,
,,,,,,,,,,,,,,,,4,9.1,9.7,10.3,10.9,0,0.6000000000000001,0.20000000000000004,0.4,2.2,10,match,36.05,328,350,371,393,0,9,9,9,9,0,,,,,,,2,0,2,0,0,49,49,16,,,,,,,,,,,,,,4,0.723657299997285,4,0.2,0.35,12.61502,return,2.0847342999768443,,,,,,,,,,,,,,,,,p317,22,female,left_right_width,2025-12-10_13h37.11.382,exp1,2023.1.0,59.96368599447664,
,,,,,,,,,,,,,,,,3,8.6,10,11.4,0,0,1.4,0.85,0.55,3.35,10,match,36.05,310,361,411,0,0,9,9,9,0,0,,,,,,,2,0,2,0,0,50,50,41,,,,,,,,,,,,,,4,0.67511359998025,4,0.25,0.35,12.61502,return,1.9738377000321634,,,,,,,,,,,,,,,,,p317,22,female,left_right_width,2025-12-10_13h37.11.382,exp1,2023.1.0,59.96368599447664,
,,,,,,,,,,,,,,,,5,8.65,9.325,10,10.675,11.35,0.675,0.275,0.4,3.1,10,match,36.05,312,336,361,385,409,9,9,9,9,9,,,,,,,2,0,2,0,0,51,51,33,,,,,,,,,,,,,,5,0.7927497999626212,5,0.5,0.4,14.41717,return,1.480376499996055,,,,,,,,,,,,,,,,,p317,22,female,left_right_width,2025-12-10_13h37.11.382,exp1,2023.1.0,59.96368599447664,
,,,,,,,,,,,,,,,,,,,,,,,,,,,,,,,,,,,,,,,,,,,,,2,0,2,0,,,,,,,,,,,,,,,,,,,,,,,,,,,,1012.6527879000059,1012.6527879000059,1012.6527879000059,,,,,,,,,,,,p317,22,female,left_right_width,2025-12-10_13h37.11.382,exp1,2023.1.0,59.96368599447664,
,,,,,,,,,,,,,,,,5,8.35,9.175,10,10.825,11.65,0.825,0.575,0.25,3.55,10,match,36.05,301,331,361,390,420,9,9,9,9,9,,,,,,,3,0,3,0,0,0,0,20,,,,,,,,,,,,,,5,2.7047610000008717,5,0.45,0.30000000000000004,10.81288,return,1.2019930999958888,,,,,,,,,,,,,,,,,p317,22,female,left_right_width,2025-12-10_13h37.11.382,exp1,2023.1.0,59.96368599447664,
,,,,,,,,,,,,,,,,3,9.1,10,10.9,0,0,0.9,0.5,0.4,2.2,10,initial,36.05,328,361,393,0,0,9,9,9,0,0,,,,,,,3,0,3,0,0,1,1,15,,,,,,,,,,,,,,3,1.0276480000466108,3,0.3,0.3,10.81288,return,0.6816471000202,,,,,,,,,,,,,,,,,p317,22,female,left_right_width,2025-12-10_13h37.11.382,exp1,2023.1.0,59.96368599447664,
,,,,,,,,,,,,,,,,3,8.525,10,11.475,0,0,1.475,1.225,0.25,3.2,10,match,36.05,307,361,414,0,0,9,9,9,0,0,,,,,,,3,0,3,0,0,2,2,45,,,,,,,,,,,,,,3,0.57723709999118,3,0.55,0.30000000000000004,10.81288,return,1.3846790000097826,,,,,,,,,,,,,,,,,p317,22,female,left_right_width,2025-12-10_13h37.11.382,exp1,2023.1.0,59.96368599447664,
,,,,,,,,,,,,,,,,4,8.95,9.65,10.35,11.05,0,0.7,0.29999999999999993,0.4,2.5,10,initial,36.05,323,348,373,398,0,9,9,9,9,0,,,,,,,3,0,3,0,0,3,3,26,,,,,,,,,,,,,,4,0.6827791000250727,4,0.3,0.3,10.81288,return,0.7196335999760777,,,,,,,,,,,,,,,,,p317,22,female,left_right_width,2025-12-10_13h37.11.382,exp1,2023.1.0,59.96368599447664,
,,,,,,,,,,,,,,,,4,8.35,9.45,10.55,11.65,0,1.1,0.7000000000000001,0.4,3.7,10,initial,36.05,301,341,380,420,0,9,9,9,9,0,,,,,,,3,0,3,0,0,4,4,21,,,,,,,,,,,,,,4,0.5632904000231065,4,0.5,0.4,14.41717,return,0.9865891999797896,,,,,,,,,,,,,,,,,p317,22,female,left_right_width,2025-12-10_13h37.11.382,exp1,2023.1.0,59.96368599447664,
,,,,,,,,,,,,,,,,5,7.8,8.9,10,11.1,12.2,1.1,0.8500000000000001,0.25,4.65,10,initial,36.05,281,321,361,400,440,9,9,9,9,9,,,,,,,3,0,3,0,0,5,5,36,,,,,,,,,,,,,,6,1.0826518000103533,6,0.45,0.30000000000000004,10.81288,return,1.469800499966368,,,,,,,,,,,,,,,,,p317,22,female,left_right_width,2025-12-10_13h37.11.382,exp1,2023.1.0,59.96368599447664,
,,,,,,,,,,,,,,,,5,8.6,9.3,10,10.7,11.4,0.7,0.1499999999999999,0.55,3.3499999999999996,10,initial,36.05,310,335,361,386,411,9,9,9,9,9,,,,,,,3,0,3,0,0,6,6,40,,,,,,,,,,,,,,5,1.4512800999800675,5,0.2,0.35,12.61502,return,1.8065474000177346,,,,,,,,,,,,,,,,,p317,22,female,left_right_width,2025-12-10_13h37.11.382,exp1,2023.1.0,59.96368599447664,
,,,,,,,,,,,,,,,,5,8.35,9.175,10,10.825,11.65,0.8250000000000001,0.275,0.55,3.85,10,match,36.05,301,331,361,390,420,9,9,9,9,9,,,,,,,3,0,3,0,0,7,7,18,,,,,,,,,,,,,,5,0.8327558999881148,5,0.4,0.4,14.41717,return,0.7660731000360101,,,,,,,,,,,,,,,,,p317,22,female,left_right_width,2025-12-10_13h37.11.382,exp1,2023.1.0,59.96368599447664,
,,,,,,,,,,,,,,,,5,8.95,9.475,10,10.525,11.05,0.525,0.125,0.4,2.5,10,match,36.05,323,342,361,379,398,9,9,9,9,9,,,,,,,3,0,3,0,0,8,8,27,,,,,,,,,,,,,,4,0.9089516999665648,4,0.2,0.2,7.20859,return,0.35901080002076924,,,,,,,,,,,,,,,,,p317,22,female,left_right_width,2025-12-10_13h37.11.382,exp1,2023.1.0,59.96368599447664,
,,,,,,,,,,,,,,,,4,9.3,9.766666666666667,10.233333333333333,10.7,0,0.4666666666666667,0.21666666666666665,0.25,1.65,10,match,36.05,335,352,369,386,0,9,9,9,9,0,,,,,,,3,0,3,0,0,9,9,8,,,,,,,,,,,,,,4,1.484400299959816,4,0.3,0.25,9.01073,return,1.0544203000026755,,,,,,,,,,,,,,,,,p317,22,female,left_right_width,2025-12-10_13h37.11.382,exp1,2023.1.0,59.96368599447664,
,,,,,,,,,,,,,,,,4,8.9,9.633333333333333,10.366666666666667,11.1,0,0.7333333333333333,0.18333333333333326,0.55,2.75,10,match,36.05,321,347,374,400,0,9,9,9,9,0,,,,,,,3,0,3,0,0,10,10,1,,,,,,,,,,,,,,4,1.521811400016304,4,0.55,0.45,16.21932,return,1.2512292999890633,,,,,,,,,,,,,,,,,p317,22,female,left_right_width,2025-12-10_13h37.11.382,exp1,2023.1.0,59.96368599447664,
,,,,,,,,,,,,,,,,5,8.6,9.3,10,10.7,11.4,0.7,0.44999999999999996,0.25,3.05,10,initial,36.05,310,335,361,386,411,9,9,9,9,9,,,,,,,3,0,3,0,0,11,11,42,,,,,,,,,,,,,,5,1.8004222000017762,5,0.55,0.25000000000000006,9.01073,return,1.7920254999771714,,,,,,,,,,,,,,,,,p317,22,female,left_right_width,2025-12-10_13h37.11.382,exp1,2023.1.0,59.96368599447664,
,,,,,,,,,,,,,,,,4,9.1,9.7,10.3,10.9,0,0.6000000000000001,0.20000000000000004,0.4,2.2,10,match,36.05,328,350,371,393,0,9,9,9,9,0,,,,,,,3,0,3,0,0,12,12,16,,,,,,,,,,,,,,4,1.1060230999719352,4,0.55,0.45,16.21932,return,1.0764413999859244,,,,,,,,,,,,,,,,,p317,22,female,left_right_width,2025-12-10_13h37.11.382,exp1,2023.1.0,59.96368599447664,
,,,,,,,,,,,,,,,,4,8.9,9.633333333333333,10.366666666666667,11.1,0,0.7333333333333334,0.4833333333333334,0.25,2.45,10,match,36.05,321,347,374,400,0,9,9,9,9,0,,,,,,,3,0,3,0,0,13,13,3,,,,,,,,,,,,,,4,1.4991936000296846,4,0.4,0.25000000000000006,9.01073,return,1.183134799997788,,,,,,,,,,,,,,,,,p317,22,female,left_right_width,2025-12-10_13h37.11.382,exp1,2023.1.0,59.96368599447664,
,,,,,,,,,,,,,,,,3,8.9,10,11.1,0,0,1.1,0.8500000000000001,0.25,2.45,10,initial,36.05,321,361,400,0,0,9,9,9,0,0,,,,,,,3,0,3,0,0,14,14,2,,,,,,,,,,,,,,3,0.9050578000023961,3,0.2,0.25,9.01073,return,1.5712880999781191,,,,,,,,,,,,,,,,,p317,22,female,left_right_width,2025-12-10_13h37.11.382,exp1,2023.1.0,59.96368599447664,
,,,,,,,,,,,,,,,,5,8.65,9.325,10,10.675,11.35,0.675,0.42500000000000004,0.25,2.95,10,match,36.05,312,336,361,385,409,9,9,9,9,9,,,,,,,3,0,3,0,0,15,15,31,,,,,,,,,,,,,,4,1.4896620999788865,4,0.35,0.3,10.81288,return,1.6213707000133581,,,,,,,,,,,,,,,,,p317,22,female,left_right_width,2025-12-10_13h37.11.382,exp1,2023.1.0,59.96368599447664,
,,,,,,,,,,,,,,,,3,7.8,10,12.2,0,0,2.2,1.65,0.55,4.95,10,match,36.05,281,361,440,0,0,9,9,9,0,0,,,,,,,3,0,3,0,0,16,16,35,,,,,,,,,,,,,,3,1.3506356999860145,3,0.4,0.4,14.41717,return,1.0076628000242636,,,,,,,,,,,,,,,,,p317,22,female,left_right_width,2025-12-10_13h37.11.382,exp1,2023.1.0,59.96368599447664,
,,,,,,,,,,,,,,,,5,8.95,9.475,10,10.525,11.05,0.525,0.275,0.25,2.35,10,match,36.05,323,342,361,379,398,9,9,9,9,9,,,,,,,3,0,3,0,0,17,17,25,,,,,,,,,,,,,,5,0.9853795999661088,5,0.2,0.25,9.01073,return,0.9920604999642819,,,,,,,,,,,,,,,,,p317,22,female,left_right_width,2025-12-10_13h37.11.382,exp1,2023.1.0,59.96368599447664,
,,,,,,,,,,,,,,,,4,8.825,9.608333333333333,10.391666666666667,11.175,0,0.7833333333333333,0.5333333333333333,0.25,2.6,10,match,36.05,318,346,375,403,0,9,9,9,9,0,,,,,,,3,0,3,0,0,18,18,5,,,,,,,,,,,,,,4,1.1025775999878533,4,0.4,0.25000000000000006,9.01073,return,1.2985750999650918,,,,,,,,,,,,,,,,,p317,22,female,left_right_width,2025-12-10_13h37.11.382,exp1,2023.1.0,59.96368599447664,
,,,,,,,,,,,,,,,,3,9.3,10,10.7,0,0,0.7,0.44999999999999996,0.25,1.65,10,initial,36.05,335,361,386,0,0,9,9,9,0,0,,,,,,,3,0,3,0,0,19,19,7,,,,,,,,,,,,,,3,1.185062200005632,3,0.35,0.3,10.81288,return,1.5045523000299,,,,,,,,,,,,,,,,,p317,22,female,left_right_width,2025-12-10_13h37.11.382,exp1,2023.1.0,59.96368599447664,
,,,,,,,,,,,,,,,,4,8.95,9.65,10.35,11.05,0,0.7,0.1499999999999999,0.55,2.65,10,initial,36.05,323,348,373,398,0,9,9,9,9,0,,,,,,,3,0,3,0,0,20,20,23,,,,,,,,,,,,,,3,1.809264500043355,3,0.55,0.55,19.82361,return,0.7928146999911405,,,,,,,,,,,,,,,,,p317,22,female,left_right_width,2025-12-10_13h37.11.382,exp1,2023.1.0,59.96368599447664,
,,,,,,,,,,,,,,,,3,8.2,10,11.8,0,0,1.8,1.25,0.55,4.15,10,match,36.05,296,361,425,0,0,9,9,9,0,0,,,,,,,3,0,3,0,0,21,21,47,,,,,,,,,,,,,,3,0.619244399946183,3,0.25,0.44999999999999996,16.21932,return,2.3849274999811314,,,,,,,,,,,,,,,,,p317,22,female,left_right_width,2025-12-10_13h37.11.382,exp1,2023.1.0,59.96368599447664,
,,,,,,,,,,,,,,,,4,9.1,9.7,10.3,10.9,0,0.5999999999999999,0.3499999999999999,0.25,2.05,10,match,36.05,328,350,371,393,0,9,9,9,9,0,,,,,,,3,0,3,0,0,22,22,14,,,,,,,,,,,,,,4,0.661176500027068,4,0.4,0.25000000000000006,9.01073,return,1.7052000999683514,,,,,,,,,,,,,,,,,p317,22,female,left_right_width,2025-12-10_13h37.11.382,exp1,2023.1.0,59.96368599447664,
,,,,,,,,,,,,,,,,5,7.8,8.9,10,11.1,12.2,1.1,0.7000000000000001,0.4,4.800000000000001,10,initial,36.05,281,321,361,400,440,9,9,9,9,9,,,,,,,3,0,3,0,0,23,23,38,,,,,,,,,,,,,,4,0.7805810000281781,4,0.55,0.4,14.41717,return,1.0841735000140034,,,,,,,,,,,,,,,,,p317,22,female,left_right_width,2025-12-10_13h37.11.382,exp1,2023.1.0,59.96368599447664,
,,,,,,,,,,,,,,,,3,9.3,10,10.7,0,0,0.7,0.1499999999999999,0.55,1.95,10,initial,36.05,335,361,386,0,0,9,9,9,0,0,,,,,,,3,0,3,0,0,24,24,6,,,,,,,,,,,,,,3,1.3034378999727778,3,0.45,0.4,14.41717,return,1.074864600028377,,,,,,,,,,,,,,,,,p317,22,female,left_right_width,2025-12-10_13h37.11.382,exp1,2023.1.0,59.96368599447664,
,,,,,,,,,,,,,,,,3,7.8,10,12.2,0,0,2.2,1.9500000000000002,0.25,4.65,10,match,36.05,281,361,440,0,0,9,9,9,0,0,,,,,,,3,0,3,0,0,25,25,37,,,,,,,,,,,,,,3,0.952564200037159,3,0.45,0.25000000000000006,9.01073,return,1.9528346000006422,,,,,,,,,,,,,,,,,p317,22,female,left_right_width,2025-12-10_13h37.11.382,exp1,2023.1.0,59.96368599447664,
,,,,,,,,,,,,,,,,3,8.2,10,11.8,0,0,1.7999999999999998,1.4,0.4,4,10,match,36.05,296,361,425,0,0,9,9,9,0,0,,,,,,,3,0,3,0,0,26,26,51,,,,,,,,,,,,,,3,0.7566845999681391,3,0.2,0.35,12.61502,return,1.3160329000093043,,,,,,,,,,,,,,,,,p317,22,female,left_right_width,2025-12-10_13h37.11.382,exp1,2023.1.0,59.96368599447664,
,,,,,,,,,,,,,,,,4,8.35,9.45,10.55,11.65,0,1.1,0.55,0.55,3.8500000000000005,10,initial,36.05,301,341,380,420,0,9,9,9,9,0,,,,,,,3,0,3,0,0,27,27,17,,,,,,,,,,,,,,4,1.075748700008262,4,0.5,0.45,16.21932,return,1.2066928999847732,,,,,,,,,,,,,,,,,p317,22,female,left_right_width,2025-12-10_13h37.11.382,exp1,2023.1.0,59.96368599447664,
,,,,,,,,,,,,,,,,3,9.1,10,10.9,0,0,0.9,0.35,0.55,2.35,10,initial,36.05,328,361,393,0,0,9,9,9,0,0,,,,,,,3,0,3,0,0,28,28,11,,,,,,,,,,,,,,2,1.866349900024943,2,0.2,0.44999999999999996,16.21932,return,2.19056429999182,,,,,,,,,,,,,,,,,p317,22,female,left_right_width,2025-12-10_13h37.11.382,exp1,2023.1.0,59.96368599447664,
,,,,,,,,,,,,,,,,3,7.800000000000001,10,12.2,0,0,2.1999999999999997,1.7999999999999998,0.4,4.8,10,match,36.05,281,361,440,0,0,9,9,9,0,0,,,,,,,3,0,3,0,0,29,29,39,,,,,,,,,,,,,,3,2.3467680000467226,3,0.55,0.45,16.21932,return,1.1801134999841452,,,,,,,,,,,,,,,,,p317,22,female,left_right_width,2025-12-10_13h37.11.382,exp1,2023.1.0,59.96368599447664,
,,,,,,,,,,,,,,,,3,8.6,10,11.4,0,0,1.4,0.85,0.55,3.35,10,match,36.05,310,361,411,0,0,9,9,9,0,0,,,,,,,3,0,3,0,0,30,30,41,,,,,,,,,,,,,,3,0.613174399943091,3,0.55,0.55,19.82361,return,1.0049414000241086,,,,,,,,,,,,,,,,,p317,22,female,left_right_width,2025-12-10_13h37.11.382,exp1,2023.1.0,59.96368599447664,
,,,,,,,,,,,,,,,,5,8.275,9.1375,10,10.8625,11.725,0.8625,0.6125,0.25,3.7,10,match,36.05,298,329,361,392,423,9,9,9,9,9,,,,,,,3,0,3,0,0,31,31,22,,,,,,,,,,,,,,5,1.1091440999880433,5,0.35,0.3,10.81288,return,0.7756985999876633,,,,,,,,,,,,,,,,,p317,22,female,left_right_width,2025-12-10_13h37.11.382,exp1,2023.1.0,59.96368599447664,
,,,,,,,,,,,,,,,,3,8.6,10,11.4,0,0,1.4,1.15,0.25,3.05,10,match,36.05,310,361,411,0,0,9,9,9,0,0,,,,,,,3,0,3,0,0,32,32,43,,,,,,,,,,,,,,3,0.9007985999924131,3,0.2,0.2,7.20859,return,0.8637295999797061,,,,,,,,,,,,,,,,,p317,22,female,left_right_width,2025-12-10_13h37.11.382,exp1,2023.1.0,59.96368599447664,
,,,,,,,,,,,,,,,,5,8.2,9.1,10,10.9,11.8,0.9,0.65,0.25,3.85,10,initial,36.05,296,328,361,393,425,9,9,9,9,9,,,,,,,3,0,3,0,0,33,33,48,,,,,,,,,,,,,,5,0.8841312999720685,5,0.25,0.2,7.20859,return,0.9288262000191025,,,,,,,,,,,,,,,,,p317,22,female,left_right_width,2025-12-10_13h37.11.382,exp1,2023.1.0,59.96368599447664,
,,,,,,,,,,,,,,,,4,8.95,9.65,10.35,11.05,0,0.7,0.44999999999999996,0.25,2.3499999999999996,10,initial,36.05,323,348,373,398,0,9,9,9,9,0,,,,,,,3,0,3,0,0,34,34,24,,,,,,,,,,,,,,4,0.7536981999874115,4,0.2,0.2,7.20859,return,0.7541813999996521,,,,,,,,,,,,,,,,,p317,22,female,left_right_width,2025-12-10_13h37.11.382,exp1,2023.1.0,59.96368599447664,
,,,,,,,,,,,,,,,,4,8.65,9.55,10.45,11.35,0,0.9,0.5,0.4,3.1,10,initial,36.05,312,344,377,409,0,9,9,9,9,0,,,,,,,3,0,3,0,0,35,35,32,,,,,,,,,,,,,,4,0.8545441000023857,4,0.55,0.35000000000000003,12.61502,return,1.4600716999848373,,,,,,,,,,,,,,,,,p317,22,female,left_right_width,2025-12-10_13h37.11.382,exp1,2023.1.0,59.96368599447664,
,,,,,,,,,,,,,,,,5,8.6,9.3,10,10.7,11.4,0.7,0.29999999999999993,0.4,3.1999999999999997,10,initial,36.05,310,335,361,386,411,9,9,9,9,9,,,,,,,3,0,3,0,0,36,36,44,,,,,,,,,,,,,,4,0.8159985999809578,4,0.3,0.39999999999999997,14.41717,return,1.791821599996183,,,,,,,,,,,,,,,,,p317,22,female,left_right_width,2025-12-10_13h37.11.382,exp1,2023.1.0,59.96368599447664,
,,,,,,,,,,,,,,,,3,8.9,10,11.1,0,0,1.1,0.7000000000000001,0.4,2.6000000000000005,10,initial,36.05,321,361,400,0,0,9,9,9,0,0,,,,,,,3,0,3,0,0,37,37,4,,,,,,,,,,,,,,3,1.0566187999793328,3,0.35,0.3,10.81288,return,0.9493074999772944,,,,,,,,,,,,,,,,,p317,22,female,left_right_width,2025-12-10_13h37.11.382,exp1,2023.1.0,59.96368599447664,
,,,,,,,,,,,,,,,,4,8.65,9.55,10.45,11.35,0,0.9,0.35,0.55,3.25,10,initial,36.05,312,344,377,409,0,9,9,9,9,0,,,,,,,3,0,3,0,0,38,38,28,,,,,,,,,,,,,,4,0.7933082000236027,4,0.2,0.35,12.61502,return,1.8322623999556527,,,,,,,,,,,,,,,,,p317,22,female,left_right_width,2025-12-10_13h37.11.382,exp1,2023.1.0,59.96368599447664,
,,,,,,,,,,,,,,,,4,9.1,9.7,10.3,10.9,0,0.6,0.04999999999999997,0.55,2.35,10,match,36.05,328,350,371,393,0,9,9,9,9,0,,,,,,,3,0,3,0,0,39,39,12,,,,,,,,,,,,,,4,0.7996203000075184,4,0.45,0.5,18.02146,return,1.4071545000188053,,,,,,,,,,,,,,,,,p317,22,female,left_right_width,2025-12-10_13h37.11.382,exp1,2023.1.0,59.96368599447664,
,,,,,,,,,,,,,,,,4,8.65,9.55,10.45,11.35,0,0.9,0.65,0.25,2.95,10,initial,36.05,312,344,377,409,0,9,9,9,9,0,,,,,,,3,0,3,0,0,40,40,30,,,,,,,,,,,,,,4,0.6862265000236221,4,0.2,0.2,7.20859,return,1.0735412999638356,,,,,,,,,,,,,,,,,p317,22,female,left_right_width,2025-12-10_13h37.11.382,exp1,2023.1.0,59.96368599447664,
,,,,,,,,,,,,,,,,5,8.2,9.1,10,10.9,11.8,0.9,0.5,0.4,4,10,initial,36.05,296,328,361,393,425,9,9,9,9,9,,,,,,,3,0,3,0,0,41,41,50,,,,,,,,,,,,,,6,1.4822243000380695,6,0.25,0.25,9.01073,return,1.1659609000198543,,,,,,,,,,,,,,,,,p317,22,female,left_right_width,2025-12-10_13h37.11.382,exp1,2023.1.0,59.96368599447664,
,,,,,,,,,,,,,,,,4,9.3,9.766666666666667,10.233333333333333,10.7,0,0.4666666666666667,0.06666666666666665,0.4,1.8,10,match,36.05,335,352,369,386,0,9,9,9,9,0,,,,,,,3,0,3,0,0,42,42,10,,,,,,,,,,,,,,4,0.7762116999947466,4,0.25,0.3,10.81288,return,1.159330599999521,,,,,,,,,,,,,,,,,p317,22,female,left_right_width,2025-12-10_13h37.11.382,exp1,2023.1.0,59.96368599447664,
,,,,,,,,,,,,,,,,5,8.2,9.1,10,10.9,11.8,0.9,0.35,0.55,4.15,10,initial,36.05,296,328,361,393,425,9,9,9,9,9,,,,,,,3,0,3,0,0,43,43,46,,,,,,,,,,,,,,5,1.0307475999579765,5,0.3,0.3,10.81288,return,0.7812340999953449,,,,,,,,,,,,,,,,,p317,22,female,left_right_width,2025-12-10_13h37.11.382,exp1,2023.1.0,59.96368599447664,
,,,,,,,,,,,,,,,,3,8.2,10,11.8,0,0,1.8,1.55,0.25,3.85,10,match,36.05,296,361,425,0,0,9,9,9,0,0,,,,,,,3,0,3,0,0,44,44,49,,,,,,,,,,,,,,3,0.7680967999622226,3,0.3,0.3,10.81288,return,1.0083689999883063,,,,,,,,,,,,,,,,,p317,22,female,left_right_width,2025-12-10_13h37.11.382,exp1,2023.1.0,59.96368599447664,
,,,,,,,,,,,,,,,,5,7.8,8.9,10,11.1,12.2,1.1,0.55,0.55,4.95,10,initial,36.05,281,321,361,400,440,9,9,9,9,9,,,,,,,3,0,3,0,0,45,45,34,,,,,,,,,,,,,,5,0.9217713999678381,5,0.55,0.4,14.41717,return,1.331769999989774,,,,,,,,,,,,,,,,,p317,22,female,left_right_width,2025-12-10_13h37.11.382,exp1,2023.1.0,59.96368599447664,
,,,,,,,,,,,,,,,,3,8.9,10,11.1,0,0,1.1,0.55,0.55,2.75,10,initial,36.05,321,361,400,0,0,9,9,9,0,0,,,,,,,3,0,3,0,0,46,46,0,,,,,,,,,,,,,,3,1.0317424000240862,3,0.2,0.35,12.61502,return,1.53259049996268,,,,,,,,,,,,,,,,,p317,22,female,left_right_width,2025-12-10_13h37.11.382,exp1,2023.1.0,59.96368599447664,
,,,,,,,,,,,,,,,,3,9.1,10,10.9,0,0,0.9,0.65,0.25,2.05,10,initial,36.05,328,361,393,0,0,9,9,9,0,0,,,,,,,3,0,3,0,0,47,47,13,,,,,,,,,,,,,,2,1.4572245000163093,2,0.3,0.35,12.61502,return,1.0939952000044286,,,,,,,,,,,,,,,,,p317,22,female,left_right_width,2025-12-10_13h37.11.382,exp1,2023.1.0,59.96368599447664,
,,,,,,,,,,,,,,,,3,9.3,10,10.7,0,0,0.7,0.29999999999999993,0.4,1.8,10,initial,36.05,335,361,386,0,0,9,9,9,0,0,,,,,,,3,0,3,0,0,48,48,9,,,,,,,,,,,,,,3,1.9526567999855615,3,0.45,0.4,14.41717,return,1.393268599989824,,,,,,,,,,,,,,,,,p317,22,female,left_right_width,2025-12-10_13h37.11.382,exp1,2023.1.0,59.96368599447664,
,,,,,,,,,,,,,,,,5,8.65,9.325,10,10.675,11.35,0.675,0.275,0.4,3.1,10,match,36.05,312,336,361,385,409,9,9,9,9,9,,,,,,,3,0,3,0,0,49,49,33,,,,,,,,,,,,,,4,0.9829058999894187,4,0.55,0.4,14.41717,return,1.167502699943725,,,,,,,,,,,,,,,,,p317,22,female,left_right_width,2025-12-10_13h37.11.382,exp1,2023.1.0,59.96368599447664,
,,,,,,,,,,,,,,,,5,8.65,9.325,10,10.675,11.35,0.675,0.125,0.55,3.25,10,match,36.05,312,336,361,385,409,9,9,9,9,9,,,,,,,3,0,3,0,0,50,50,29,,,,,,,,,,,,,,4,0.6421273999731056,4,0.3,0.39999999999999997,14.41717,return,1.7824835000210442,,,,,,,,,,,,,,,,,p317,22,female,left_right_width,2025-12-10_13h37.11.382,exp1,2023.1.0,59.96368599447664,
,,,,,,,,,,,,,,,,4,8.35,9.45,10.55,11.65,0,1.1,0.8500000000000001,0.25,3.5500000000000003,10,initial,36.05,301,341,380,420,0,9,9,9,9,0,,,,,,,3,0,3,0,0,51,51,19,,,,,,,,,,,,,,4,0.759358000010252,4,0.2,0.2,7.20859,return,1.0799304000101984,,,,,,,,,,,,,,,,,p317,22,female,left_right_width,2025-12-10_13h37.11.382,exp1,2023.1.0,59.96368599447664,
,,,,,,,,,,,,,,,,,,,,,,,,,,,,,,,,,,,,,,,,,,,,,3,0,3,0,,,,,,,,,,,,,,,,,,,,,,,,,,,,1357.0524957000162,1357.0524957000162,1357.0524957000162,,,,,,,,,,,,p317,22,female,left_right_width,2025-12-10_13h37.11.382,exp1,2023.1.0,59.96368599447664,
,,,,,,,,,,,,,,,,3,8.9,10,11.1,0,0,1.1,0.7000000000000001,0.4,2.6000000000000005,10,initial,36.05,321,361,400,0,0,9,9,9,0,0,,,,,,,4,0,4,0,0,0,0,4,,,,,,,,,,,,,,4,0.7494357000105083,4,0.5,0.35000000000000003,12.61502,return,1.6310327999526635,,,,,,,,,,,,,,,,,p317,22,female,left_right_width,2025-12-10_13h37.11.382,exp1,2023.1.0,59.96368599447664,
,,,,,,,,,,,,,,,,3,8.6,10,11.4,0,0,1.4,0.85,0.55,3.35,10,match,36.05,310,361,411,0,0,9,9,9,0,0,,,,,,,4,0,4,0,0,1,1,41,,,,,,,,,,,,,,3,0.730816200026311,3,0.5,0.45,16.21932,return,1.0198076000087894,,,,,,,,,,,,,,,,,p317,22,female,left_right_width,2025-12-10_13h37.11.382,exp1,2023.1.0,59.96368599447664,
,,,,,,,,,,,,,,,,5,7.8,8.9,10,11.1,12.2,1.1,0.8500000000000001,0.25,4.65,10,initial,36.05,281,321,361,400,440,9,9,9,9,9,,,,,,,4,0,4,0,0,2,2,36,,,,,,,,,,,,,,5,0.775249199999962,5,0.5,0.30000000000000004,10.81288,return,1.3829049000050873,,,,,,,,,,,,,,,,,p317,22,female,left_right_width,2025-12-10_13h37.11.382,exp1,2023.1.0,59.96368599447664,
,,,,,,,,,,,,,,,,5,8.35,9.175,10,10.825,11.65,0.825,0.575,0.25,3.55,10,match,36.05,301,331,361,390,420,9,9,9,9,9,,,,,,,4,0,4,0,0,3,3,20,,,,,,,,,,,,,,5,1.113195700047072,5,0.45,0.25000000000000006,9.01073,return,1.355032299994491,,,,,,,,,,,,,,,,,p317,22,female,left_right_width,2025-12-10_13h37.11.382,exp1,2023.1.0,59.96368599447664,
,,,,,,,,,,,,,,,,4,8.65,9.55,10.45,11.35,0,0.9,0.5,0.4,3.1,10,initial,36.05,312,344,377,409,0,9,9,9,9,0,,,,,,,4,0,4,0,0,4,4,32,,,,,,,,,,,,,,4,1.3426810000091791,4,0.3,0.3,10.81288,return,0.8884002999984659,,,,,,,,,,,,,,,,,p317,22,female,left_right_width,2025-12-10_13h37.11.382,exp1,2023.1.0,59.96368599447664,
,,,,,,,,,,,,,,,,3,9.1,10,10.9,0,0,0.9,0.5,0.4,2.2,10,initial,36.05,328,361,393,0,0,9,9,9,0,0,,,,,,,4,0,4,0,0,5,5,15,,,,,,,,,,,,,,3,0.5727520000073127,3,0.2,0.3,10.81288,return,1.2371509000076912,,,,,,,,,,,,,,,,,p317,22,female,left_right_width,2025-12-10_13h37.11.382,exp1,2023.1.0,59.96368599447664,
,,,,,,,,,,,,,,,,4,8.95,9.65,10.35,11.05,0,0.7,0.44999999999999996,0.25,2.3499999999999996,10,initial,36.05,323,348,373,398,0,9,9,9,9,0,,,,,,,4,0,4,0,0,6,6,24,,,,,,,,,,,,,,4,0.835156699991785,4,0.25,0.2,7.20859,return,1.4738012999878265,,,,,,,,,,,,,,,,,p317,22,female,left_right_width,2025-12-10_13h37.11.382,exp1,2023.1.0,59.96368599447664,
,,,,,,,,,,,,,,,,3,9.1,10,10.9,0,0,0.9,0.65,0.25,2.05,10,initial,36.05,328,361,393,0,0,9,9,9,0,0,,,,,,,4,0,4,0,0,7,7,13,,,,,,,,,,,,,,3,0.6599921000306495,3,0.25,0.2,7.20859,return,1.4155647999723442,,,,,,,,,,,,,,,,,p317,22,female,left_right_width,2025-12-10_13h37.11.382,exp1,2023.1.0,59.96368599447664,
,,,,,,,,,,,,,,,,4,8.9,9.633333333333333,10.366666666666667,11.1,0,0.7333333333333333,0.18333333333333326,0.55,2.75,10,match,36.05,321,347,374,400,0,9,9,9,9,0,,,,,,,4,0,4,0,0,8,8,1,,,,,,,,,,,,,,3,1.8588504000217654,3,0.45,0.45,16.21932,return,0.759124000032898,,,,,,,,,,,,,,,,,p317,22,female,left_right_width,2025-12-10_13h37.11.382,exp1,2023.1.0,59.96368599447664,
,,,,,,,,,,,,,,,,4,8.95,9.65,10.35,11.05,0,0.7,0.29999999999999993,0.4,2.5,10,initial,36.05,323,348,373,398,0,9,9,9,9,0,,,,,,,4,0,4,0,0,9,9,26,,,,,,,,,,,,,,4,1.279890199948568,4,0.55,0.45,16.21932,return,1.0513982999837026,,,,,,,,,,,,,,,,,p317,22,female,left_right_width,2025-12-10_13h37.11.382,exp1,2023.1.0,59.96368599447664,
,,,,,,,,,,,,,,,,5,8.65,9.325,10,10.675,11.35,0.675,0.42500000000000004,0.25,2.95,10,match,36.05,312,336,361,385,409,9,9,9,9,9,,,,,,,4,0,4,0,0,10,10,31,,,,,,,,,,,,,,4,1.2025375999510288,4,0.55,0.25000000000000006,9.01073,return,1.7458215999649838,,,,,,,,,,,,,,,,,p317,22,female,left_right_width,2025-12-10_13h37.11.382,exp1,2023.1.0,59.96368599447664,
,,,,,,,,,,,,,,,,3,9.1,10,10.9,0,0,0.9,0.35,0.55,2.35,10,initial,36.05,328,361,393,0,0,9,9,9,0,0,,,,,,,4,0,4,0,0,11,11,11,,,,,,,,,,,,,,4,0.6320601999759674,4,0.2,0.39999999999999997,14.41717,return,1.9351004000054672,,,,,,,,,,,,,,,,,p317,22,female,left_right_width,2025-12-10_13h37.11.382,exp1,2023.1.0,59.96368599447664,
,,,,,,,,,,,,,,,,3,8.2,10,11.8,0,0,1.8,1.25,0.55,4.15,10,match,36.05,296,361,425,0,0,9,9,9,0,0,,,,,,,4,0,4,0,0,12,12,47,,,,,,,,,,,,,,3,0.9570895999786444,3,0.5,0.45,16.21932,return,1.1905169999809004,,,,,,,,,,,,,,,,,p317,22,female,left_right_width,2025-12-10_13h37.11.382,exp1,2023.1.0,59.96368599447664,
,,,,,,,,,,,,,,,,5,8.2,9.1,10,10.9,11.8,0.9,0.5,0.4,4,10,initial,36.05,296,328,361,393,425,9,9,9,9,9,,,,,,,4,0,4,0,0,13,13,50,,,,,,,,,,,,,,5,0.9221565999905579,5,0.2,0.35,12.61502,return,1.7639045999967493,,,,,,,,,,,,,,,,,p317,22,female,left_right_width,2025-12-10_13h37.11.382,exp1,2023.1.0,59.96368599447664,
,,,,,,,,,,,,,,,,3,9.3,10,10.7,0,0,0.7,0.1499999999999999,0.55,1.95,10,initial,36.05,335,361,386,0,0,9,9,9,0,0,,,,,,,4,0,4,0,0,14,14,6,,,,,,,,,,,,,,3,1.0764640999841504,3,0.3,0.35,12.61502,return,1.3685705999960192,,,,,,,,,,,,,,,,,p317,22,female,left_right_width,2025-12-10_13h37.11.382,exp1,2023.1.0,59.96368599447664,
,,,,,,,,,,,,,,,,3,8.6,10,11.4,0,0,1.4,1.15,0.25,3.05,10,match,36.05,310,361,411,0,0,9,9,9,0,0,,,,,,,4,0,4,0,0,15,15,43,,,,,,,,,,,,,,3,0.9472528999904171,3,0.35,0.3,10.81288,return,0.9559078000020236,,,,,,,,,,,,,,,,,p317,22,female,left_right_width,2025-12-10_13h37.11.382,exp1,2023.1.0,59.96368599447664,
,,,,,,,,,,,,,,,,4,8.825,9.608333333333333,10.391666666666667,11.175,0,0.7833333333333333,0.5333333333333333,0.25,2.6,10,match,36.05,318,346,375,403,0,9,9,9,9,0,,,,,,,4,0,4,0,0,16,16,5,,,,,,,,,,,,,,4,0.9247391999815591,4,0.3,0.25,9.01073,return,1.2698344999807887,,,,,,,,,,,,,,,,,p317,22,female,left_right_width,2025-12-10_13h37.11.382,exp1,2023.1.0,59.96368599447664,
,,,,,,,,,,,,,,,,4,8.9,9.633333333333333,10.366666666666667,11.1,0,0.7333333333333334,0.4833333333333334,0.25,2.45,10,match,36.05,321,347,374,400,0,9,9,9,9,0,,,,,,,4,0,4,0,0,17,17,3,,,,,,,,,,,,,,5,1.168467600014992,5,0.5,0.20000000000000007,7.20859,return,2.0320162000134587,,,,,,,,,,,,,,,,,p317,22,female,left_right_width,2025-12-10_13h37.11.382,exp1,2023.1.0,59.96368599447664,
,,,,,,,,,,,,,,,,4,9.1,9.7,10.3,10.9,0,0.6000000000000001,0.20000000000000004,0.4,2.2,10,match,36.05,328,350,371,393,0,9,9,9,9,0,,,,,,,4,0,4,0,0,18,18,16,,,,,,,,,,,,,,3,2.4010998000157997,3,0.45,0.30000000000000004,10.81288,return,1.4386386999976821,,,,,,,,,,,,,,,,,p317,22,female,left_right_width,2025-12-10_13h37.11.382,exp1,2023.1.0,59.96368599447664,
,,,,,,,,,,,,,,,,3,8.2,10,11.8,0,0,1.7999999999999998,1.4,0.4,4,10,match,36.05,296,361,425,0,0,9,9,9,0,0,,,,,,,4,0,4,0,0,19,19,51,,,,,,,,,,,,,,3,0.5663316000136547,3,0.3,0.39999999999999997,14.41717,return,1.7426024000160396,,,,,,,,,,,,,,,,,p317,22,female,left_right_width,2025-12-10_13h37.11.382,exp1,2023.1.0,59.96368599447664,
,,,,,,,,,,,,,,,,3,7.800000000000001,10,12.2,0,0,2.1999999999999997,1.7999999999999998,0.4,4.8,10,match,36.05,281,361,440,0,0,9,9,9,0,0,,,,,,,4,0,4,0,0,20,20,39,,,,,,,,,,,,,,3,0.9544652999611571,3,0.35,0.39999999999999997,14.41717,return,1.1387934999656864,,,,,,,,,,,,,,,,,p317,22,female,left_right_width,2025-12-10_13h37.11.382,exp1,2023.1.0,59.96368599447664,
,,,,,,,,,,,,,,,,4,9.1,9.7,10.3,10.9,0,0.5999999999999999,0.3499999999999999,0.25,2.05,10,match,36.05,328,350,371,393,0,9,9,9,9,0,,,,,,,4,0,4,0,0,21,21,14,,,,,,,,,,,,,,4,0.695248999982141,4,0.3,0.25,9.01073,return,0.7787075000233017,,,,,,,,,,,,,,,,,p317,22,female,left_right_width,2025-12-10_13h37.11.382,exp1,2023.1.0,59.96368599447664,
,,,,,,,,,,,,,,,,5,8.95,9.475,10,10.525,11.05,0.525,0.275,0.25,2.35,10,match,36.05,323,342,361,379,398,9,9,9,9,9,,,,,,,4,0,4,0,0,22,22,25,,,,,,,,,,,,,,4,1.7071964999777265,4,0.4,0.30000000000000004,10.81288,return,1.1271377999801189,,,,,,,,,,,,,,,,,p317,22,female,left_right_width,2025-12-10_13h37.11.382,exp1,2023.1.0,59.96368599447664,
,,,,,,,,,,,,,,,,3,8.525,10,11.475,0,0,1.475,1.225,0.25,3.2,10,match,36.05,307,361,414,0,0,9,9,9,0,0,,,,,,,4,0,4,0,0,23,23,45,,,,,,,,,,,,,,3,1.0841209999634884,3,0.4,0.35000000000000003,12.61502,return,1.2482260999968275,,,,,,,,,,,,,,,,,p317,22,female,left_right_width,2025-12-10_13h37.11.382,exp1,2023.1.0,59.96368599447664,
,,,,,,,,,,,,,,,,4,8.95,9.65,10.35,11.05,0,0.7,0.1499999999999999,0.55,2.65,10,initial,36.05,323,348,373,398,0,9,9,9,9,0,,,,,,,4,0,4,0,0,24,24,23,,,,,,,,,,,,,,3,1.707431800023187,3,0.2,0.44999999999999996,16.21932,return,2.949270399985835,,,,,,,,,,,,,,,,,p317,22,female,left_right_width,2025-12-10_13h37.11.382,exp1,2023.1.0,59.96368599447664,
,,,,,,,,,,,,,,,,5,8.2,9.1,10,10.9,11.8,0.9,0.65,0.25,3.85,10,initial,36.05,296,328,361,393,425,9,9,9,9,9,,,,,,,4,0,4,0,0,25,25,48,,,,,,,,,,,,,,5,1.0276816000114195,5,0.4,0.30000000000000004,10.81288,return,1.160492799943313,,,,,,,,,,,,,,,,,p317,22,female,left_right_width,2025-12-10_13h37.11.382,exp1,2023.1.0,59.96368599447664,
,,,,,,,,,,,,,,,,3,8.9,10,11.1,0,0,1.1,0.8500000000000001,0.25,2.45,10,initial,36.05,321,361,400,0,0,9,9,9,0,0,,,,,,,4,0,4,0,0,26,26,2,,,,,,,,,,,,,,3,0.909144599980209,3,0.3,0.25,9.01073,return,0.7608953000162728,,,,,,,,,,,,,,,,,p317,22,female,left_right_width,2025-12-10_13h37.11.382,exp1,2023.1.0,59.96368599447664,
,,,,,,,,,,,,,,,,5,8.6,9.3,10,10.7,11.4,0.7,0.44999999999999996,0.25,3.05,10,initial,36.05,310,335,361,386,411,9,9,9,9,9,,,,,,,4,0,4,0,0,27,27,42,,,,,,,,,,,,,,4,0.9093599999905564,4,0.25,0.2,7.20859,return,1.0325187999987975,,,,,,,,,,,,,,,,,p317,22,female,left_right_width,2025-12-10_13h37.11.382,exp1,2023.1.0,59.96368599447664,
,,,,,,,,,,,,,,,,4,9.3,9.766666666666667,10.233333333333333,10.7,0,0.4666666666666667,0.21666666666666665,0.25,1.65,10,match,36.05,335,352,369,386,0,9,9,9,9,0,,,,,,,4,0,4,0,0,28,28,8,,,,,,,,,,,,,,4,0.7195159000111744,4,0.3,0.25,9.01073,return,1.5211452000075951,,,,,,,,,,,,,,,,,p317,22,female,left_right_width,2025-12-10_13h37.11.382,exp1,2023.1.0,59.96368599447664,
,,,,,,,,,,,,,,,,4,8.35,9.45,10.55,11.65,0,1.1,0.55,0.55,3.8500000000000005,10,initial,36.05,301,341,380,420,0,9,9,9,9,0,,,,,,,4,0,4,0,0,29,29,17,,,,,,,,,,,,,,4,0.8619399000308476,4,0.45,0.45,16.21932,return,0.8431674999883398,,,,,,,,,,,,,,,,,p317,22,female,left_right_width,2025-12-10_13h37.11.382,exp1,2023.1.0,59.96368599447664,
,,,,,,,,,,,,,,,,5,8.6,9.3,10,10.7,11.4,0.7,0.29999999999999993,0.4,3.1999999999999997,10,initial,36.05,310,335,361,386,411,9,9,9,9,9,,,,,,,4,0,4,0,0,30,30,44,,,,,,,,,,,,,,5,0.9492351000080816,5,0.55,0.5,18.02146,return,1.1187705000047572,,,,,,,,,,,,,,,,,p317,22,female,left_right_width,2025-12-10_13h37.11.382,exp1,2023.1.0,59.96368599447664,
,,,,,,,,,,,,,,,,3,9.3,10,10.7,0,0,0.7,0.29999999999999993,0.4,1.8,10,initial,36.05,335,361,386,0,0,9,9,9,0,0,,,,,,,4,0,4,0,0,31,31,9,,,,,,,,,,,,,,3,0.9277417999692261,3,0.45,0.4,14.41717,return,1.0978164999978617,,,,,,,,,,,,,,,,,p317,22,female,left_right_width,2025-12-10_13h37.11.382,exp1,2023.1.0,59.96368599447664,
,,,,,,,,,,,,,,,,3,8.2,10,11.8,0,0,1.8,1.55,0.25,3.85,10,match,36.05,296,361,425,0,0,9,9,9,0,0,,,,,,,4,0,4,0,0,32,32,49,,,,,,,,,,,,,,3,0.5343471000087447,3,0.5,0.20000000000000007,7.20859,return,1.7604988999664783,,,,,,,,,,,,,,,,,p317,22,female,left_right_width,2025-12-10_13h37.11.382,exp1,2023.1.0,59.96368599447664,
,,,,,,,,,,,,,,,,5,8.65,9.325,10,10.675,11.35,0.675,0.125,0.55,3.25,10,match,36.05,312,336,361,385,409,9,9,9,9,9,,,,,,,4,0,4,0,0,33,33,29,,,,,,,,,,,,,,4,0.6519546000054106,4,0.4,0.35000000000000003,12.61502,return,0.9459738000296056,,,,,,,,,,,,,,,,,p317,22,female,left_right_width,2025-12-10_13h37.11.382,exp1,2023.1.0,59.96368599447664,
,,,,,,,,,,,,,,,,5,8.275,9.1375,10,10.8625,11.725,0.8625,0.6125,0.25,3.7,10,match,36.05,298,329,361,392,423,9,9,9,9,9,,,,,,,4,0,4,0,0,34,34,22,,,,,,,,,,,,,,5,0.9258253999869339,5,0.35,0.3,10.81288,return,1.1935524999862537,,,,,,,,,,,,,,,,,p317,22,female,left_right_width,2025-12-10_13h37.11.382,exp1,2023.1.0,59.96368599447664,
,,,,,,,,,,,,,,,,4,9.3,9.766666666666667,10.233333333333333,10.7,0,0.4666666666666667,0.06666666666666665,0.4,1.8,10,match,36.05,335,352,369,386,0,9,9,9,9,0,,,,,,,4,0,4,0,0,35,35,10,,,,,,,,,,,,,,4,0.6841411999776028,4,0.2,0.39999999999999997,14.41717,return,1.7917047999799252,,,,,,,,,,,,,,,,,p317,22,female,left_right_width,2025-12-10_13h37.11.382,exp1,2023.1.0,59.96368599447664,
,,,,,,,,,,,,,,,,5,8.2,9.1,10,10.9,11.8,0.9,0.35,0.55,4.15,10,initial,36.05,296,328,361,393,425,9,9,9,9,9,,,,,,,4,0,4,0,0,36,36,46,,,,,,,,,,,,,,5,1.2486803999636322,5,0.3,0.35,12.61502,return,1.6144276999984868,,,,,,,,,,,,,,,,,p317,22,female,left_right_width,2025-12-10_13h37.11.382,exp1,2023.1.0,59.96368599447664,
,,,,,,,,,,,,,,,,4,8.65,9.55,10.45,11.35,0,0.9,0.35,0.55,3.25,10,initial,36.05,312,344,377,409,0,9,9,9,9,0,,,,,,,4,0,4,0,0,37,37,28,,,,,,,,,,,,,,4,0.559148499974981,4,0.45,0.45,16.21932,return,0.7758927999529988,,,,,,,,,,,,,,,,,p317,22,female,left_right_width,2025-12-10_13h37.11.382,exp1,2023.1.0,59.96368599447664,
,,,,,,,,,,,,,,,,3,8.9,10,11.1,0,0,1.1,0.55,0.55,2.75,10,initial,36.05,321,361,400,0,0,9,9,9,0,0,,,,,,,4,0,4,0,0,38,38,0,,,,,,,,,,,,,,3,0.5876103999908082,3,0.2,0.39999999999999997,14.41717,return,1.8580868000281043,,,,,,,,,,,,,,,,,p317,22,female,left_right_width,2025-12-10_13h37.11.382,exp1,2023.1.0,59.96368599447664,
,,,,,,,,,,,,,,,,5,8.35,9.175,10,10.825,11.65,0.8250000000000001,0.275,0.55,3.85,10,match,36.05,301,331,361,390,420,9,9,9,9,9,,,,,,,4,0,4,0,0,39,39,18,,,,,,,,,,,,,,5,1.0765742000075988,5,0.4,0.4,14.41717,return,0.712596700002905,,,,,,,,,,,,,,,,,p317,22,female,left_right_width,2025-12-10_13h37.11.382,exp1,2023.1.0,59.96368599447664,
,,,,,,,,,,,,,,,,4,8.35,9.45,10.55,11.65,0,1.1,0.8500000000000001,0.25,3.5500000000000003,10,initial,36.05,301,341,380,420,0,9,9,9,9,0,,,,,,,4,0,4,0,0,40,40,19,,,,,,,,,,,,,,4,0.7676337999873795,4,0.25,0.25,9.01073,return,0.6871290000271983,,,,,,,,,,,,,,,,,p317,22,female,left_right_width,2025-12-10_13h37.11.382,exp1,2023.1.0,59.96368599447664,
,,,,,,,,,,,,,,,,5,8.95,9.475,10,10.525,11.05,0.525,0.125,0.4,2.5,10,match,36.05,323,342,361,379,398,9,9,9,9,9,,,,,,,4,0,4,0,0,41,41,27,,,,,,,,,,,,,,4,0.6457561000133865,4,0.45,0.45,16.21932,return,0.28243229998042807,,,,,,,,,,,,,,,,,p317,22,female,left_right_width,2025-12-10_13h37.11.382,exp1,2023.1.0,59.96368599447664,
,,,,,,,,,,,,,,,,5,8.65,9.325,10,10.675,11.35,0.675,0.275,0.4,3.1,10,match,36.05,312,336,361,385,409,9,9,9,9,9,,,,,,,4,0,4,0,0,42,42,33,,,,,,,,,,,,,,4,1.1291218000114895,4,0.45,0.35000000000000003,12.61502,return,0.954297799966298,,,,,,,,,,,,,,,,,p317,22,female,left_right_width,2025-12-10_13h37.11.382,exp1,2023.1.0,59.96368599447664,
,,,,,,,,,,,,,,,,4,8.35,9.45,10.55,11.65,0,1.1,0.7000000000000001,0.4,3.7,10,initial,36.05,301,341,380,420,0,9,9,9,9,0,,,,,,,4,0,4,0,0,43,43,21,,,,,,,,,,,,,,4,0.871088299958501,4,0.3,0.3,10.81288,return,2.275786399957724,,,,,,,,,,,,,,,,,p317,22,female,left_right_width,2025-12-10_13h37.11.382,exp1,2023.1.0,59.96368599447664,
,,,,,,,,,,,,,,,,5,7.8,8.9,10,11.1,12.2,1.1,0.7000000000000001,0.4,4.800000000000001,10,initial,36.05,281,321,361,400,440,9,9,9,9,9,,,,,,,4,0,4,0,0,44,44,38,,,,,,,,,,,,,,5,1.17782929999521,5,0.25,0.25,9.01073,return,0.9369219000218436,,,,,,,,,,,,,,,,,p317,22,female,left_right_width,2025-12-10_13h37.11.382,exp1,2023.1.0,59.96368599447664,
,,,,,,,,,,,,,,,,3,9.3,10,10.7,0,0,0.7,0.44999999999999996,0.25,1.65,10,initial,36.05,335,361,386,0,0,9,9,9,0,0,,,,,,,4,0,4,0,0,45,45,7,,,,,,,,,,,,,,3,1.5495027000433765,3,0.45,0.25000000000000006,9.01073,return,1.4058233000105247,,,,,,,,,,,,,,,,,p317,22,female,left_right_width,2025-12-10_13h37.11.382,exp1,2023.1.0,59.96368599447664,
,,,,,,,,,,,,,,,,3,7.8,10,12.2,0,0,2.2,1.9500000000000002,0.25,4.65,10,match,36.05,281,361,440,0,0,9,9,9,0,0,,,,,,,4,0,4,0,0,46,46,37,,,,,,,,,,,,,,3,1.2949907000293024,3,0.55,0.30000000000000004,10.81288,return,2.0258717000251636,,,,,,,,,,,,,,,,,p317,22,female,left_right_width,2025-12-10_13h37.11.382,exp1,2023.1.0,59.96368599447664,
,,,,,,,,,,,,,,,,4,9.1,9.7,10.3,10.9,0,0.6,0.04999999999999997,0.55,2.35,10,match,36.05,328,350,371,393,0,9,9,9,9,0,,,,,,,4,0,4,0,0,47,47,12,,,,,,,,,,,,,,3,1.322634000040125,3,0.25,0.49999999999999994,18.02146,return,2.499740800005384,,,,,,,,,,,,,,,,,p317,22,female,left_right_width,2025-12-10_13h37.11.382,exp1,2023.1.0,59.96368599447664,
,,,,,,,,,,,,,,,,5,7.8,8.9,10,11.1,12.2,1.1,0.55,0.55,4.95,10,initial,36.05,281,321,361,400,440,9,9,9,9,9,,,,,,,4,0,4,0,0,48,48,34,,,,,,,,,,,,,,5,0.9219592999434099,5,0.4,0.4,14.41717,return,0.7227205999661237,,,,,,,,,,,,,,,,,p317,22,female,left_right_width,2025-12-10_13h37.11.382,exp1,2023.1.0,59.96368599447664,
,,,,,,,,,,,,,,,,4,8.65,9.55,10.45,11.35,0,0.9,0.65,0.25,2.95,10,initial,36.05,312,344,377,409,0,9,9,9,9,0,,,,,,,4,0,4,0,0,49,49,30,,,,,,,,,,,,,,4,0.5599996999953873,4,0.4,0.30000000000000004,10.81288,return,0.999787800014019,,,,,,,,,,,,,,,,,p317,22,female,left_right_width,2025-12-10_13h37.11.382,exp1,2023.1.0,59.96368599447664,
,,,,,,,,,,,,,,,,3,7.8,10,12.2,0,0,2.2,1.65,0.55,4.95,10,match,36.05,281,361,440,0,0,9,9,9,0,0,,,,,,,4,0,4,0,0,50,50,35,,,,,,,,,,,,,,3,0.9508797000162303,3,0.25,0.39999999999999997,14.41717,return,1.8393520999816246,,,,,,,,,,,,,,,,,p317,22,female,left_right_width,2025-12-10_13h37.11.382,exp1,2023.1.0,59.96368599447664,
,,,,,,,,,,,,,,,,5,8.6,9.3,10,10.7,11.4,0.7,0.1499999999999999,0.55,3.3499999999999996,10,initial,36.05,310,335,361,386,411,9,9,9,9,9,,,,,,,4,0,4,0,0,51,51,40,,,,,,,,,,,,,,4,0.6906410999945365,4,0.5,0.45,16.21932,return,1.175205699983053,,,,,,,,,,,,,,,,,p317,22,female,left_right_width,2025-12-10_13h37.11.382,exp1,2023.1.0,59.96368599447664,
,,,,,,,,,,,,,,,,,,,,,,,,,,,,,,,,,,,,,,,,,,,,,4,0,4,0,,,,,,,,,,,,,,,,,,,,,,,,,,,,1575.9856233000173,1575.9856233000173,1575.9856233000173,,,,,,,,,,,,p317,22,female,left_right_width,2025-12-10_13h37.11.382,exp1,2023.1.0,59.96368599447664,
,,,,,,,,,,,,,,,,4,8.35,9.45,10.55,11.65,0,1.1,0.8500000000000001,0.25,3.5500000000000003,10,initial,36.05,301,341,380,420,0,9,9,9,9,0,,,,,,,5,0,5,0,0,0,0,19,,,,,,,,,,,,,,3,1.1071207000059076,3,0.5,0.25000000000000006,9.01073,return,3.685538399964571,,,,,,,,,,,,,,,,,p317,22,female,left_right_width,2025-12-10_13h37.11.382,exp1,2023.1.0,59.96368599447664,
,,,,,,,,,,,,,,,,5,8.65,9.325,10,10.675,11.35,0.675,0.125,0.55,3.25,10,match,36.05,312,336,361,385,409,9,9,9,9,9,,,,,,,5,0,5,0,0,1,1,29,,,,,,,,,,,,,,4,0.6994638000032865,4,0.45,0.45,16.21932,return,0.9417827000143006,,,,,,,,,,,,,,,,,p317,22,female,left_right_width,2025-12-10_13h37.11.382,exp1,2023.1.0,59.96368599447664,
,,,,,,,,,,,,,,,,4,8.35,9.45,10.55,11.65,0,1.1,0.7000000000000001,0.4,3.7,10,initial,36.05,301,341,380,420,0,9,9,9,9,0,,,,,,,5,0,5,0,0,2,2,21,,,,,,,,,,,,,,4,0.6843874999904074,4,0.35,0.35,12.61502,return,0.8303995000314899,,,,,,,,,,,,,,,,,p317,22,female,left_right_width,2025-12-10_13h37.11.382,exp1,2023.1.0,59.96368599447664,
,,,,,,,,,,,,,,,,3,9.3,10,10.7,0,0,0.7,0.44999999999999996,0.25,1.65,10,initial,36.05,335,361,386,0,0,9,9,9,0,0,,,,,,,5,0,5,0,0,3,3,7,,,,,,,,,,,,,,3,1.5520520999561995,3,0.5,0.30000000000000004,10.81288,return,1.584626100026071,,,,,,,,,,,,,,,,,p317,22,female,left_right_width,2025-12-10_13h37.11.382,exp1,2023.1.0,59.96368599447664,
,,,,,,,,,,,,,,,,4,8.95,9.65,10.35,11.05,0,0.7,0.29999999999999993,0.4,2.5,10,initial,36.05,323,348,373,398,0,9,9,9,9,0,,,,,,,5,0,5,0,0,4,4,26,,,,,,,,,,,,,,4,0.6231860999832861,4,0.4,0.35000000000000003,12.61502,return,0.8528744999784976,,,,,,,,,,,,,,,,,p317,22,female,left_right_width,2025-12-10_13h37.11.382,exp1,2023.1.0,59.96368599447664,
,,,,,,,,,,,,,,,,5,8.6,9.3,10,10.7,11.4,0.7,0.29999999999999993,0.4,3.1999999999999997,10,initial,36.05,310,335,361,386,411,9,9,9,9,9,,,,,,,5,0,5,0,0,5,5,44,,,,,,,,,,,,,,4,0.9219265999854542,4,0.55,0.45,16.21932,return,1.2525151000008918,,,,,,,,,,,,,,,,,p317,22,female,left_right_width,2025-12-10_13h37.11.382,exp1,2023.1.0,59.96368599447664,
,,,,,,,,,,,,,,,,5,8.95,9.475,10,10.525,11.05,0.525,0.125,0.4,2.5,10,match,36.05,323,342,361,379,398,9,9,9,9,9,,,,,,,5,0,5,0,0,6,6,27,,,,,,,,,,,,,,5,0.8205901000183076,5,0.25,0.35,12.61502,return,1.170283199986443,,,,,,,,,,,,,,,,,p317,22,female,left_right_width,2025-12-10_13h37.11.382,exp1,2023.1.0,59.96368599447664,
,,,,,,,,,,,,,,,,4,8.9,9.633333333333333,10.366666666666667,11.1,0,0.7333333333333333,0.18333333333333326,0.55,2.75,10,match,36.05,321,347,374,400,0,9,9,9,9,0,,,,,,,5,0,5,0,0,7,7,1,,,,,,,,,,,,,,5,1.2125645000487566,5,0.25,0.39999999999999997,14.41717,return,1.8675891000311822,,,,,,,,,,,,,,,,,p317,22,female,left_right_width,2025-12-10_13h37.11.382,exp1,2023.1.0,59.96368599447664,
,,,,,,,,,,,,,,,,3,9.1,10,10.9,0,0,0.9,0.35,0.55,2.35,10,initial,36.05,328,361,393,0,0,9,9,9,0,0,,,,,,,5,0,5,0,0,8,8,11,,,,,,,,,,,,,,3,1.146122900012415,3,0.3,0.35,12.61502,return,1.8030221999506466,,,,,,,,,,,,,,,,,p317,22,female,left_right_width,2025-12-10_13h37.11.382,exp1,2023.1.0,59.96368599447664,
,,,,,,,,,,,,,,,,4,8.35,9.45,10.55,11.65,0,1.1,0.55,0.55,3.8500000000000005,10,initial,36.05,301,341,380,420,0,9,9,9,9,0,,,,,,,5,0,5,0,0,9,9,17,,,,,,,,,,,,,,4,0.603475600015372,4,0.45,0.45,16.21932,return,0.8991297000320628,,,,,,,,,,,,,,,,,p317,22,female,left_right_width,2025-12-10_13h37.11.382,exp1,2023.1.0,59.96368599447664,
,,,,,,,,,,,,,,,,5,8.95,9.475,10,10.525,11.05,0.525,0.275,0.25,2.35,10,match,36.05,323,342,361,379,398,9,9,9,9,9,,,,,,,5,0,5,0,0,10,10,25,,,,,,,,,,,,,,4,1.2060792000265792,4,0.4,0.25000000000000006,9.01073,return,1.0604517000028864,,,,,,,,,,,,,,,,,p317,22,female,left_right_width,2025-12-10_13h37.11.382,exp1,2023.1.0,59.96368599447664,
,,,,,,,,,,,,,,,,3,8.2,10,11.8,0,0,1.7999999999999998,1.4,0.4,4,10,match,36.05,296,361,425,0,0,9,9,9,0,0,,,,,,,5,0,5,0,0,11,11,51,,,,,,,,,,,,,,3,0.6163611999945715,3,0.45,0.30000000000000004,10.81288,return,0.9742006000014953,,,,,,,,,,,,,,,,,p317,22,female,left_right_width,2025-12-10_13h37.11.382,exp1,2023.1.0,59.96368599447664,
,,,,,,,,,,,,,,,,3,9.1,10,10.9,0,0,0.9,0.5,0.4,2.2,10,initial,36.05,328,361,393,0,0,9,9,9,0,0,,,,,,,5,0,5,0,0,12,12,15,,,,,,,,,,,,,,3,0.7513579999795184,3,0.4,0.35000000000000003,12.61502,return,0.8807652000105008,,,,,,,,,,,,,,,,,p317,22,female,left_right_width,2025-12-10_13h37.11.382,exp1,2023.1.0,59.96368599447664,
,,,,,,,,,,,,,,,,3,9.1,10,10.9,0,0,0.9,0.65,0.25,2.05,10,initial,36.05,328,361,393,0,0,9,9,9,0,0,,,,,,,5,0,5,0,0,13,13,13,,,,,,,,,,,,,,3,0.5739260999835096,3,0.2,0.15000000000000002,5.40644,return,0.6631314000114799,,,,,,,,,,,,,,,,,p317,22,female,left_right_width,2025-12-10_13h37.11.382,exp1,2023.1.0,59.96368599447664,
,,,,,,,,,,,,,,,,3,8.9,10,11.1,0,0,1.1,0.7000000000000001,0.4,2.6000000000000005,10,initial,36.05,321,361,400,0,0,9,9,9,0,0,,,,,,,5,0,5,0,0,14,14,4,,,,,,,,,,,,,,3,0.7026799999875948,3,0.25,0.25,9.01073,return,0.7859555000322871,,,,,,,,,,,,,,,,,p317,22,female,left_right_width,2025-12-10_13h37.11.382,exp1,2023.1.0,59.96368599447664,
,,,,,,,,,,,,,,,,4,9.1,9.7,10.3,10.9,0,0.5999999999999999,0.3499999999999999,0.25,2.05,10,match,36.05,328,350,371,393,0,9,9,9,9,0,,,,,,,5,0,5,0,0,15,15,14,,,,,,,,,,,,,,4,0.6673522000201046,4,0.45,0.20000000000000007,7.20859,return,1.7433369999635033,,,,,,,,,,,,,,,,,p317,22,female,left_right_width,2025-12-10_13h37.11.382,exp1,2023.1.0,59.96368599447664,
,,,,,,,,,,,,,,,,5,8.35,9.175,10,10.825,11.65,0.8250000000000001,0.275,0.55,3.85,10,match,36.05,301,331,361,390,420,9,9,9,9,9,,,,,,,5,0,5,0,0,16,16,18,,,,,,,,,,,,,,4,0.6856819000095129,4,0.4,0.35000000000000003,12.61502,return,0.9278707000194117,,,,,,,,,,,,,,,,,p317,22,female,left_right_width,2025-12-10_13h37.11.382,exp1,2023.1.0,59.96368599447664,
,,,,,,,,,,,,,,,,3,7.8,10,12.2,0,0,2.2,1.9500000000000002,0.25,4.65,10,match,36.05,281,361,440,0,0,9,9,9,0,0,,,,,,,5,0,5,0,0,17,17,37,,,,,,,,,,,,,,3,0.6904605000163428,3,0.25,0.25,9.01073,return,0.7731185000156984,,,,,,,,,,,,,,,,,p317,22,female,left_right_width,2025-12-10_13h37.11.382,exp1,2023.1.0,59.96368599447664,
,,,,,,,,,,,,,,,,3,7.8,10,12.2,0,0,2.2,1.65,0.55,4.95,10,match,36.05,281,361,440,0,0,9,9,9,0,0,,,,,,,5,0,5,0,0,18,18,35,,,,,,,,,,,,,,4,0.5894022000138648,4,0.5,0.45,16.21932,return,1.2844055999885313,,,,,,,,,,,,,,,,,p317,22,female,left_right_width,2025-12-10_13h37.11.382,exp1,2023.1.0,59.96368599447664,
,,,,,,,,,,,,,,,,5,7.8,8.9,10,11.1,12.2,1.1,0.7000000000000001,0.4,4.800000000000001,10,initial,36.05,281,321,361,400,440,9,9,9,9,9,,,,,,,5,0,5,0,0,19,19,38,,,,,,,,,,,,,,5,0.9552617000299506,5,0.2,0.35,12.61502,return,1.3791990000172518,,,,,,,,,,,,,,,,,p317,22,female,left_right_width,2025-12-10_13h37.11.382,exp1,2023.1.0,59.96368599447664,
,,,,,,,,,,,,,,,,5,8.2,9.1,10,10.9,11.8,0.9,0.5,0.4,4,10,initial,36.05,296,328,361,393,425,9,9,9,9,9,,,,,,,5,0,5,0,0,20,20,50,,,,,,,,,,,,,,5,0.8940446999622509,5,0.5,0.35000000000000003,12.61502,return,1.7852072999812663,,,,,,,,,,,,,,,,,p317,22,female,left_right_width,2025-12-10_13h37.11.382,exp1,2023.1.0,59.96368599447664,
,,,,,,,,,,,,,,,,5,8.2,9.1,10,10.9,11.8,0.9,0.65,0.25,3.85,10,initial,36.05,296,328,361,393,425,9,9,9,9,9,,,,,,,5,0,5,0,0,21,21,48,,,,,,,,,,,,,,5,1.1433942999574356,5,0.45,0.25000000000000006,9.01073,return,1.288669400033541,,,,,,,,,,,,,,,,,p317,22,female,left_right_width,2025-12-10_13h37.11.382,exp1,2023.1.0,59.96368599447664,
,,,,,,,,,,,,,,,,3,8.2,10,11.8,0,0,1.8,1.55,0.25,3.85,10,match,36.05,296,361,425,0,0,9,9,9,0,0,,,,,,,5,0,5,0,0,22,22,49,,,,,,,,,,,,,,3,0.617337400035467,3,0.35,0.2,7.20859,return,1.1344073000364006,,,,,,,,,,,,,,,,,p317,22,female,left_right_width,2025-12-10_13h37.11.382,exp1,2023.1.0,59.96368599447664,
,,,,,,,,,,,,,,,,4,8.9,9.633333333333333,10.366666666666667,11.1,0,0.7333333333333334,0.4833333333333334,0.25,2.45,10,match,36.05,321,347,374,400,0,9,9,9,9,0,,,,,,,5,0,5,0,0,23,23,3,,,,,,,,,,,,,,4,0.8466840999899432,4,0.5,0.25000000000000006,9.01073,return,1.6437712000333704,,,,,,,,,,,,,,,,,p317,22,female,left_right_width,2025-12-10_13h37.11.382,exp1,2023.1.0,59.96368599447664,
,,,,,,,,,,,,,,,,4,9.3,9.766666666666667,10.233333333333333,10.7,0,0.4666666666666667,0.06666666666666665,0.4,1.8,10,match,36.05,335,352,369,386,0,9,9,9,9,0,,,,,,,5,0,5,0,0,24,24,10,,,,,,,,,,,,,,4,0.7072735999827273,4,0.55,0.35000000000000003,12.61502,return,1.5091305000241846,,,,,,,,,,,,,,,,,p317,22,female,left_right_width,2025-12-10_13h37.11.382,exp1,2023.1.0,59.96368599447664,
