amount_p,posx1_p,posx2_p,posx3_p,posx4_p,posx5_p,center_to_center_p,edge_to_edge_p,w_p,stim_lengt_p,eccentricity_p,line1_p,line2_p,line3_p,line4_p,line5_p,amount,posx1,posx2,posx3,posx4,posx5,center_to_center,edge_to_edge,w,stim_length,eccentricity,trial_type,deg_to_pix_index,posx1_in_pix,posx2_in_pix,posx3_in_pix,posx4_in_pix,posx5_in_pix,line1,line2,line3,line4,line5,posx,setsize_cobdi,trials.thisRepN,trials.thisTrialN,trials.thisN,trials.thisIndex,blocks.thisRepN,blocks.thisTrialN,blocks.thisN,blocks.thisIndex,loop.thisRepN,loop.thisTrialN,loop.thisN,loop.thisIndex,first.thisRepN,first.thisTrialN,first.thisN,first.thisIndex,second.thisRepN,second.thisTrialN,second.thisN,second.thisIndex,thisRow.t,notes,key_resp_3.started,key_resp_3.keys,key_resp_3.rt,key_resp.keys,key_resp.rt,response,starting_width_deg,response_width_degree,response_width_pixel,next_5.keys,next_5.rt,key_resp_4.keys,key_resp_4.rt,text_3.started,text_4.started,key_resp_2.started,text_2.started,key_resp_2.keys,key_resp_2.rt,adjusting.started,next.keys,next.rt,text_control2.started,key_resp.started,key_resp.corr,text_bye.started,text_bye.stopped,participant,age,gender,resp_group,date,expName,psychopyVersion,frameRate,
,,,,,,,,,,,,,,,,,,,,,,,,,,,,,,,,,,,,,,,,,,,,,,,,,,,,,,,,,,,,,,,286.37102140000206,c,155.05197210000188,,,,,,,,,,,,,,,,,,,,,,,,,p318,21,female,left_right_width,2025-12-16_11h34.34.733,exp1,2023.1.0,59.99196107536744,
4,9.25,9.75,10.25,10.75,0,0.5,0.25,0.25,1.75,10,9,9,9,9,0,,,,,,,,,,,,,,,,,,,,,,,,,,0,0,0,4,,,,,,,,,,,,,,,,,,,,,,4,3.426451699997415,4,0.45,0.35000000000000003,12.61502,return,12.809553300001426,,,,,,,,,,,,,,,,,p318,21,female,left_right_width,2025-12-16_11h34.34.733,exp1,2023.1.0,59.99196107536744,
4,8.65,9.55,10.45,11.35,0,0.9,0.5,0.4,3.1,10,9,9,9,9,0,,,,,,,,,,,,,,,,,,,,,,,,,,0,1,1,5,,,,,,,,,,,,,,,,,,,,,,3,12.480259999996633,3,0.35,0.15000000000000002,5.40644,return,3.051233100006357,,,,,,,,,,,,,,,,,p318,21,female,left_right_width,2025-12-16_11h34.34.733,exp1,2023.1.0,59.99196107536744,
5,8.6,9.3,10,10.7,11.4,0.7,0.29999999999999993,0.4,3.1999999999999997,10,9,9,9,9,9,,,,,,,,,,,,,,,,,,,,,,,,,,0,2,2,7,,,,,,,,,,,,,,,,,,,,,,5,1.9035186999972211,5,0.55,0.30000000000000004,10.81288,return,3.377925699998741,,,,,,,,,,,,,,,,,p318,21,female,left_right_width,2025-12-16_11h34.34.733,exp1,2023.1.0,59.99196107536744,
3,9.5,10,10.5,0,0,0.5,0.4,0.1,1.1,10,9,9,9,0,0,,,,,,,,,,,,,,,,,,,,,,,,,,0,3,3,0,,,,,,,,,,,,,,,,,,,,,,3,2.199450899992371,3,0.4,0.05000000000000007,1.80215,return,4.047831599993515,,,,,,,,,,,,,,,,,p318,21,female,left_right_width,2025-12-16_11h34.34.733,exp1,2023.1.0,59.99196107536744,
3,9,10,11,0,0,1,0.9,0.1,2.1,10,9,9,9,0,0,,,,,,,,,,,,,,,,,,,,,,,,,,0,4,4,1,,,,,,,,,,,,,,,,,,,,,,3,1.9408746999979485,3,0.55,0.10000000000000007,3.60429,return,3.861301699987962,,,,,,,,,,,,,,,,,p318,21,female,left_right_width,2025-12-16_11h34.34.733,exp1,2023.1.0,59.99196107536744,
5,9.25,9.625,10,10.375,10.75,0.375,0.125,0.25,1.75,10,9,9,9,9,9,,,,,,,,,,,,,,,,,,,,,,,,,,0,5,5,6,,,,,,,,,,,,,,,,,,,,,,5,2.9809544000017922,5,0.2,0.15000000000000002,5.40644,return,2.076805000004242,,,,,,,,,,,,,,,,,p318,21,female,left_right_width,2025-12-16_11h34.34.733,exp1,2023.1.0,59.99196107536744,
4,9.5,9.833333333333334,10.166666666666666,10.5,0,0.33333333333333337,0.23333333333333336,0.1,1.1,10,9,9,9,9,0,,,,,,,,,,,,,,,,,,,,,,,,,,0,6,6,3,,,,,,,,,,,,,,,,,,,,,,4,1.8910780000005616,4,0.45,0.05000000000000007,1.80215,return,4.455212000000756,,,,,,,,,,,,,,,,,p318,21,female,left_right_width,2025-12-16_11h34.34.733,exp1,2023.1.0,59.99196107536744,
3,8.2,10,11.8,0,0,1.7999999999999998,1.4,0.4,4,10,9,9,9,0,0,,,,,,,,,,,,,,,,,,,,,,,,,,0,7,7,2,,,,,,,,,,,,,,,,,,,,,,3,1.7860693999973591,3,0.55,0.5,18.02146,return,3.1855219999997644,,,,,,,,,,,,,,,,,p318,21,female,left_right_width,2025-12-16_11h34.34.733,exp1,2023.1.0,59.99196107536744,
5,9,9.5,10,10.5,11,0.5,0.09999999999999998,0.4,2.4,10,9,9,9,9,9,,,,,,,,,,,,,,,,,,,,,,,,,,0,8,8,8,,,,,,,,,,,,,,,,,,,,,,4,2.099164400002337,4,0.2,0.35,12.61502,return,3.247181600003387,,,,,,,,,,,,,,,,,p318,21,female,left_right_width,2025-12-16_11h34.34.733,exp1,2023.1.0,59.99196107536744,
,,,,,,,,,,,,,,,,,,,,,,,,,,,,,,,,,,,,,,,,,,,,,,,,,,,,,,,,,,,,,,,,,,,,,,,,,,c,158.47580499999458,,,,,,,,,,,,,,,p318,21,female,left_right_width,2025-12-16_11h34.34.733,exp1,2023.1.0,59.99196107536744,
,,,,,,,,,,,,,,,,3,9.1,10,10.9,0,0,0.9,0.65,0.25,2.05,10,initial,36.05,328,361,393,0,0,9,9,9,0,0,,,,,,,0,0,0,0,0,0,0,13,,,,,,,,,,,,,,3,1.3357118999992963,3,0.3,0.15000000000000002,5.40644,return,2.8491256999986945,,,,,,,,,,,,,,,,,p318,21,female,left_right_width,2025-12-16_11h34.34.733,exp1,2023.1.0,59.99196107536744,
,,,,,,,,,,,,,,,,5,8.65,9.325,10,10.675,11.35,0.675,0.125,0.55,3.25,10,match,36.05,312,336,361,385,409,9,9,9,9,9,,,,,,,0,0,0,0,0,1,1,29,,,,,,,,,,,,,,4,1.7619470999925397,4,0.35,0.3,10.81288,return,2.027213800000027,,,,,,,,,,,,,,,,,p318,21,female,left_right_width,2025-12-16_11h34.34.733,exp1,2023.1.0,59.99196107536744,
,,,,,,,,,,,,,,,,4,8.65,9.55,10.45,11.35,0,0.9,0.5,0.4,3.1,10,initial,36.05,312,344,377,409,0,9,9,9,9,0,,,,,,,0,0,0,0,0,2,2,32,,,,,,,,,,,,,,4,1.6618995000026189,4,0.45,0.30000000000000004,10.81288,return,3.1453260999987833,,,,,,,,,,,,,,,,,p318,21,female,left_right_width,2025-12-16_11h34.34.733,exp1,2023.1.0,59.99196107536744,
,,,,,,,,,,,,,,,,3,9.1,10,10.9,0,0,0.9,0.35,0.55,2.35,10,initial,36.05,328,361,393,0,0,9,9,9,0,0,,,,,,,0,0,0,0,0,3,3,11,,,,,,,,,,,,,,3,1.589814999999362,3,0.25,0.39999999999999997,14.41717,return,2.2932039000006625,,,,,,,,,,,,,,,,,p318,21,female,left_right_width,2025-12-16_11h34.34.733,exp1,2023.1.0,59.99196107536744,
,,,,,,,,,,,,,,,,3,8.9,10,11.1,0,0,1.1,0.8500000000000001,0.25,2.45,10,initial,36.05,321,361,400,0,0,9,9,9,0,0,,,,,,,0,0,0,0,0,4,4,2,,,,,,,,,,,,,,3,1.3458577999990666,3,0.35,0.25,9.01073,return,2.2348214000085136,,,,,,,,,,,,,,,,,p318,21,female,left_right_width,2025-12-16_11h34.34.733,exp1,2023.1.0,59.99196107536744,
,,,,,,,,,,,,,,,,3,9.3,10,10.7,0,0,0.7,0.44999999999999996,0.25,1.65,10,initial,36.05,335,361,386,0,0,9,9,9,0,0,,,,,,,0,0,0,0,0,5,5,7,,,,,,,,,,,,,,3,1.6252840999950422,3,0.35,0.2,7.20859,return,1.6870235999958823,,,,,,,,,,,,,,,,,p318,21,female,left_right_width,2025-12-16_11h34.34.733,exp1,2023.1.0,59.99196107536744,
,,,,,,,,,,,,,,,,5,7.8,8.9,10,11.1,12.2,1.1,0.7000000000000001,0.4,4.800000000000001,10,initial,36.05,281,321,361,400,440,9,9,9,9,9,,,,,,,0,0,0,0,0,6,6,38,,,,,,,,,,,,,,4,1.4292320999957155,4,0.5,0.35000000000000003,12.61502,return,4.763404899989837,,,,,,,,,,,,,,,,,p318,21,female,left_right_width,2025-12-16_11h34.34.733,exp1,2023.1.0,59.99196107536744,
,,,,,,,,,,,,,,,,4,8.95,9.65,10.35,11.05,0,0.7,0.1499999999999999,0.55,2.65,10,initial,36.05,323,348,373,398,0,9,9,9,9,0,,,,,,,0,0,0,0,0,7,7,23,,,,,,,,,,,,,,4,1.6141618999972707,4,0.2,0.49999999999999994,18.02146,return,4.059908299997915,,,,,,,,,,,,,,,,,p318,21,female,left_right_width,2025-12-16_11h34.34.733,exp1,2023.1.0,59.99196107536744,
,,,,,,,,,,,,,,,,3,8.9,10,11.1,0,0,1.1,0.55,0.55,2.75,10,initial,36.05,321,361,400,0,0,9,9,9,0,0,,,,,,,0,0,0,0,0,8,8,0,,,,,,,,,,,,,,3,1.2992161999864038,3,0.5,0.45,16.21932,return,2.0138797999970848,,,,,,,,,,,,,,,,,p318,21,female,left_right_width,2025-12-16_11h34.34.733,exp1,2023.1.0,59.99196107536744,
,,,,,,,,,,,,,,,,3,8.6,10,11.4,0,0,1.4,1.15,0.25,3.05,10,match,36.05,310,361,411,0,0,9,9,9,0,0,,,,,,,0,0,0,0,0,9,9,43,,,,,,,,,,,,,,3,1.4548324999923352,3,0.2,0.2,7.20859,return,2.0187151999998605,,,,,,,,,,,,,,,,,p318,21,female,left_right_width,2025-12-16_11h34.34.733,exp1,2023.1.0,59.99196107536744,
,,,,,,,,,,,,,,,,3,9.3,10,10.7,0,0,0.7,0.29999999999999993,0.4,1.8,10,initial,36.05,335,361,386,0,0,9,9,9,0,0,,,,,,,0,0,0,0,0,10,10,9,,,,,,,,,,,,,,3,1.3212850999989314,3,0.25,0.35,12.61502,return,1.7798803000041516,,,,,,,,,,,,,,,,,p318,21,female,left_right_width,2025-12-16_11h34.34.733,exp1,2023.1.0,59.99196107536744,
,,,,,,,,,,,,,,,,3,9.1,10,10.9,0,0,0.9,0.5,0.4,2.2,10,initial,36.05,328,361,393,0,0,9,9,9,0,0,,,,,,,0,0,0,0,0,11,11,15,,,,,,,,,,,,,,4,1.5099634000071092,4,0.25,0.25,9.01073,return,1.3036682999954792,,,,,,,,,,,,,,,,,p318,21,female,left_right_width,2025-12-16_11h34.34.733,exp1,2023.1.0,59.99196107536744,
,,,,,,,,,,,,,,,,4,8.825,9.608333333333333,10.391666666666667,11.175,0,0.7833333333333333,0.5333333333333333,0.25,2.6,10,match,36.05,318,346,375,403,0,9,9,9,9,0,,,,,,,0,0,0,0,0,12,12,5,,,,,,,,,,,,,,4,1.1954361999960383,4,0.2,0.2,7.20859,return,1.1457844999968074,,,,,,,,,,,,,,,,,p318,21,female,left_right_width,2025-12-16_11h34.34.733,exp1,2023.1.0,59.99196107536744,
,,,,,,,,,,,,,,,,5,8.65,9.325,10,10.675,11.35,0.675,0.275,0.4,3.1,10,match,36.05,312,336,361,385,409,9,9,9,9,9,,,,,,,0,0,0,0,0,13,13,33,,,,,,,,,,,,,,5,1.4296072999859462,5,0.5,0.20000000000000007,7.20859,return,3.3547394999914104,,,,,,,,,,,,,,,,,p318,21,female,left_right_width,2025-12-16_11h34.34.733,exp1,2023.1.0,59.99196107536744,
,,,,,,,,,,,,,,,,5,8.65,9.325,10,10.675,11.35,0.675,0.42500000000000004,0.25,2.95,10,match,36.05,312,336,361,385,409,9,9,9,9,9,,,,,,,0,0,0,0,0,14,14,31,,,,,,,,,,,,,,4,1.3736642000003485,4,0.25,0.25,9.01073,return,3.4785102999885567,,,,,,,,,,,,,,,,,p318,21,female,left_right_width,2025-12-16_11h34.34.733,exp1,2023.1.0,59.99196107536744,
,,,,,,,,,,,,,,,,3,7.8,10,12.2,0,0,2.2,1.65,0.55,4.95,10,match,36.05,281,361,440,0,0,9,9,9,0,0,,,,,,,0,0,0,0,0,15,15,35,,,,,,,,,,,,,,3,1.4107726999936858,3,0.55,0.6000000000000001,21.62576,return,1.8486923999880673,,,,,,,,,,,,,,,,,p318,21,female,left_right_width,2025-12-16_11h34.34.733,exp1,2023.1.0,59.99196107536744,
,,,,,,,,,,,,,,,,4,8.65,9.55,10.45,11.35,0,0.9,0.65,0.25,2.95,10,initial,36.05,312,344,377,409,0,9,9,9,9,0,,,,,,,0,0,0,0,0,16,16,30,,,,,,,,,,,,,,4,1.701714799986803,4,0.2,0.2,7.20859,return,1.7291512999945553,,,,,,,,,,,,,,,,,p318,21,female,left_right_width,2025-12-16_11h34.34.733,exp1,2023.1.0,59.99196107536744,
,,,,,,,,,,,,,,,,4,8.95,9.65,10.35,11.05,0,0.7,0.29999999999999993,0.4,2.5,10,initial,36.05,323,348,373,398,0,9,9,9,9,0,,,,,,,0,0,0,0,0,17,17,26,,,,,,,,,,,,,,3,1.5979483999981312,3,0.45,0.5,18.02146,return,2.2068174999876646,,,,,,,,,,,,,,,,,p318,21,female,left_right_width,2025-12-16_11h34.34.733,exp1,2023.1.0,59.99196107536744,
,,,,,,,,,,,,,,,,3,8.9,10,11.1,0,0,1.1,0.7000000000000001,0.4,2.6000000000000005,10,initial,36.05,321,361,400,0,0,9,9,9,0,0,,,,,,,0,0,0,0,0,18,18,4,,,,,,,,,,,,,,3,1.202128699995228,3,0.5,0.45,16.21932,return,1.0566781000088667,,,,,,,,,,,,,,,,,p318,21,female,left_right_width,2025-12-16_11h34.34.733,exp1,2023.1.0,59.99196107536744,
,,,,,,,,,,,,,,,,5,8.2,9.1,10,10.9,11.8,0.9,0.5,0.4,4,10,initial,36.05,296,328,361,393,425,9,9,9,9,9,,,,,,,0,0,0,0,0,19,19,50,,,,,,,,,,,,,,4,1.3644427000108408,4,0.5,0.45,16.21932,return,1.8208031000103801,,,,,,,,,,,,,,,,,p318,21,female,left_right_width,2025-12-16_11h34.34.733,exp1,2023.1.0,59.99196107536744,
,,,,,,,,,,,,,,,,4,8.35,9.45,10.55,11.65,0,1.1,0.8500000000000001,0.25,3.5500000000000003,10,initial,36.05,301,341,380,420,0,9,9,9,9,0,,,,,,,0,0,0,0,0,20,20,19,,,,,,,,,,,,,,4,1.6012810000102036,4,0.55,0.20000000000000007,7.20859,return,3.9992237000114983,,,,,,,,,,,,,,,,,p318,21,female,left_right_width,2025-12-16_11h34.34.733,exp1,2023.1.0,59.99196107536744,
,,,,,,,,,,,,,,,,3,7.800000000000001,10,12.2,0,0,2.1999999999999997,1.7999999999999998,0.4,4.8,10,match,36.05,281,361,440,0,0,9,9,9,0,0,,,,,,,0,0,0,0,0,21,21,39,,,,,,,,,,,,,,3,1.4488945999910356,3,0.5,0.35000000000000003,12.61502,return,2.8622707999893464,,,,,,,,,,,,,,,,,p318,21,female,left_right_width,2025-12-16_11h34.34.733,exp1,2023.1.0,59.99196107536744,
,,,,,,,,,,,,,,,,4,9.1,9.7,10.3,10.9,0,0.5999999999999999,0.3499999999999999,0.25,2.05,10,match,36.05,328,350,371,393,0,9,9,9,9,0,,,,,,,0,0,0,0,0,22,22,14,,,,,,,,,,,,,,4,1.2464967999985674,4,0.25,0.25,9.01073,return,1.5318639000033727,,,,,,,,,,,,,,,,,p318,21,female,left_right_width,2025-12-16_11h34.34.733,exp1,2023.1.0,59.99196107536744,
,,,,,,,,,,,,,,,,4,9.3,9.766666666666667,10.233333333333333,10.7,0,0.4666666666666667,0.21666666666666665,0.25,1.65,10,match,36.05,335,352,369,386,0,9,9,9,9,0,,,,,,,0,0,0,0,0,23,23,8,,,,,,,,,,,,,,5,1.490567300003022,5,0.25,0.25,9.01073,return,1.6696215999982087,,,,,,,,,,,,,,,,,p318,21,female,left_right_width,2025-12-16_11h34.34.733,exp1,2023.1.0,59.99196107536744,
,,,,,,,,,,,,,,,,5,8.2,9.1,10,10.9,11.8,0.9,0.65,0.25,3.85,10,initial,36.05,296,328,361,393,425,9,9,9,9,9,,,,,,,0,0,0,0,0,24,24,48,,,,,,,,,,,,,,4,2.262041299996781,4,0.35,0.3,10.81288,return,1.6105655999854207,,,,,,,,,,,,,,,,,p318,21,female,left_right_width,2025-12-16_11h34.34.733,exp1,2023.1.0,59.99196107536744,
,,,,,,,,,,,,,,,,5,7.8,8.9,10,11.1,12.2,1.1,0.55,0.55,4.95,10,initial,36.05,281,321,361,400,440,9,9,9,9,9,,,,,,,0,0,0,0,0,25,25,34,,,,,,,,,,,,,,4,2.171226199992816,4,0.45,0.5,18.02146,return,1.698740199994063,,,,,,,,,,,,,,,,,p318,21,female,left_right_width,2025-12-16_11h34.34.733,exp1,2023.1.0,59.99196107536744,
,,,,,,,,,,,,,,,,4,9.1,9.7,10.3,10.9,0,0.6,0.04999999999999997,0.55,2.35,10,match,36.05,328,350,371,393,0,9,9,9,9,0,,,,,,,0,0,0,0,0,26,26,12,,,,,,,,,,,,,,4,2.151497600003495,4,0.45,0.6500000000000001,23.4279,return,2.7679701000015484,,,,,,,,,,,,,,,,,p318,21,female,left_right_width,2025-12-16_11h34.34.733,exp1,2023.1.0,59.99196107536744,
,,,,,,,,,,,,,,,,4,8.9,9.633333333333333,10.366666666666667,11.1,0,0.7333333333333334,0.4833333333333334,0.25,2.45,10,match,36.05,321,347,374,400,0,9,9,9,9,0,,,,,,,0,0,0,0,0,27,27,3,,,,,,,,,,,,,,4,1.8175255999958608,4,0.25,0.15000000000000002,5.40644,return,1.7594818999932613,,,,,,,,,,,,,,,,,p318,21,female,left_right_width,2025-12-16_11h34.34.733,exp1,2023.1.0,59.99196107536744,
,,,,,,,,,,,,,,,,4,9.1,9.7,10.3,10.9,0,0.6000000000000001,0.20000000000000004,0.4,2.2,10,match,36.05,328,350,371,393,0,9,9,9,9,0,,,,,,,0,0,0,0,0,28,28,16,,,,,,,,,,,,,,3,1.3759422000002814,3,0.5,0.6000000000000001,21.62576,return,2.199701699995785,,,,,,,,,,,,,,,,,p318,21,female,left_right_width,2025-12-16_11h34.34.733,exp1,2023.1.0,59.99196107536744,
,,,,,,,,,,,,,,,,5,8.35,9.175,10,10.825,11.65,0.8250000000000001,0.275,0.55,3.85,10,match,36.05,301,331,361,390,420,9,9,9,9,9,,,,,,,0,0,0,0,0,29,29,18,,,,,,,,,,,,,,5,1.6878154000005452,5,0.4,0.35000000000000003,12.61502,return,1.7627283000038005,,,,,,,,,,,,,,,,,p318,21,female,left_right_width,2025-12-16_11h34.34.733,exp1,2023.1.0,59.99196107536744,
,,,,,,,,,,,,,,,,4,8.35,9.45,10.55,11.65,0,1.1,0.55,0.55,3.8500000000000005,10,initial,36.05,301,341,380,420,0,9,9,9,9,0,,,,,,,0,0,0,0,0,30,30,17,,,,,,,,,,,,,,4,1.5252706999890506,4,0.2,0.39999999999999997,14.41717,return,3.0479633000068134,,,,,,,,,,,,,,,,,p318,21,female,left_right_width,2025-12-16_11h34.34.733,exp1,2023.1.0,59.99196107536744,
,,,,,,,,,,,,,,,,3,9.3,10,10.7,0,0,0.7,0.1499999999999999,0.55,1.95,10,initial,36.05,335,361,386,0,0,9,9,9,0,0,,,,,,,0,0,0,0,0,31,31,6,,,,,,,,,,,,,,3,1.6632432000042172,3,0.5,0.7000000000000002,25.23005,return,1.8515649999899324,,,,,,,,,,,,,,,,,p318,21,female,left_right_width,2025-12-16_11h34.34.733,exp1,2023.1.0,59.99196107536744,
,,,,,,,,,,,,,,,,5,8.95,9.475,10,10.525,11.05,0.525,0.275,0.25,2.35,10,match,36.05,323,342,361,379,398,9,9,9,9,9,,,,,,,0,0,0,0,0,32,32,25,,,,,,,,,,,,,,5,1.4340890000021318,5,0.35,0.25,9.01073,return,1.7438447999884374,,,,,,,,,,,,,,,,,p318,21,female,left_right_width,2025-12-16_11h34.34.733,exp1,2023.1.0,59.99196107536744,
,,,,,,,,,,,,,,,,5,8.35,9.175,10,10.825,11.65,0.825,0.575,0.25,3.55,10,match,36.05,301,331,361,390,420,9,9,9,9,9,,,,,,,0,0,0,0,0,33,33,20,,,,,,,,,,,,,,4,1.4430420999997295,4,0.2,0.25,9.01073,return,1.5765855999925407,,,,,,,,,,,,,,,,,p318,21,female,left_right_width,2025-12-16_11h34.34.733,exp1,2023.1.0,59.99196107536744,
,,,,,,,,,,,,,,,,3,7.8,10,12.2,0,0,2.2,1.9500000000000002,0.25,4.65,10,match,36.05,281,361,440,0,0,9,9,9,0,0,,,,,,,0,0,0,0,0,34,34,37,,,,,,,,,,,,,,3,1.484246100008022,3,0.5,0.30000000000000004,10.81288,return,5.502658299999894,,,,,,,,,,,,,,,,,p318,21,female,left_right_width,2025-12-16_11h34.34.733,exp1,2023.1.0,59.99196107536744,
,,,,,,,,,,,,,,,,3,8.6,10,11.4,0,0,1.4,0.85,0.55,3.35,10,match,36.05,310,361,411,0,0,9,9,9,0,0,,,,,,,0,0,0,0,0,35,35,41,,,,,,,,,,,,,,3,2.1079044999933103,3,0.3,0.39999999999999997,14.41717,return,2.279099099992891,,,,,,,,,,,,,,,,,p318,21,female,left_right_width,2025-12-16_11h34.34.733,exp1,2023.1.0,59.99196107536744,
,,,,,,,,,,,,,,,,3,8.2,10,11.8,0,0,1.8,1.25,0.55,4.15,10,match,36.05,296,361,425,0,0,9,9,9,0,0,,,,,,,0,0,0,0,0,36,36,47,,,,,,,,,,,,,,2,1.3153180999943288,2,0.4,0.6000000000000001,21.62576,return,2.2693021000013687,,,,,,,,,,,,,,,,,p318,21,female,left_right_width,2025-12-16_11h34.34.733,exp1,2023.1.0,59.99196107536744,
,,,,,,,,,,,,,,,,3,8.525,10,11.475,0,0,1.475,1.225,0.25,3.2,10,match,36.05,307,361,414,0,0,9,9,9,0,0,,,,,,,0,0,0,0,0,37,37,45,,,,,,,,,,,,,,2,1.3492557999998098,2,0.2,0.39999999999999997,14.41717,return,2.3019161999982316,,,,,,,,,,,,,,,,,p318,21,female,left_right_width,2025-12-16_11h34.34.733,exp1,2023.1.0,59.99196107536744,
,,,,,,,,,,,,,,,,5,7.8,8.9,10,11.1,12.2,1.1,0.8500000000000001,0.25,4.65,10,initial,36.05,281,321,361,400,440,9,9,9,9,9,,,,,,,0,0,0,0,0,38,38,36,,,,,,,,,,,,,,4,1.3914157999970485,4,0.35,0.25,9.01073,return,1.3820796999934828,,,,,,,,,,,,,,,,,p318,21,female,left_right_width,2025-12-16_11h34.34.733,exp1,2023.1.0,59.99196107536744,
,,,,,,,,,,,,,,,,3,8.2,10,11.8,0,0,1.8,1.55,0.25,3.85,10,match,36.05,296,361,425,0,0,9,9,9,0,0,,,,,,,0,0,0,0,0,39,39,49,,,,,,,,,,,,,,2,2.0968165999947814,2,0.55,0.20000000000000007,7.20859,return,3.516181400002097,,,,,,,,,,,,,,,,,p318,21,female,left_right_width,2025-12-16_11h34.34.733,exp1,2023.1.0,59.99196107536744,
,,,,,,,,,,,,,,,,5,8.6,9.3,10,10.7,11.4,0.7,0.1499999999999999,0.55,3.3499999999999996,10,initial,36.05,310,335,361,386,411,9,9,9,9,9,,,,,,,0,0,0,0,0,40,40,40,,,,,,,,,,,,,,3,1.4973631000029854,3,0.35,0.7000000000000001,25.23005,return,3.8516744999942603,,,,,,,,,,,,,,,,,p318,21,female,left_right_width,2025-12-16_11h34.34.733,exp1,2023.1.0,59.99196107536744,
,,,,,,,,,,,,,,,,5,8.6,9.3,10,10.7,11.4,0.7,0.29999999999999993,0.4,3.1999999999999997,10,initial,36.05,310,335,361,386,411,9,9,9,9,9,,,,,,,0,0,0,0,0,41,41,44,,,,,,,,,,,,,,5,1.3746242000052007,5,0.45,0.5,18.02146,return,2.230031200000667,,,,,,,,,,,,,,,,,p318,21,female,left_right_width,2025-12-16_11h34.34.733,exp1,2023.1.0,59.99196107536744,
,,,,,,,,,,,,,,,,3,8.2,10,11.8,0,0,1.7999999999999998,1.4,0.4,4,10,match,36.05,296,361,425,0,0,9,9,9,0,0,,,,,,,0,0,0,0,0,42,42,51,,,,,,,,,,,,,,3,1.4886581000027945,3,0.4,0.30000000000000004,10.81288,return,1.4918169000011403,,,,,,,,,,,,,,,,,p318,21,female,left_right_width,2025-12-16_11h34.34.733,exp1,2023.1.0,59.99196107536744,
,,,,,,,,,,,,,,,,4,8.9,9.633333333333333,10.366666666666667,11.1,0,0.7333333333333333,0.18333333333333326,0.55,2.75,10,match,36.05,321,347,374,400,0,9,9,9,9,0,,,,,,,0,0,0,0,0,43,43,1,,,,,,,,,,,,,,4,1.5581449000019347,4,0.55,0.6000000000000001,21.62576,return,1.8614165999897523,,,,,,,,,,,,,,,,,p318,21,female,left_right_width,2025-12-16_11h34.34.733,exp1,2023.1.0,59.99196107536744,
,,,,,,,,,,,,,,,,4,8.65,9.55,10.45,11.35,0,0.9,0.35,0.55,3.25,10,initial,36.05,312,344,377,409,0,9,9,9,9,0,,,,,,,0,0,0,0,0,44,44,28,,,,,,,,,,,,,,4,1.714479999995092,4,0.2,0.49999999999999994,18.02146,return,2.6527825000084704,,,,,,,,,,,,,,,,,p318,21,female,left_right_width,2025-12-16_11h34.34.733,exp1,2023.1.0,59.99196107536744,
,,,,,,,,,,,,,,,,4,9.3,9.766666666666667,10.233333333333333,10.7,0,0.4666666666666667,0.06666666666666665,0.4,1.8,10,match,36.05,335,352,369,386,0,9,9,9,9,0,,,,,,,0,0,0,0,0,45,45,10,,,,,,,,,,,,,,3,1.4448221999919042,3,0.35,0.5499999999999999,19.82361,return,1.8331809999945108,,,,,,,,,,,,,,,,,p318,21,female,left_right_width,2025-12-16_11h34.34.733,exp1,2023.1.0,59.99196107536744,
,,,,,,,,,,,,,,,,5,8.275,9.1375,10,10.8625,11.725,0.8625,0.6125,0.25,3.7,10,match,36.05,298,329,361,392,423,9,9,9,9,9,,,,,,,0,0,0,0,0,46,46,22,,,,,,,,,,,,,,4,1.310140199988382,4,0.3,0.15000000000000002,5.40644,return,2.1992999999929452,,,,,,,,,,,,,,,,,p318,21,female,left_right_width,2025-12-16_11h34.34.733,exp1,2023.1.0,59.99196107536744,
,,,,,,,,,,,,,,,,4,8.95,9.65,10.35,11.05,0,0.7,0.44999999999999996,0.25,2.3499999999999996,10,initial,36.05,323,348,373,398,0,9,9,9,9,0,,,,,,,0,0,0,0,0,47,47,24,,,,,,,,,,,,,,3,1.2492442000075243,3,0.25,0.15000000000000002,5.40644,return,1.3906287999998312,,,,,,,,,,,,,,,,,p318,21,female,left_right_width,2025-12-16_11h34.34.733,exp1,2023.1.0,59.99196107536744,
,,,,,,,,,,,,,,,,4,8.35,9.45,10.55,11.65,0,1.1,0.7000000000000001,0.4,3.7,10,initial,36.05,301,341,380,420,0,9,9,9,9,0,,,,,,,0,0,0,0,0,48,48,21,,,,,,,,,,,,,,4,1.3642013000062434,4,0.5,0.25000000000000006,9.01073,return,2.220797300004051,,,,,,,,,,,,,,,,,p318,21,female,left_right_width,2025-12-16_11h34.34.733,exp1,2023.1.0,59.99196107536744,
,,,,,,,,,,,,,,,,5,8.2,9.1,10,10.9,11.8,0.9,0.35,0.55,4.15,10,initial,36.05,296,328,361,393,425,9,9,9,9,9,,,,,,,0,0,0,0,0,49,49,46,,,,,,,,,,,,,,5,1.62886250000156,5,0.5,0.6500000000000001,23.4279,return,3.354779699991923,,,,,,,,,,,,,,,,,p318,21,female,left_right_width,2025-12-16_11h34.34.733,exp1,2023.1.0,59.99196107536744,
,,,,,,,,,,,,,,,,5,8.6,9.3,10,10.7,11.4,0.7,0.44999999999999996,0.25,3.05,10,initial,36.05,310,335,361,386,411,9,9,9,9,9,,,,,,,0,0,0,0,0,50,50,42,,,,,,,,,,,,,,5,1.0379573999962304,5,0.3,0.2,7.20859,return,8.131142900005216,,,,,,,,,,,,,,,,,p318,21,female,left_right_width,2025-12-16_11h34.34.733,exp1,2023.1.0,59.99196107536744,
,,,,,,,,,,,,,,,,5,8.95,9.475,10,10.525,11.05,0.525,0.125,0.4,2.5,10,match,36.05,323,342,361,379,398,9,9,9,9,9,,,,,,,0,0,0,0,0,51,51,27,,,,,,,,,,,,,,3,1.2140402999939397,3,0.2,0.49999999999999994,18.02146,return,4.061264000003575,,,,,,,,,,,,,,,,,p318,21,female,left_right_width,2025-12-16_11h34.34.733,exp1,2023.1.0,59.99196107536744,
,,,,,,,,,,,,,,,,,,,,,,,,,,,,,,,,,,,,,,,,,,,,,0,0,0,0,,,,,,,,,,,,,,,,,,,,,,,,,,,,984.932441500001,984.932441500001,984.932441500001,,,,,,,,,,,,p318,21,female,left_right_width,2025-12-16_11h34.34.733,exp1,2023.1.0,59.99196107536744,
,,,,,,,,,,,,,,,,5,8.65,9.325,10,10.675,11.35,0.675,0.42500000000000004,0.25,2.95,10,match,36.05,312,336,361,385,409,9,9,9,9,9,,,,,,,1,0,1,0,0,0,0,31,,,,,,,,,,,,,,4,1.3931521000049543,4,0.25,0.25,9.01073,return,1.2251653999992413,,,,,,,,,,,,,,,,,p318,21,female,left_right_width,2025-12-16_11h34.34.733,exp1,2023.1.0,59.99196107536744,
,,,,,,,,,,,,,,,,5,8.6,9.3,10,10.7,11.4,0.7,0.1499999999999999,0.55,3.3499999999999996,10,initial,36.05,310,335,361,386,411,9,9,9,9,9,,,,,,,1,0,1,0,0,1,1,40,,,,,,,,,,,,,,4,1.6154371000011452,4,0.55,0.6000000000000001,21.62576,return,1.3735823000024538,,,,,,,,,,,,,,,,,p318,21,female,left_right_width,2025-12-16_11h34.34.733,exp1,2023.1.0,59.99196107536744,
,,,,,,,,,,,,,,,,4,8.95,9.65,10.35,11.05,0,0.7,0.29999999999999993,0.4,2.5,10,initial,36.05,323,348,373,398,0,9,9,9,9,0,,,,,,,1,0,1,0,0,2,2,26,,,,,,,,,,,,,,3,1.4553277000086382,3,0.2,0.49999999999999994,18.02146,return,3.2036414000031073,,,,,,,,,,,,,,,,,p318,21,female,left_right_width,2025-12-16_11h34.34.733,exp1,2023.1.0,59.99196107536744,
,,,,,,,,,,,,,,,,4,8.95,9.65,10.35,11.05,0,0.7,0.1499999999999999,0.55,2.65,10,initial,36.05,323,348,373,398,0,9,9,9,9,0,,,,,,,1,0,1,0,0,3,3,23,,,,,,,,,,,,,,4,1.3771735000045737,4,0.5,0.6000000000000001,21.62576,return,1.0656780999997864,,,,,,,,,,,,,,,,,p318,21,female,left_right_width,2025-12-16_11h34.34.733,exp1,2023.1.0,59.99196107536744,
,,,,,,,,,,,,,,,,5,8.95,9.475,10,10.525,11.05,0.525,0.275,0.25,2.35,10,match,36.05,323,342,361,379,398,9,9,9,9,9,,,,,,,1,0,1,0,0,4,4,25,,,,,,,,,,,,,,4,1.141775600000983,4,0.35,0.2,7.20859,return,1.350945900005172,,,,,,,,,,,,,,,,,p318,21,female,left_right_width,2025-12-16_11h34.34.733,exp1,2023.1.0,59.99196107536744,
,,,,,,,,,,,,,,,,5,8.65,9.325,10,10.675,11.35,0.675,0.125,0.55,3.25,10,match,36.05,312,336,361,385,409,9,9,9,9,9,,,,,,,1,0,1,0,0,5,5,29,,,,,,,,,,,,,,3,1.401679900009185,3,0.45,0.6000000000000001,21.62576,return,1.2657731999934185,,,,,,,,,,,,,,,,,p318,21,female,left_right_width,2025-12-16_11h34.34.733,exp1,2023.1.0,59.99196107536744,
,,,,,,,,,,,,,,,,4,9.3,9.766666666666667,10.233333333333333,10.7,0,0.4666666666666667,0.21666666666666665,0.25,1.65,10,match,36.05,335,352,369,386,0,9,9,9,9,0,,,,,,,1,0,1,0,0,6,6,8,,,,,,,,,,,,,,4,1.1991948999930173,4,0.45,0.55,19.82361,return,0.9584217999945395,,,,,,,,,,,,,,,,,p318,21,female,left_right_width,2025-12-16_11h34.34.733,exp1,2023.1.0,59.99196107536744,
,,,,,,,,,,,,,,,,4,8.825,9.608333333333333,10.391666666666667,11.175,0,0.7833333333333333,0.5333333333333333,0.25,2.6,10,match,36.05,318,346,375,403,0,9,9,9,9,0,,,,,,,1,0,1,0,0,7,7,5,,,,,,,,,,,,,,4,1.3618839999980992,4,0.35,0.15000000000000002,5.40644,return,1.5783127999893622,,,,,,,,,,,,,,,,,p318,21,female,left_right_width,2025-12-16_11h34.34.733,exp1,2023.1.0,59.99196107536744,
,,,,,,,,,,,,,,,,4,8.95,9.65,10.35,11.05,0,0.7,0.44999999999999996,0.25,2.3499999999999996,10,initial,36.05,323,348,373,398,0,9,9,9,9,0,,,,,,,1,0,1,0,0,8,8,24,,,,,,,,,,,,,,4,2.0788366999913706,4,0.25,0.05000000000000002,1.80215,return,1.7856904999935068,,,,,,,,,,,,,,,,,p318,21,female,left_right_width,2025-12-16_11h34.34.733,exp1,2023.1.0,59.99196107536744,
,,,,,,,,,,,,,,,,3,9.3,10,10.7,0,0,0.7,0.29999999999999993,0.4,1.8,10,initial,36.05,335,361,386,0,0,9,9,9,0,0,,,,,,,1,0,1,0,0,9,9,9,,,,,,,,,,,,,,3,1.4190737000026274,3,0.3,0.39999999999999997,14.41717,return,2.336641999994754,,,,,,,,,,,,,,,,,p318,21,female,left_right_width,2025-12-16_11h34.34.733,exp1,2023.1.0,59.99196107536744,
,,,,,,,,,,,,,,,,5,8.2,9.1,10,10.9,11.8,0.9,0.65,0.25,3.85,10,initial,36.05,296,328,361,393,425,9,9,9,9,9,,,,,,,1,0,1,0,0,10,10,48,,,,,,,,,,,,,,5,1.526640199997928,5,0.45,0.10000000000000007,3.60429,return,1.9133532999985619,,,,,,,,,,,,,,,,,p318,21,female,left_right_width,2025-12-16_11h34.34.733,exp1,2023.1.0,59.99196107536744,
,,,,,,,,,,,,,,,,5,8.35,9.175,10,10.825,11.65,0.8250000000000001,0.275,0.55,3.85,10,match,36.05,301,331,361,390,420,9,9,9,9,9,,,,,,,1,0,1,0,0,11,11,18,,,,,,,,,,,,,,4,1.3892775999993319,4,0.45,0.55,19.82361,return,1.7973092000029283,,,,,,,,,,,,,,,,,p318,21,female,left_right_width,2025-12-16_11h34.34.733,exp1,2023.1.0,59.99196107536744,
,,,,,,,,,,,,,,,,3,8.2,10,11.8,0,0,1.8,1.55,0.25,3.85,10,match,36.05,296,361,425,0,0,9,9,9,0,0,,,,,,,1,0,1,0,0,12,12,49,,,,,,,,,,,,,,2,1.8781804000027478,2,0.2,0.10000000000000002,3.60429,return,1.5934711000008974,,,,,,,,,,,,,,,,,p318,21,female,left_right_width,2025-12-16_11h34.34.733,exp1,2023.1.0,59.99196107536744,
,,,,,,,,,,,,,,,,4,8.9,9.633333333333333,10.366666666666667,11.1,0,0.7333333333333333,0.18333333333333326,0.55,2.75,10,match,36.05,321,347,374,400,0,9,9,9,9,0,,,,,,,1,0,1,0,0,13,13,1,,,,,,,,,,,,,,4,2.407510100005311,4,0.4,0.45,16.21932,return,1.8627048000053037,,,,,,,,,,,,,,,,,p318,21,female,left_right_width,2025-12-16_11h34.34.733,exp1,2023.1.0,59.99196107536744,
,,,,,,,,,,,,,,,,4,8.65,9.55,10.45,11.35,0,0.9,0.5,0.4,3.1,10,initial,36.05,312,344,377,409,0,9,9,9,9,0,,,,,,,1,0,1,0,0,14,14,32,,,,,,,,,,,,,,4,1.3366258000023663,4,0.2,0.35,12.61502,return,1.8580366999958642,,,,,,,,,,,,,,,,,p318,21,female,left_right_width,2025-12-16_11h34.34.733,exp1,2023.1.0,59.99196107536744,
,,,,,,,,,,,,,,,,5,8.95,9.475,10,10.525,11.05,0.525,0.125,0.4,2.5,10,match,36.05,323,342,361,379,398,9,9,9,9,9,,,,,,,1,0,1,0,0,15,15,27,,,,,,,,,,,,,,5,1.3372889000020223,5,0.35,0.39999999999999997,14.41717,return,1.169655399993644,,,,,,,,,,,,,,,,,p318,21,female,left_right_width,2025-12-16_11h34.34.733,exp1,2023.1.0,59.99196107536744,
,,,,,,,,,,,,,,,,3,8.2,10,11.8,0,0,1.8,1.25,0.55,4.15,10,match,36.05,296,361,425,0,0,9,9,9,0,0,,,,,,,1,0,1,0,0,16,16,47,,,,,,,,,,,,,,3,1.508663999993587,3,0.5,0.4,14.41717,return,1.7024130999925546,,,,,,,,,,,,,,,,,p318,21,female,left_right_width,2025-12-16_11h34.34.733,exp1,2023.1.0,59.99196107536744,
,,,,,,,,,,,,,,,,5,7.8,8.9,10,11.1,12.2,1.1,0.7000000000000001,0.4,4.800000000000001,10,initial,36.05,281,321,361,400,440,9,9,9,9,9,,,,,,,1,0,1,0,0,17,17,38,,,,,,,,,,,,,,4,1.7546585999953095,4,0.4,0.35000000000000003,12.61502,return,1.2849663000088185,,,,,,,,,,,,,,,,,p318,21,female,left_right_width,2025-12-16_11h34.34.733,exp1,2023.1.0,59.99196107536744,
,,,,,,,,,,,,,,,,4,9.1,9.7,10.3,10.9,0,0.6000000000000001,0.20000000000000004,0.4,2.2,10,match,36.05,328,350,371,393,0,9,9,9,9,0,,,,,,,1,0,1,0,0,18,18,16,,,,,,,,,,,,,,4,1.8174614000017755,4,0.35,0.39999999999999997,14.41717,return,1.9511678999988362,,,,,,,,,,,,,,,,,p318,21,female,left_right_width,2025-12-16_11h34.34.733,exp1,2023.1.0,59.99196107536744,
,,,,,,,,,,,,,,,,4,8.35,9.45,10.55,11.65,0,1.1,0.8500000000000001,0.25,3.5500000000000003,10,initial,36.05,301,341,380,420,0,9,9,9,9,0,,,,,,,1,0,1,0,0,19,19,19,,,,,,,,,,,,,,4,1.5380581999925198,4,0.2,0.15000000000000002,5.40644,return,1.988134800005355,,,,,,,,,,,,,,,,,p318,21,female,left_right_width,2025-12-16_11h34.34.733,exp1,2023.1.0,59.99196107536744,
,,,,,,,,,,,,,,,,3,8.2,10,11.8,0,0,1.7999999999999998,1.4,0.4,4,10,match,36.05,296,361,425,0,0,9,9,9,0,0,,,,,,,1,0,1,0,0,20,20,51,,,,,,,,,,,,,,2,1.4260721000027843,2,0.3,0.39999999999999997,14.41717,return,1.1760226000042167,,,,,,,,,,,,,,,,,p318,21,female,left_right_width,2025-12-16_11h34.34.733,exp1,2023.1.0,59.99196107536744,
,,,,,,,,,,,,,,,,5,7.8,8.9,10,11.1,12.2,1.1,0.8500000000000001,0.25,4.65,10,initial,36.05,281,321,361,400,440,9,9,9,9,9,,,,,,,1,0,1,0,0,21,21,36,,,,,,,,,,,,,,4,1.2422324000071967,4,0.45,0.15000000000000008,5.40644,return,2.3274500999978045,,,,,,,,,,,,,,,,,p318,21,female,left_right_width,2025-12-16_11h34.34.733,exp1,2023.1.0,59.99196107536744,
,,,,,,,,,,,,,,,,5,8.65,9.325,10,10.675,11.35,0.675,0.275,0.4,3.1,10,match,36.05,312,336,361,385,409,9,9,9,9,9,,,,,,,1,0,1,0,0,22,22,33,,,,,,,,,,,,,,5,1.1320600000035483,5,0.45,0.30000000000000004,10.81288,return,1.9828732000023592,,,,,,,,,,,,,,,,,p318,21,female,left_right_width,2025-12-16_11h34.34.733,exp1,2023.1.0,59.99196107536744,
,,,,,,,,,,,,,,,,4,8.9,9.633333333333333,10.366666666666667,11.1,0,0.7333333333333334,0.4833333333333334,0.25,2.45,10,match,36.05,321,347,374,400,0,9,9,9,9,0,,,,,,,1,0,1,0,0,23,23,3,,,,,,,,,,,,,,4,1.4592212999996264,4,0.45,0.20000000000000007,7.20859,return,1.9266269999934593,,,,,,,,,,,,,,,,,p318,21,female,left_right_width,2025-12-16_11h34.34.733,exp1,2023.1.0,59.99196107536744,
,,,,,,,,,,,,,,,,3,8.9,10,11.1,0,0,1.1,0.55,0.55,2.75,10,initial,36.05,321,361,400,0,0,9,9,9,0,0,,,,,,,1,0,1,0,0,24,24,0,,,,,,,,,,,,,,3,1.3559821999951964,3,0.25,0.39999999999999997,14.41717,return,2.4355785000079777,,,,,,,,,,,,,,,,,p318,21,female,left_right_width,2025-12-16_11h34.34.733,exp1,2023.1.0,59.99196107536744,
,,,,,,,,,,,,,,,,3,7.800000000000001,10,12.2,0,0,2.1999999999999997,1.7999999999999998,0.4,4.8,10,match,36.05,281,361,440,0,0,9,9,9,0,0,,,,,,,1,0,1,0,0,25,25,39,,,,,,,,,,,,,,2,1.5299763999937568,2,0.35,0.3,10.81288,return,1.1155449999932898,,,,,,,,,,,,,,,,,p318,21,female,left_right_width,2025-12-16_11h34.34.733,exp1,2023.1.0,59.99196107536744,
,,,,,,,,,,,,,,,,4,8.35,9.45,10.55,11.65,0,1.1,0.7000000000000001,0.4,3.7,10,initial,36.05,301,341,380,420,0,9,9,9,9,0,,,,,,,1,0,1,0,0,26,26,21,,,,,,,,,,,,,,4,1.4874679999920772,4,0.2,0.2,7.20859,return,1.7154290000034962,,,,,,,,,,,,,,,,,p318,21,female,left_right_width,2025-12-16_11h34.34.733,exp1,2023.1.0,59.99196107536744,
,,,,,,,,,,,,,,,,4,8.65,9.55,10.45,11.35,0,0.9,0.35,0.55,3.25,10,initial,36.05,312,344,377,409,0,9,9,9,9,0,,,,,,,1,0,1,0,0,27,27,28,,,,,,,,,,,,,,3,1.6695366999920225,3,0.35,0.44999999999999996,16.21932,return,2.0983701000077417,,,,,,,,,,,,,,,,,p318,21,female,left_right_width,2025-12-16_11h34.34.733,exp1,2023.1.0,59.99196107536744,
,,,,,,,,,,,,,,,,3,7.8,10,12.2,0,0,2.2,1.9500000000000002,0.25,4.65,10,match,36.05,281,361,440,0,0,9,9,9,0,0,,,,,,,1,0,1,0,0,28,28,37,,,,,,,,,,,,,,3,1.6978702000051271,3,0.45,0.15000000000000008,5.40644,return,2.012010399994324,,,,,,,,,,,,,,,,,p318,21,female,left_right_width,2025-12-16_11h34.34.733,exp1,2023.1.0,59.99196107536744,
,,,,,,,,,,,,,,,,3,9.3,10,10.7,0,0,0.7,0.44999999999999996,0.25,1.65,10,initial,36.05,335,361,386,0,0,9,9,9,0,0,,,,,,,1,0,1,0,0,29,29,7,,,,,,,,,,,,,,4,1.3973055000096792,4,0.25,0.15000000000000002,5.40644,return,4.909167999998317,,,,,,,,,,,,,,,,,p318,21,female,left_right_width,2025-12-16_11h34.34.733,exp1,2023.1.0,59.99196107536744,
,,,,,,,,,,,,,,,,4,8.65,9.55,10.45,11.35,0,0.9,0.65,0.25,2.95,10,initial,36.05,312,344,377,409,0,9,9,9,9,0,,,,,,,1,0,1,0,0,30,30,30,,,,,,,,,,,,,,4,1.3216054999938933,4,0.2,0.2,7.20859,return,2.164057400004822,,,,,,,,,,,,,,,,,p318,21,female,left_right_width,2025-12-16_11h34.34.733,exp1,2023.1.0,59.99196107536744,
,,,,,,,,,,,,,,,,3,9.1,10,10.9,0,0,0.9,0.5,0.4,2.2,10,initial,36.05,328,361,393,0,0,9,9,9,0,0,,,,,,,1,0,1,0,0,31,31,15,,,,,,,,,,,,,,3,1.4305989999993471,3,0.35,0.3,10.81288,return,2.284180999995442,,,,,,,,,,,,,,,,,p318,21,female,left_right_width,2025-12-16_11h34.34.733,exp1,2023.1.0,59.99196107536744,
,,,,,,,,,,,,,,,,3,8.6,10,11.4,0,0,1.4,0.85,0.55,3.35,10,match,36.05,310,361,411,0,0,9,9,9,0,0,,,,,,,1,0,1,0,0,32,32,41,,,,,,,,,,,,,,3,1.1862968000059482,3,0.45,0.35000000000000003,12.61502,return,2.657653299989761,,,,,,,,,,,,,,,,,p318,21,female,left_right_width,2025-12-16_11h34.34.733,exp1,2023.1.0,59.99196107536744,
,,,,,,,,,,,,,,,,4,8.35,9.45,10.55,11.65,0,1.1,0.55,0.55,3.8500000000000005,10,initial,36.05,301,341,380,420,0,9,9,9,9,0,,,,,,,1,0,1,0,0,33,33,17,,,,,,,,,,,,,,3,3.1991701999941142,3,0.5,0.4,14.41717,return,2.653476799998316,,,,,,,,,,,,,,,,,p318,21,female,left_right_width,2025-12-16_11h34.34.733,exp1,2023.1.0,59.99196107536744,
,,,,,,,,,,,,,,,,5,8.2,9.1,10,10.9,11.8,0.9,0.5,0.4,4,10,initial,36.05,296,328,361,393,425,9,9,9,9,9,,,,,,,1,0,1,0,0,34,34,50,,,,,,,,,,,,,,4,2.630953400002909,4,0.5,0.35000000000000003,12.61502,return,2.0111926999961725,,,,,,,,,,,,,,,,,p318,21,female,left_right_width,2025-12-16_11h34.34.733,exp1,2023.1.0,59.99196107536744,
,,,,,,,,,,,,,,,,4,9.1,9.7,10.3,10.9,0,0.6,0.04999999999999997,0.55,2.35,10,match,36.05,328,350,371,393,0,9,9,9,9,0,,,,,,,1,0,1,0,0,35,35,12,,,,,,,,,,,,,,3,1.653003900006297,3,0.45,0.8500000000000003,30.63649,return,2.928727299993625,,,,,,,,,,,,,,,,,p318,21,female,left_right_width,2025-12-16_11h34.34.733,exp1,2023.1.0,59.99196107536744,
,,,,,,,,,,,,,,,,5,8.6,9.3,10,10.7,11.4,0.7,0.44999999999999996,0.25,3.05,10,initial,36.05,310,335,361,386,411,9,9,9,9,9,,,,,,,1,0,1,0,0,36,36,42,,,,,,,,,,,,,,4,1.2060155999934068,4,0.3,0.2,7.20859,return,2.404551999992691,,,,,,,,,,,,,,,,,p318,21,female,left_right_width,2025-12-16_11h34.34.733,exp1,2023.1.0,59.99196107536744,
,,,,,,,,,,,,,,,,3,7.8,10,12.2,0,0,2.2,1.65,0.55,4.95,10,match,36.05,281,361,440,0,0,9,9,9,0,0,,,,,,,1,0,1,0,0,37,37,35,,,,,,,,,,,,,,3,1.236666900003911,3,0.3,0.44999999999999996,16.21932,return,2.322191399987787,,,,,,,,,,,,,,,,,p318,21,female,left_right_width,2025-12-16_11h34.34.733,exp1,2023.1.0,59.99196107536744,
,,,,,,,,,,,,,,,,3,9.1,10,10.9,0,0,0.9,0.65,0.25,2.05,10,initial,36.05,328,361,393,0,0,9,9,9,0,0,,,,,,,1,0,1,0,0,38,38,13,,,,,,,,,,,,,,2,1.589904699998442,2,0.45,0.15000000000000008,5.40644,return,2.6293620000069495,,,,,,,,,,,,,,,,,p318,21,female,left_right_width,2025-12-16_11h34.34.733,exp1,2023.1.0,59.99196107536744,
,,,,,,,,,,,,,,,,3,9.1,10,10.9,0,0,0.9,0.35,0.55,2.35,10,initial,36.05,328,361,393,0,0,9,9,9,0,0,,,,,,,1,0,1,0,0,39,39,11,,,,,,,,,,,,,,3,1.245551100000739,3,0.4,0.55,19.82361,return,3.7064396000059787,,,,,,,,,,,,,,,,,p318,21,female,left_right_width,2025-12-16_11h34.34.733,exp1,2023.1.0,59.99196107536744,
,,,,,,,,,,,,,,,,5,8.6,9.3,10,10.7,11.4,0.7,0.29999999999999993,0.4,3.1999999999999997,10,initial,36.05,310,335,361,386,411,9,9,9,9,9,,,,,,,1,0,1,0,0,40,40,44,,,,,,,,,,,,,,4,1.2891849000006914,4,0.45,0.5,18.02146,return,1.684367800000473,,,,,,,,,,,,,,,,,p318,21,female,left_right_width,2025-12-16_11h34.34.733,exp1,2023.1.0,59.99196107536744,
,,,,,,,,,,,,,,,,5,7.8,8.9,10,11.1,12.2,1.1,0.55,0.55,4.95,10,initial,36.05,281,321,361,400,440,9,9,9,9,9,,,,,,,1,0,1,0,0,41,41,34,,,,,,,,,,,,,,4,1.3589421000069706,4,0.4,0.5,18.02146,return,2.7746818000014173,,,,,,,,,,,,,,,,,p318,21,female,left_right_width,2025-12-16_11h34.34.733,exp1,2023.1.0,59.99196107536744,
,,,,,,,,,,,,,,,,3,9.3,10,10.7,0,0,0.7,0.1499999999999999,0.55,1.95,10,initial,36.05,335,361,386,0,0,9,9,9,0,0,,,,,,,1,0,1,0,0,42,42,6,,,,,,,,,,,,,,2,1.1255977999971947,2,0.4,0.45,16.21932,return,1.62279030001082,,,,,,,,,,,,,,,,,p318,21,female,left_right_width,2025-12-16_11h34.34.733,exp1,2023.1.0,59.99196107536744,
,,,,,,,,,,,,,,,,3,8.9,10,11.1,0,0,1.1,0.8500000000000001,0.25,2.45,10,initial,36.05,321,361,400,0,0,9,9,9,0,0,,,,,,,1,0,1,0,0,43,43,2,,,,,,,,,,,,,,3,1.2626479999889852,3,0.45,0.35000000000000003,12.61502,return,1.5326024000096368,,,,,,,,,,,,,,,,,p318,21,female,left_right_width,2025-12-16_11h34.34.733,exp1,2023.1.0,59.99196107536744,
,,,,,,,,,,,,,,,,3,8.525,10,11.475,0,0,1.475,1.225,0.25,3.2,10,match,36.05,307,361,414,0,0,9,9,9,0,0,,,,,,,1,0,1,0,0,44,44,45,,,,,,,,,,,,,,3,1.82672630000161,3,0.2,0.10000000000000002,3.60429,return,1.944799899996724,,,,,,,,,,,,,,,,,p318,21,female,left_right_width,2025-12-16_11h34.34.733,exp1,2023.1.0,59.99196107536744,
,,,,,,,,,,,,,,,,5,8.35,9.175,10,10.825,11.65,0.825,0.575,0.25,3.55,10,match,36.05,301,331,361,390,420,9,9,9,9,9,,,,,,,1,0,1,0,0,45,45,20,,,,,,,,,,,,,,5,1.255561999991187,5,0.5,0.10000000000000007,3.60429,return,2.9158413000113796,,,,,,,,,,,,,,,,,p318,21,female,left_right_width,2025-12-16_11h34.34.733,exp1,2023.1.0,59.99196107536744,
,,,,,,,,,,,,,,,,5,8.275,9.1375,10,10.8625,11.725,0.8625,0.6125,0.25,3.7,10,match,36.05,298,329,361,392,423,9,9,9,9,9,,,,,,,1,0,1,0,0,46,46,22,,,,,,,,,,,,,,6,1.2229231999954209,6,0.25,0.15000000000000002,5.40644,return,1.860629400005564,,,,,,,,,,,,,,,,,p318,21,female,left_right_width,2025-12-16_11h34.34.733,exp1,2023.1.0,59.99196107536744,
,,,,,,,,,,,,,,,,4,9.1,9.7,10.3,10.9,0,0.5999999999999999,0.3499999999999999,0.25,2.05,10,match,36.05,328,350,371,393,0,9,9,9,9,0,,,,,,,1,0,1,0,0,47,47,14,,,,,,,,,,,,,,4,1.315497100003995,4,0.3,0.15000000000000002,5.40644,return,2.2220646999921883,,,,,,,,,,,,,,,,,p318,21,female,left_right_width,2025-12-16_11h34.34.733,exp1,2023.1.0,59.99196107536744,
,,,,,,,,,,,,,,,,3,8.6,10,11.4,0,0,1.4,1.15,0.25,3.05,10,match,36.05,310,361,411,0,0,9,9,9,0,0,,,,,,,1,0,1,0,0,48,48,43,,,,,,,,,,,,,,2,1.4207508999970742,2,0.45,0.15000000000000008,5.40644,return,2.4984091999940574,,,,,,,,,,,,,,,,,p318,21,female,left_right_width,2025-12-16_11h34.34.733,exp1,2023.1.0,59.99196107536744,
,,,,,,,,,,,,,,,,4,9.3,9.766666666666667,10.233333333333333,10.7,0,0.4666666666666667,0.06666666666666665,0.4,1.8,10,match,36.05,335,352,369,386,0,9,9,9,9,0,,,,,,,1,0,1,0,0,49,49,10,,,,,,,,,,,,,,4,1.1678388000000268,4,0.5,0.25000000000000006,9.01073,return,2.080132000002777,,,,,,,,,,,,,,,,,p318,21,female,left_right_width,2025-12-16_11h34.34.733,exp1,2023.1.0,59.99196107536744,
,,,,,,,,,,,,,,,,5,8.2,9.1,10,10.9,11.8,0.9,0.35,0.55,4.15,10,initial,36.05,296,328,361,393,425,9,9,9,9,9,,,,,,,1,0,1,0,0,50,50,46,,,,,,,,,,,,,,6,1.2208097999973688,6,0.4,0.45,16.21932,return,2.3081060999975307,,,,,,,,,,,,,,,,,p318,21,female,left_right_width,2025-12-16_11h34.34.733,exp1,2023.1.0,59.99196107536744,
,,,,,,,,,,,,,,,,3,8.9,10,11.1,0,0,1.1,0.7000000000000001,0.4,2.6000000000000005,10,initial,36.05,321,361,400,0,0,9,9,9,0,0,,,,,,,1,0,1,0,0,51,51,4,,,,,,,,,,,,,,3,1.2091159999981755,3,0.2,0.39999999999999997,14.41717,return,2.4862658999918494,,,,,,,,,,,,,,,,,p318,21,female,left_right_width,2025-12-16_11h34.34.733,exp1,2023.1.0,59.99196107536744,
,,,,,,,,,,,,,,,,,,,,,,,,,,,,,,,,,,,,,,,,,,,,,1,0,1,0,,,,,,,,,,,,,,,,,,,,,,,,,,,,1271.1325588000036,1271.1325588000036,1271.1325588000036,,,,,,,,,,,,p318,21,female,left_right_width,2025-12-16_11h34.34.733,exp1,2023.1.0,59.99196107536744,
,,,,,,,,,,,,,,,,3,7.800000000000001,10,12.2,0,0,2.1999999999999997,1.7999999999999998,0.4,4.8,10,match,36.05,281,361,440,0,0,9,9,9,0,0,,,,,,,2,0,2,0,0,0,0,39,,,,,,,,,,,,,,3,1.4487504999997327,3,0.35,0.44999999999999996,16.21932,return,1.855207499989774,,,,,,,,,,,,,,,,,p318,21,female,left_right_width,2025-12-16_11h34.34.733,exp1,2023.1.0,59.99196107536744,
,,,,,,,,,,,,,,,,3,8.2,10,11.8,0,0,1.7999999999999998,1.4,0.4,4,10,match,36.05,296,361,425,0,0,9,9,9,0,0,,,,,,,2,0,2,0,0,1,1,51,,,,,,,,,,,,,,3,1.2528251000039745,3,0.35,0.25,9.01073,return,0.9135136999975657,,,,,,,,,,,,,,,,,p318,21,female,left_right_width,2025-12-16_11h34.34.733,exp1,2023.1.0,59.99196107536744,
,,,,,,,,,,,,,,,,5,8.6,9.3,10,10.7,11.4,0.7,0.29999999999999993,0.4,3.1999999999999997,10,initial,36.05,310,335,361,386,411,9,9,9,9,9,,,,,,,2,0,2,0,0,2,2,44,,,,,,,,,,,,,,4,1.1636997000023257,4,0.45,0.45,16.21932,return,2.026795999991009,,,,,,,,,,,,,,,,,p318,21,female,left_right_width,2025-12-16_11h34.34.733,exp1,2023.1.0,59.99196107536744,
,,,,,,,,,,,,,,,,3,8.6,10,11.4,0,0,1.4,1.15,0.25,3.05,10,match,36.05,310,361,411,0,0,9,9,9,0,0,,,,,,,2,0,2,0,0,3,3,43,,,,,,,,,,,,,,2,1.1071559999982128,2,0.35,0.15000000000000002,5.40644,return,1.1733630999951856,,,,,,,,,,,,,,,,,p318,21,female,left_right_width,2025-12-16_11h34.34.733,exp1,2023.1.0,59.99196107536744,
,,,,,,,,,,,,,,,,5,7.8,8.9,10,11.1,12.2,1.1,0.7000000000000001,0.4,4.800000000000001,10,initial,36.05,281,321,361,400,440,9,9,9,9,9,,,,,,,2,0,2,0,0,4,4,38,,,,,,,,,,,,,,5,1.3847717999888118,5,0.4,0.25000000000000006,9.01073,return,1.4868609999975888,,,,,,,,,,,,,,,,,p318,21,female,left_right_width,2025-12-16_11h34.34.733,exp1,2023.1.0,59.99196107536744,
,,,,,,,,,,,,,,,,4,9.3,9.766666666666667,10.233333333333333,10.7,0,0.4666666666666667,0.21666666666666665,0.25,1.65,10,match,36.05,335,352,369,386,0,9,9,9,9,0,,,,,,,2,0,2,0,0,5,5,8,,,,,,,,,,,,,,4,1.2216091000009328,4,0.2,0.25,9.01073,return,1.5865630999905989,,,,,,,,,,,,,,,,,p318,21,female,left_right_width,2025-12-16_11h34.34.733,exp1,2023.1.0,59.99196107536744,
,,,,,,,,,,,,,,,,4,8.95,9.65,10.35,11.05,0,0.7,0.1499999999999999,0.55,2.65,10,initial,36.05,323,348,373,398,0,9,9,9,9,0,,,,,,,2,0,2,0,0,6,6,23,,,,,,,,,,,,,,4,2.1023465000034776,4,0.25,0.35,12.61502,return,1.361395400002948,,,,,,,,,,,,,,,,,p318,21,female,left_right_width,2025-12-16_11h34.34.733,exp1,2023.1.0,59.99196107536744,
,,,,,,,,,,,,,,,,4,8.65,9.55,10.45,11.35,0,0.9,0.35,0.55,3.25,10,initial,36.05,312,344,377,409,0,9,9,9,9,0,,,,,,,2,0,2,0,0,7,7,28,,,,,,,,,,,,,,4,1.9214784999930998,4,0.25,0.39999999999999997,14.41717,return,1.5708496000006562,,,,,,,,,,,,,,,,,p318,21,female,left_right_width,2025-12-16_11h34.34.733,exp1,2023.1.0,59.99196107536744,
,,,,,,,,,,,,,,,,4,8.65,9.55,10.45,11.35,0,0.9,0.5,0.4,3.1,10,initial,36.05,312,344,377,409,0,9,9,9,9,0,,,,,,,2,0,2,0,0,8,8,32,,,,,,,,,,,,,,4,1.1275636999926064,4,0.25,0.35,12.61502,return,2.0727931000001263,,,,,,,,,,,,,,,,,p318,21,female,left_right_width,2025-12-16_11h34.34.733,exp1,2023.1.0,59.99196107536744,
,,,,,,,,,,,,,,,,4,8.9,9.633333333333333,10.366666666666667,11.1,0,0.7333333333333333,0.18333333333333326,0.55,2.75,10,match,36.05,321,347,374,400,0,9,9,9,9,0,,,,,,,2,0,2,0,0,9,9,1,,,,,,,,,,,,,,3,1.5931755999918096,3,0.25,0.44999999999999996,16.21932,return,2.1850848000030965,,,,,,,,,,,,,,,,,p318,21,female,left_right_width,2025-12-16_11h34.34.733,exp1,2023.1.0,59.99196107536744,
,,,,,,,,,,,,,,,,3,8.2,10,11.8,0,0,1.8,1.55,0.25,3.85,10,match,36.05,296,361,425,0,0,9,9,9,0,0,,,,,,,2,0,2,0,0,10,10,49,,,,,,,,,,,,,,3,3.362638100006734,3,0.2,0.10000000000000002,3.60429,return,1.115056900001946,,,,,,,,,,,,,,,,,p318,21,female,left_right_width,2025-12-16_11h34.34.733,exp1,2023.1.0,59.99196107536744,
,,,,,,,,,,,,,,,,5,8.6,9.3,10,10.7,11.4,0.7,0.44999999999999996,0.25,3.05,10,initial,36.05,310,335,361,386,411,9,9,9,9,9,,,,,,,2,0,2,0,0,11,11,42,,,,,,,,,,,,,,5,1.3399369999970077,5,0.5,0.15000000000000008,5.40644,return,2.0847591999918222,,,,,,,,,,,,,,,,,p318,21,female,left_right_width,2025-12-16_11h34.34.733,exp1,2023.1.0,59.99196107536744,
,,,,,,,,,,,,,,,,5,8.95,9.475,10,10.525,11.05,0.525,0.125,0.4,2.5,10,match,36.05,323,342,361,379,398,9,9,9,9,9,,,,,,,2,0,2,0,0,12,12,27,,,,,,,,,,,,,,4,1.2428848999988986,4,0.45,0.45,16.21932,return,3.032557300000917,,,,,,,,,,,,,,,,,p318,21,female,left_right_width,2025-12-16_11h34.34.733,exp1,2023.1.0,59.99196107536744,
,,,,,,,,,,,,,,,,3,8.6,10,11.4,0,0,1.4,0.85,0.55,3.35,10,match,36.05,310,361,411,0,0,9,9,9,0,0,,,,,,,2,0,2,0,0,13,13,41,,,,,,,,,,,,,,2,1.2849661000072956,2,0.3,0.49999999999999994,18.02146,return,1.4407267999922624,,,,,,,,,,,,,,,,,p318,21,female,left_right_width,2025-12-16_11h34.34.733,exp1,2023.1.0,59.99196107536744,
,,,,,,,,,,,,,,,,5,8.65,9.325,10,10.675,11.35,0.675,0.42500000000000004,0.25,2.95,10,match,36.05,312,336,361,385,409,9,9,9,9,9,,,,,,,2,0,2,0,0,14,14,31,,,,,,,,,,,,,,4,1.4241733999951975,4,0.25,0.25,9.01073,return,1.2383774000045378,,,,,,,,,,,,,,,,,p318,21,female,left_right_width,2025-12-16_11h34.34.733,exp1,2023.1.0,59.99196107536744,
,,,,,,,,,,,,,,,,4,9.1,9.7,10.3,10.9,0,0.6000000000000001,0.20000000000000004,0.4,2.2,10,match,36.05,328,350,371,393,0,9,9,9,9,0,,,,,,,2,0,2,0,0,15,15,16,,,,,,,,,,,,,,4,2.0594131000107154,4,0.3,0.39999999999999997,14.41717,return,1.8475762000016402,,,,,,,,,,,,,,,,,p318,21,female,left_right_width,2025-12-16_11h34.34.733,exp1,2023.1.0,59.99196107536744,
,,,,,,,,,,,,,,,,4,8.95,9.65,10.35,11.05,0,0.7,0.29999999999999993,0.4,2.5,10,initial,36.05,323,348,373,398,0,9,9,9,9,0,,,,,,,2,0,2,0,0,16,16,26,,,,,,,,,,,,,,4,1.4256263999996008,4,0.25,0.3,10.81288,return,1.3027982999919914,,,,,,,,,,,,,,,,,p318,21,female,left_right_width,2025-12-16_11h34.34.733,exp1,2023.1.0,59.99196107536744,
,,,,,,,,,,,,,,,,3,9.1,10,10.9,0,0,0.9,0.35,0.55,2.35,10,initial,36.05,328,361,393,0,0,9,9,9,0,0,,,,,,,2,0,2,0,0,17,17,11,,,,,,,,,,,,,,3,1.060738099986338,3,0.55,0.6000000000000001,21.62576,return,1.3362745000049472,,,,,,,,,,,,,,,,,p318,21,female,left_right_width,2025-12-16_11h34.34.733,exp1,2023.1.0,59.99196107536744,
,,,,,,,,,,,,,,,,4,8.95,9.65,10.35,11.05,0,0.7,0.44999999999999996,0.25,2.3499999999999996,10,initial,36.05,323,348,373,398,0,9,9,9,9,0,,,,,,,2,0,2,0,0,18,18,24,,,,,,,,,,,,,,3,1.392265899994527,3,0.55,0.30000000000000004,10.81288,return,1.7188136000040686,,,,,,,,,,,,,,,,,p318,21,female,left_right_width,2025-12-16_11h34.34.733,exp1,2023.1.0,59.99196107536744,
,,,,,,,,,,,,,,,,3,9.1,10,10.9,0,0,0.9,0.5,0.4,2.2,10,initial,36.05,328,361,393,0,0,9,9,9,0,0,,,,,,,2,0,2,0,0,19,19,15,,,,,,,,,,,,,,3,0.998135200003162,3,0.2,0.35,12.61502,return,2.013560499995947,,,,,,,,,,,,,,,,,p318,21,female,left_right_width,2025-12-16_11h34.34.733,exp1,2023.1.0,59.99196107536744,
,,,,,,,,,,,,,,,,4,9.1,9.7,10.3,10.9,0,0.5999999999999999,0.3499999999999999,0.25,2.05,10,match,36.05,328,350,371,393,0,9,9,9,9,0,,,,,,,2,0,2,0,0,20,20,14,,,,,,,,,,,,,,4,2.991862399998354,4,0.55,0.20000000000000007,7.20859,return,3.0310399000009056,,,,,,,,,,,,,,,,,p318,21,female,left_right_width,2025-12-16_11h34.34.733,exp1,2023.1.0,59.99196107536744,
,,,,,,,,,,,,,,,,3,8.9,10,11.1,0,0,1.1,0.7000000000000001,0.4,2.6000000000000005,10,initial,36.05,321,361,400,0,0,9,9,9,0,0,,,,,,,2,0,2,0,0,21,21,4,,,,,,,,,,,,,,2,1.6974538000067696,2,0.5,0.30000000000000004,10.81288,return,1.8515836000005947,,,,,,,,,,,,,,,,,p318,21,female,left_right_width,2025-12-16_11h34.34.733,exp1,2023.1.0,59.99196107536744,
,,,,,,,,,,,,,,,,4,8.9,9.633333333333333,10.366666666666667,11.1,0,0.7333333333333334,0.4833333333333334,0.25,2.45,10,match,36.05,321,347,374,400,0,9,9,9,9,0,,,,,,,2,0,2,0,0,22,22,3,,,,,,,,,,,,,,4,1.4196036999928765,4,0.35,0.3,10.81288,return,2.0491008999961196,,,,,,,,,,,,,,,,,p318,21,female,left_right_width,2025-12-16_11h34.34.733,exp1,2023.1.0,59.99196107536744,
,,,,,,,,,,,,,,,,5,8.2,9.1,10,10.9,11.8,0.9,0.35,0.55,4.15,10,initial,36.05,296,328,361,393,425,9,9,9,9,9,,,,,,,2,0,2,0,0,23,23,46,,,,,,,,,,,,,,4,1.2673007999983383,4,0.3,0.5499999999999999,19.82361,return,4.111526199994842,,,,,,,,,,,,,,,,,p318,21,female,left_right_width,2025-12-16_11h34.34.733,exp1,2023.1.0,59.99196107536744,
,,,,,,,,,,,,,,,,3,9.3,10,10.7,0,0,0.7,0.29999999999999993,0.4,1.8,10,initial,36.05,335,361,386,0,0,9,9,9,0,0,,,,,,,2,0,2,0,0,24,24,9,,,,,,,,,,,,,,3,1.271898599996348,3,0.25,0.35,12.61502,return,1.6030666000006022,,,,,,,,,,,,,,,,,p318,21,female,left_right_width,2025-12-16_11h34.34.733,exp1,2023.1.0,59.99196107536744,
,,,,,,,,,,,,,,,,3,7.8,10,12.2,0,0,2.2,1.65,0.55,4.95,10,match,36.05,281,361,440,0,0,9,9,9,0,0,,,,,,,2,0,2,0,0,25,25,35,,,,,,,,,,,,,,3,1.1645726999995532,3,0.25,0.39999999999999997,14.41717,return,1.2921567000012146,,,,,,,,,,,,,,,,,p318,21,female,left_right_width,2025-12-16_11h34.34.733,exp1,2023.1.0,59.99196107536744,
,,,,,,,,,,,,,,,,3,8.2,10,11.8,0,0,1.8,1.25,0.55,4.15,10,match,36.05,296,361,425,0,0,9,9,9,0,0,,,,,,,2,0,2,0,0,26,26,47,,,,,,,,,,,,,,3,1.5365912999986904,3,0.5,0.45,16.21932,return,1.3139739999896847,,,,,,,,,,,,,,,,,p318,21,female,left_right_width,2025-12-16_11h34.34.733,exp1,2023.1.0,59.99196107536744,
,,,,,,,,,,,,,,,,3,9.3,10,10.7,0,0,0.7,0.1499999999999999,0.55,1.95,10,initial,36.05,335,361,386,0,0,9,9,9,0,0,,,,,,,2,0,2,0,0,27,27,6,,,,,,,,,,,,,,3,1.3600873999967007,3,0.35,0.44999999999999996,16.21932,return,2.1210177000029944,,,,,,,,,,,,,,,,,p318,21,female,left_right_width,2025-12-16_11h34.34.733,exp1,2023.1.0,59.99196107536744,
,,,,,,,,,,,,,,,,5,7.8,8.9,10,11.1,12.2,1.1,0.55,0.55,4.95,10,initial,36.05,281,321,361,400,440,9,9,9,9,9,,,,,,,2,0,2,0,0,28,28,34,,,,,,,,,,,,,,5,1.4287099000066519,5,0.45,0.5,18.02146,return,1.4351329000055557,,,,,,,,,,,,,,,,,p318,21,female,left_right_width,2025-12-16_11h34.34.733,exp1,2023.1.0,59.99196107536744,
,,,,,,,,,,,,,,,,5,8.2,9.1,10,10.9,11.8,0.9,0.65,0.25,3.85,10,initial,36.05,296,328,361,393,425,9,9,9,9,9,,,,,,,2,0,2,0,0,29,29,48,,,,,,,,,,,,,,6,1.1946365000039805,6,0.3,0.15000000000000002,5.40644,return,1.6726412999996683,,,,,,,,,,,,,,,,,p318,21,female,left_right_width,2025-12-16_11h34.34.733,exp1,2023.1.0,59.99196107536744,
,,,,,,,,,,,,,,,,5,8.6,9.3,10,10.7,11.4,0.7,0.1499999999999999,0.55,3.3499999999999996,10,initial,36.05,310,335,361,386,411,9,9,9,9,9,,,,,,,2,0,2,0,0,30,30,40,,,,,,,,,,,,,,4,0.8455959999846527,4,0.25,0.5499999999999999,19.82361,return,2.395203099993523,,,,,,,,,,,,,,,,,p318,21,female,left_right_width,2025-12-16_11h34.34.733,exp1,2023.1.0,59.99196107536744,
,,,,,,,,,,,,,,,,3,8.525,10,11.475,0,0,1.475,1.225,0.25,3.2,10,match,36.05,307,361,414,0,0,9,9,9,0,0,,,,,,,2,0,2,0,0,31,31,45,,,,,,,,,,,,,,4,0.6794488000014098,4,0.45,0.15000000000000008,5.40644,return,2.2519459999894025,,,,,,,,,,,,,,,,,p318,21,female,left_right_width,2025-12-16_11h34.34.733,exp1,2023.1.0,59.99196107536744,
,,,,,,,,,,,,,,,,4,8.35,9.45,10.55,11.65,0,1.1,0.55,0.55,3.8500000000000005,10,initial,36.05,301,341,380,420,0,9,9,9,9,0,,,,,,,2,0,2,0,0,32,32,17,,,,,,,,,,,,,,4,1.816224100010004,4,0.5,0.30000000000000004,10.81288,return,1.6476644000067608,,,,,,,,,,,,,,,,,p318,21,female,left_right_width,2025-12-16_11h34.34.733,exp1,2023.1.0,59.99196107536744,
,,,,,,,,,,,,,,,,5,8.275,9.1375,10,10.8625,11.725,0.8625,0.6125,0.25,3.7,10,match,36.05,298,329,361,392,423,9,9,9,9,9,,,,,,,2,0,2,0,0,33,33,22,,,,,,,,,,,,,,5,1.4353343999973731,5,0.45,0.20000000000000007,7.20859,return,2.0964580999861937,,,,,,,,,,,,,,,,,p318,21,female,left_right_width,2025-12-16_11h34.34.733,exp1,2023.1.0,59.99196107536744,
,,,,,,,,,,,,,,,,4,9.3,9.766666666666667,10.233333333333333,10.7,0,0.4666666666666667,0.06666666666666665,0.4,1.8,10,match,36.05,335,352,369,386,0,9,9,9,9,0,,,,,,,2,0,2,0,0,34,34,10,,,,,,,,,,,,,,3,2.7404747999971732,3,0.3,0.44999999999999996,16.21932,return,1.8288214999920456,,,,,,,,,,,,,,,,,p318,21,female,left_right_width,2025-12-16_11h34.34.733,exp1,2023.1.0,59.99196107536744,
,,,,,,,,,,,,,,,,5,8.2,9.1,10,10.9,11.8,0.9,0.5,0.4,4,10,initial,36.05,296,328,361,393,425,9,9,9,9,9,,,,,,,2,0,2,0,0,35,35,50,,,,,,,,,,,,,,4,0.8344327999948291,4,0.5,0.45,16.21932,return,1.8249265999911586,,,,,,,,,,,,,,,,,p318,21,female,left_right_width,2025-12-16_11h34.34.733,exp1,2023.1.0,59.99196107536744,
,,,,,,,,,,,,,,,,4,8.35,9.45,10.55,11.65,0,1.1,0.8500000000000001,0.25,3.5500000000000003,10,initial,36.05,301,341,380,420,0,9,9,9,9,0,,,,,,,2,0,2,0,0,36,36,19,,,,,,,,,,,,,,4,1.424633399990853,4,0.25,0.15000000000000002,5.40644,return,1.3658499000011943,,,,,,,,,,,,,,,,,p318,21,female,left_right_width,2025-12-16_11h34.34.733,exp1,2023.1.0,59.99196107536744,
,,,,,,,,,,,,,,,,5,7.8,8.9,10,11.1,12.2,1.1,0.8500000000000001,0.25,4.65,10,initial,36.05,281,321,361,400,440,9,9,9,9,9,,,,,,,2,0,2,0,0,37,37,36,,,,,,,,,,,,,,5,1.3019614999939222,5,0.2,0.15000000000000002,5.40644,return,1.9215477999969153,,,,,,,,,,,,,,,,,p318,21,female,left_right_width,2025-12-16_11h34.34.733,exp1,2023.1.0,59.99196107536744,
,,,,,,,,,,,,,,,,4,8.35,9.45,10.55,11.65,0,1.1,0.7000000000000001,0.4,3.7,10,initial,36.05,301,341,380,420,0,9,9,9,9,0,,,,,,,2,0,2,0,0,38,38,21,,,,,,,,,,,,,,4,0.949202999996487,4,0.45,0.20000000000000007,7.20859,return,1.9674555999954464,,,,,,,,,,,,,,,,,p318,21,female,left_right_width,2025-12-16_11h34.34.733,exp1,2023.1.0,59.99196107536744,
,,,,,,,,,,,,,,,,3,8.9,10,11.1,0,0,1.1,0.55,0.55,2.75,10,initial,36.05,321,361,400,0,0,9,9,9,0,0,,,,,,,2,0,2,0,0,39,39,0,,,,,,,,,,,,,,3,1.4631994000083068,3,0.4,0.30000000000000004,10.81288,return,1.180156900009024,,,,,,,,,,,,,,,,,p318,21,female,left_right_width,2025-12-16_11h34.34.733,exp1,2023.1.0,59.99196107536744,
,,,,,,,,,,,,,,,,4,8.825,9.608333333333333,10.391666666666667,11.175,0,0.7833333333333333,0.5333333333333333,0.25,2.6,10,match,36.05,318,346,375,403,0,9,9,9,9,0,,,,,,,2,0,2,0,0,40,40,5,,,,,,,,,,,,,,4,0.9974829999991925,4,0.5,0.25000000000000006,9.01073,return,1.9966636000026483,,,,,,,,,,,,,,,,,p318,21,female,left_right_width,2025-12-16_11h34.34.733,exp1,2023.1.0,59.99196107536744,
,,,,,,,,,,,,,,,,4,9.1,9.7,10.3,10.9,0,0.6,0.04999999999999997,0.55,2.35,10,match,36.05,328,350,371,393,0,9,9,9,9,0,,,,,,,2,0,2,0,0,41,41,12,,,,,,,,,,,,,,3,1.5665465000056429,3,0.25,0.65,23.4279,return,2.926889800000936,,,,,,,,,,,,,,,,,p318,21,female,left_right_width,2025-12-16_11h34.34.733,exp1,2023.1.0,59.99196107536744,
,,,,,,,,,,,,,,,,3,9.3,10,10.7,0,0,0.7,0.44999999999999996,0.25,1.65,10,initial,36.05,335,361,386,0,0,9,9,9,0,0,,,,,,,2,0,2,0,0,42,42,7,,,,,,,,,,,,,,3,1.0307823000039207,3,0.3,0.2,7.20859,return,0.990162899994175,,,,,,,,,,,,,,,,,p318,21,female,left_right_width,2025-12-16_11h34.34.733,exp1,2023.1.0,59.99196107536744,
,,,,,,,,,,,,,,,,3,8.9,10,11.1,0,0,1.1,0.8500000000000001,0.25,2.45,10,initial,36.05,321,361,400,0,0,9,9,9,0,0,,,,,,,2,0,2,0,0,43,43,2,,,,,,,,,,,,,,3,0.8554834999958985,3,0.45,0.25000000000000006,9.01073,return,1.554856300004758,,,,,,,,,,,,,,,,,p318,21,female,left_right_width,2025-12-16_11h34.34.733,exp1,2023.1.0,59.99196107536744,
,,,,,,,,,,,,,,,,5,8.35,9.175,10,10.825,11.65,0.825,0.575,0.25,3.55,10,match,36.05,301,331,361,390,420,9,9,9,9,9,,,,,,,2,0,2,0,0,44,44,20,,,,,,,,,,,,,,4,1.6991839999973308,4,0.2,0.15000000000000002,5.40644,return,1.4049847999995109,,,,,,,,,,,,,,,,,p318,21,female,left_right_width,2025-12-16_11h34.34.733,exp1,2023.1.0,59.99196107536744,
,,,,,,,,,,,,,,,,3,9.1,10,10.9,0,0,0.9,0.65,0.25,2.05,10,initial,36.05,328,361,393,0,0,9,9,9,0,0,,,,,,,2,0,2,0,0,45,45,13,,,,,,,,,,,,,,3,1.5024099000002025,3,0.25,0.2,7.20859,return,0.993556899993564,,,,,,,,,,,,,,,,,p318,21,female,left_right_width,2025-12-16_11h34.34.733,exp1,2023.1.0,59.99196107536744,
,,,,,,,,,,,,,,,,5,8.65,9.325,10,10.675,11.35,0.675,0.125,0.55,3.25,10,match,36.05,312,336,361,385,409,9,9,9,9,9,,,,,,,2,0,2,0,0,46,46,29,,,,,,,,,,,,,,4,1.3401784999878146,4,0.5,0.5,18.02146,return,1.2054604000004474,,,,,,,,,,,,,,,,,p318,21,female,left_right_width,2025-12-16_11h34.34.733,exp1,2023.1.0,59.99196107536744,
,,,,,,,,,,,,,,,,3,7.8,10,12.2,0,0,2.2,1.9500000000000002,0.25,4.65,10,match,36.05,281,361,440,0,0,9,9,9,0,0,,,,,,,2,0,2,0,0,47,47,37,,,,,,,,,,,,,,4,0.6857422999892151,4,0.45,0.20000000000000007,7.20859,return,3.8887240000040038,,,,,,,,,,,,,,,,,p318,21,female,left_right_width,2025-12-16_11h34.34.733,exp1,2023.1.0,59.99196107536744,
,,,,,,,,,,,,,,,,4,8.65,9.55,10.45,11.35,0,0.9,0.65,0.25,2.95,10,initial,36.05,312,344,377,409,0,9,9,9,9,0,,,,,,,2,0,2,0,0,48,48,30,,,,,,,,,,,,,,4,0.8190521000069566,4,0.5,0.30000000000000004,10.81288,return,1.792882900001132,,,,,,,,,,,,,,,,,p318,21,female,left_right_width,2025-12-16_11h34.34.733,exp1,2023.1.0,59.99196107536744,
,,,,,,,,,,,,,,,,5,8.35,9.175,10,10.825,11.65,0.8250000000000001,0.275,0.55,3.85,10,match,36.05,301,331,361,390,420,9,9,9,9,9,,,,,,,2,0,2,0,0,49,49,18,,,,,,,,,,,,,,5,1.4253346000041347,5,0.35,0.44999999999999996,16.21932,return,1.5120163999963552,,,,,,,,,,,,,,,,,p318,21,female,left_right_width,2025-12-16_11h34.34.733,exp1,2023.1.0,59.99196107536744,
,,,,,,,,,,,,,,,,5,8.65,9.325,10,10.675,11.35,0.675,0.275,0.4,3.1,10,match,36.05,312,336,361,385,409,9,9,9,9,9,,,,,,,2,0,2,0,0,50,50,33,,,,,,,,,,,,,,5,1.3842658000066876,5,0.5,0.45,16.21932,return,1.7438656000012998,,,,,,,,,,,,,,,,,p318,21,female,left_right_width,2025-12-16_11h34.34.733,exp1,2023.1.0,59.99196107536744,
,,,,,,,,,,,,,,,,5,8.95,9.475,10,10.525,11.05,0.525,0.275,0.25,2.35,10,match,36.05,323,342,361,379,398,9,9,9,9,9,,,,,,,2,0,2,0,0,51,51,25,,,,,,,,,,,,,,4,1.8441279999969993,4,0.55,0.15000000000000008,5.40644,return,2.473240400009672,,,,,,,,,,,,,,,,,p318,21,female,left_right_width,2025-12-16_11h34.34.733,exp1,2023.1.0,59.99196107536744,
,,,,,,,,,,,,,,,,,,,,,,,,,,,,,,,,,,,,,,,,,,,,,2,0,2,0,,,,,,,,,,,,,,,,,,,,,,,,,,,,1569.8657808999997,1569.8657808999997,1569.8657808999997,,,,,,,,,,,,p318,21,female,left_right_width,2025-12-16_11h34.34.733,exp1,2023.1.0,59.99196107536744,
,,,,,,,,,,,,,,,,4,8.35,9.45,10.55,11.65,0,1.1,0.8500000000000001,0.25,3.5500000000000003,10,initial,36.05,301,341,380,420,0,9,9,9,9,0,,,,,,,3,0,3,0,0,0,0,19,,,,,,,,,,,,,,3,1.182593799996539,3,0.4,0.20000000000000007,7.20859,return,1.4696493999945233,,,,,,,,,,,,,,,,,p318,21,female,left_right_width,2025-12-16_11h34.34.733,exp1,2023.1.0,59.99196107536744,
,,,,,,,,,,,,,,,,3,9.1,10,10.9,0,0,0.9,0.5,0.4,2.2,10,initial,36.05,328,361,393,0,0,9,9,9,0,0,,,,,,,3,0,3,0,0,1,1,15,,,,,,,,,,,,,,3,1.199409699984244,3,0.4,0.5,18.02146,return,0.975972999993246,,,,,,,,,,,,,,,,,p318,21,female,left_right_width,2025-12-16_11h34.34.733,exp1,2023.1.0,59.99196107536744,
,,,,,,,,,,,,,,,,3,8.9,10,11.1,0,0,1.1,0.55,0.55,2.75,10,initial,36.05,321,361,400,0,0,9,9,9,0,0,,,,,,,3,0,3,0,0,2,2,0,,,,,,,,,,,,,,3,1.1689107999991393,3,0.45,0.5,18.02146,return,1.0730576000059955,,,,,,,,,,,,,,,,,p318,21,female,left_right_width,2025-12-16_11h34.34.733,exp1,2023.1.0,59.99196107536744,
,,,,,,,,,,,,,,,,4,8.65,9.55,10.45,11.35,0,0.9,0.5,0.4,3.1,10,initial,36.05,312,344,377,409,0,9,9,9,9,0,,,,,,,3,0,3,0,0,3,3,32,,,,,,,,,,,,,,4,1.0954798000020673,4,0.35,0.3,10.81288,return,0.8435060999909183,,,,,,,,,,,,,,,,,p318,21,female,left_right_width,2025-12-16_11h34.34.733,exp1,2023.1.0,59.99196107536744,
,,,,,,,,,,,,,,,,4,8.35,9.45,10.55,11.65,0,1.1,0.55,0.55,3.8500000000000005,10,initial,36.05,301,341,380,420,0,9,9,9,9,0,,,,,,,3,0,3,0,0,4,4,17,,,,,,,,,,,,,,3,1.046353600002476,3,0.5,0.55,19.82361,return,0.9874587999947835,,,,,,,,,,,,,,,,,p318,21,female,left_right_width,2025-12-16_11h34.34.733,exp1,2023.1.0,59.99196107536744,
,,,,,,,,,,,,,,,,4,8.95,9.65,10.35,11.05,0,0.7,0.29999999999999993,0.4,2.5,10,initial,36.05,323,348,373,398,0,9,9,9,9,0,,,,,,,3,0,3,0,0,5,5,26,,,,,,,,,,,,,,4,1.2434481999953277,4,0.35,0.39999999999999997,14.41717,return,0.9515700999909313,,,,,,,,,,,,,,,,,p318,21,female,left_right_width,2025-12-16_11h34.34.733,exp1,2023.1.0,59.99196107536744,
,,,,,,,,,,,,,,,,4,8.825,9.608333333333333,10.391666666666667,11.175,0,0.7833333333333333,0.5333333333333333,0.25,2.6,10,match,36.05,318,346,375,403,0,9,9,9,9,0,,,,,,,3,0,3,0,0,6,6,5,,,,,,,,,,,,,,4,1.2902640999964206,4,0.3,0.25,9.01073,return,0.9323849999927916,,,,,,,,,,,,,,,,,p318,21,female,left_right_width,2025-12-16_11h34.34.733,exp1,2023.1.0,59.99196107536744,
,,,,,,,,,,,,,,,,4,8.35,9.45,10.55,11.65,0,1.1,0.7000000000000001,0.4,3.7,10,initial,36.05,301,341,380,420,0,9,9,9,9,0,,,,,,,3,0,3,0,0,7,7,21,,,,,,,,,,,,,,4,1.1169561999995494,4,0.2,0.25,9.01073,return,1.5360189999919385,,,,,,,,,,,,,,,,,p318,21,female,left_right_width,2025-12-16_11h34.34.733,exp1,2023.1.0,59.99196107536744,
,,,,,,,,,,,,,,,,3,9.1,10,10.9,0,0,0.9,0.35,0.55,2.35,10,initial,36.05,328,361,393,0,0,9,9,9,0,0,,,,,,,3,0,3,0,0,8,8,11,,,,,,,,,,,,,,2,1.4227818999934243,2,0.5,0.55,19.82361,return,1.5889419999875827,,,,,,,,,,,,,,,,,p318,21,female,left_right_width,2025-12-16_11h34.34.733,exp1,2023.1.0,59.99196107536744,
,,,,,,,,,,,,,,,,3,8.2,10,11.8,0,0,1.8,1.55,0.25,3.85,10,match,36.05,296,361,425,0,0,9,9,9,0,0,,,,,,,3,0,3,0,0,9,9,49,,,,,,,,,,,,,,3,1.153509599986137,3,0.55,0.10000000000000007,3.60429,return,3.0588447999907658,,,,,,,,,,,,,,,,,p318,21,female,left_right_width,2025-12-16_11h34.34.733,exp1,2023.1.0,59.99196107536744,
,,,,,,,,,,,,,,,,3,7.8,10,12.2,0,0,2.2,1.65,0.55,4.95,10,match,36.05,281,361,440,0,0,9,9,9,0,0,,,,,,,3,0,3,0,0,10,10,35,,,,,,,,,,,,,,2,1.2795432999992045,2,0.4,0.5,18.02146,return,1.1319453000032809,,,,,,,,,,,,,,,,,p318,21,female,left_right_width,2025-12-16_11h34.34.733,exp1,2023.1.0,59.99196107536744,
,,,,,,,,,,,,,,,,4,8.9,9.633333333333333,10.366666666666667,11.1,0,0.7333333333333333,0.18333333333333326,0.55,2.75,10,match,36.05,321,347,374,400,0,9,9,9,9,0,,,,,,,3,0,3,0,0,11,11,1,,,,,,,,,,,,,,3,1.4617125999939162,3,0.25,0.7500000000000001,27.0322,return,3.210975800000597,,,,,,,,,,,,,,,,,p318,21,female,left_right_width,2025-12-16_11h34.34.733,exp1,2023.1.0,59.99196107536744,
,,,,,,,,,,,,,,,,5,8.65,9.325,10,10.675,11.35,0.675,0.275,0.4,3.1,10,match,36.05,312,336,361,385,409,9,9,9,9,9,,,,,,,3,0,3,0,0,12,12,33,,,,,,,,,,,,,,4,1.2268883000069764,4,0.35,0.39999999999999997,14.41717,return,1.2246905999927549,,,,,,,,,,,,,,,,,p318,21,female,left_right_width,2025-12-16_11h34.34.733,exp1,2023.1.0,59.99196107536744,
,,,,,,,,,,,,,,,,3,8.9,10,11.1,0,0,1.1,0.7000000000000001,0.4,2.6000000000000005,10,initial,36.05,321,361,400,0,0,9,9,9,0,0,,,,,,,3,0,3,0,0,13,13,4,,,,,,,,,,,,,,3,1.4094122999958927,3,0.45,0.35000000000000003,12.61502,return,1.302988000010373,,,,,,,,,,,,,,,,,p318,21,female,left_right_width,2025-12-16_11h34.34.733,exp1,2023.1.0,59.99196107536744,
,,,,,,,,,,,,,,,,5,8.6,9.3,10,10.7,11.4,0.7,0.29999999999999993,0.4,3.1999999999999997,10,initial,36.05,310,335,361,386,411,9,9,9,9,9,,,,,,,3,0,3,0,0,14,14,44,,,,,,,,,,,,,,4,1.3860664999956498,4,0.55,0.5,18.02146,return,1.28167399999802,,,,,,,,,,,,,,,,,p318,21,female,left_right_width,2025-12-16_11h34.34.733,exp1,2023.1.0,59.99196107536744,
,,,,,,,,,,,,,,,,5,8.2,9.1,10,10.9,11.8,0.9,0.65,0.25,3.85,10,initial,36.05,296,328,361,393,425,9,9,9,9,9,,,,,,,3,0,3,0,0,15,15,48,,,,,,,,,,,,,,5,1.4481868000002578,5,0.5,0.30000000000000004,10.81288,return,1.5972907999966992,,,,,,,,,,,,,,,,,p318,21,female,left_right_width,2025-12-16_11h34.34.733,exp1,2023.1.0,59.99196107536744,
,,,,,,,,,,,,,,,,4,9.1,9.7,10.3,10.9,0,0.6000000000000001,0.20000000000000004,0.4,2.2,10,match,36.05,328,350,371,393,0,9,9,9,9,0,,,,,,,3,0,3,0,0,16,16,16,,,,,,,,,,,,,,4,1.0506960999919102,4,0.35,0.39999999999999997,14.41717,return,1.5662235000054352,,,,,,,,,,,,,,,,,p318,21,female,left_right_width,2025-12-16_11h34.34.733,exp1,2023.1.0,59.99196107536744,
,,,,,,,,,,,,,,,,4,9.3,9.766666666666667,10.233333333333333,10.7,0,0.4666666666666667,0.06666666666666665,0.4,1.8,10,match,36.05,335,352,369,386,0,9,9,9,9,0,,,,,,,3,0,3,0,0,17,17,10,,,,,,,,,,,,,,3,1.108093299990287,3,0.35,0.6,21.62576,return,1.7178843999863602,,,,,,,,,,,,,,,,,p318,21,female,left_right_width,2025-12-16_11h34.34.733,exp1,2023.1.0,59.99196107536744,
,,,,,,,,,,,,,,,,5,8.65,9.325,10,10.675,11.35,0.675,0.42500000000000004,0.25,2.95,10,match,36.05,312,336,361,385,409,9,9,9,9,9,,,,,,,3,0,3,0,0,18,18,31,,,,,,,,,,,,,,5,1.3100798999948893,5,0.35,0.3,10.81288,return,1.962209699995583,,,,,,,,,,,,,,,,,p318,21,female,left_right_width,2025-12-16_11h34.34.733,exp1,2023.1.0,59.99196107536744,
,,,,,,,,,,,,,,,,3,9.1,10,10.9,0,0,0.9,0.65,0.25,2.05,10,initial,36.05,328,361,393,0,0,9,9,9,0,0,,,,,,,3,0,3,0,0,19,19,13,,,,,,,,,,,,,,3,1.1725517000013497,3,0.4,0.25000000000000006,9.01073,return,1.5405219999956898,,,,,,,,,,,,,,,,,p318,21,female,left_right_width,2025-12-16_11h34.34.733,exp1,2023.1.0,59.99196107536744,
,,,,,,,,,,,,,,,,4,8.95,9.65,10.35,11.05,0,0.7,0.1499999999999999,0.55,2.65,10,initial,36.05,323,348,373,398,0,9,9,9,9,0,,,,,,,3,0,3,0,0,20,20,23,,,,,,,,,,,,,,3,1.1127773000043817,3,0.55,0.6500000000000001,23.4279,return,1.4851383000059286,,,,,,,,,,,,,,,,,p318,21,female,left_right_width,2025-12-16_11h34.34.733,exp1,2023.1.0,59.99196107536744,
,,,,,,,,,,,,,,,,4,8.65,9.55,10.45,11.35,0,0.9,0.35,0.55,3.25,10,initial,36.05,312,344,377,409,0,9,9,9,9,0,,,,,,,3,0,3,0,0,21,21,28,,,,,,,,,,,,,,4,1.1228721000079531,4,0.3,0.44999999999999996,16.21932,return,1.557508499987307,,,,,,,,,,,,,,,,,p318,21,female,left_right_width,2025-12-16_11h34.34.733,exp1,2023.1.0,59.99196107536744,
,,,,,,,,,,,,,,,,4,9.1,9.7,10.3,10.9,0,0.5999999999999999,0.3499999999999999,0.25,2.05,10,match,36.05,328,350,371,393,0,9,9,9,9,0,,,,,,,3,0,3,0,0,22,22,14,,,,,,,,,,,,,,3,1.2082858000067063,3,0.5,0.25000000000000006,9.01073,return,1.7344567999971332,,,,,,,,,,,,,,,,,p318,21,female,left_right_width,2025-12-16_11h34.34.733,exp1,2023.1.0,59.99196107536744,
,,,,,,,,,,,,,,,,3,8.2,10,11.8,0,0,1.8,1.25,0.55,4.15,10,match,36.05,296,361,425,0,0,9,9,9,0,0,,,,,,,3,0,3,0,0,23,23,47,,,,,,,,,,,,,,3,1.186633499994059,3,0.4,0.55,19.82361,return,1.314467300006072,,,,,,,,,,,,,,,,,p318,21,female,left_right_width,2025-12-16_11h34.34.733,exp1,2023.1.0,59.99196107536744,
,,,,,,,,,,,,,,,,5,7.8,8.9,10,11.1,12.2,1.1,0.55,0.55,4.95,10,initial,36.05,281,321,361,400,440,9,9,9,9,9,,,,,,,3,0,3,0,0,24,24,34,,,,,,,,,,,,,,4,1.2557051999901887,4,0.3,0.44999999999999996,16.21932,return,1.187000199992326,,,,,,,,,,,,,,,,,p318,21,female,left_right_width,2025-12-16_11h34.34.733,exp1,2023.1.0,59.99196107536744,
,,,,,,,,,,,,,,,,3,8.2,10,11.8,0,0,1.7999999999999998,1.4,0.4,4,10,match,36.05,296,361,425,0,0,9,9,9,0,0,,,,,,,3,0,3,0,0,25,25,51,,,,,,,,,,,,,,3,1.0633131000067806,3,0.45,0.35000000000000003,12.61502,return,1.3548630000004778,,,,,,,,,,,,,,,,,p318,21,female,left_right_width,2025-12-16_11h34.34.733,exp1,2023.1.0,59.99196107536744,
,,,,,,,,,,,,,,,,3,8.6,10,11.4,0,0,1.4,1.15,0.25,3.05,10,match,36.05,310,361,411,0,0,9,9,9,0,0,,,,,,,3,0,3,0,0,26,26,43,,,,,,,,,,,,,,3,1.0324794000043767,3,0.35,0.2,7.20859,return,1.5177152999967802,,,,,,,,,,,,,,,,,p318,21,female,left_right_width,2025-12-16_11h34.34.733,exp1,2023.1.0,59.99196107536744,
,,,,,,,,,,,,,,,,4,8.95,9.65,10.35,11.05,0,0.7,0.44999999999999996,0.25,2.3499999999999996,10,initial,36.05,323,348,373,398,0,9,9,9,9,0,,,,,,,3,0,3,0,0,27,27,24,,,,,,,,,,,,,,4,1.1222361999971326,4,0.55,0.20000000000000007,7.20859,return,2.277305700001307,,,,,,,,,,,,,,,,,p318,21,female,left_right_width,2025-12-16_11h34.34.733,exp1,2023.1.0,59.99196107536744,
,,,,,,,,,,,,,,,,5,8.35,9.175,10,10.825,11.65,0.8250000000000001,0.275,0.55,3.85,10,match,36.05,301,331,361,390,420,9,9,9,9,9,,,,,,,3,0,3,0,0,28,28,18,,,,,,,,,,,,,,5,1.40539759999956,5,0.45,0.5,18.02146,return,1.2193724999960978,,,,,,,,,,,,,,,,,p318,21,female,left_right_width,2025-12-16_11h34.34.733,exp1,2023.1.0,59.99196107536744,
,,,,,,,,,,,,,,,,3,9.3,10,10.7,0,0,0.7,0.44999999999999996,0.25,1.65,10,initial,36.05,335,361,386,0,0,9,9,9,0,0,,,,,,,3,0,3,0,0,29,29,7,,,,,,,,,,,,,,3,1.093972999995458,3,0.5,0.35000000000000003,12.61502,return,1.3527124000102049,,,,,,,,,,,,,,,,,p318,21,female,left_right_width,2025-12-16_11h34.34.733,exp1,2023.1.0,59.99196107536744,
,,,,,,,,,,,,,,,,5,8.95,9.475,10,10.525,11.05,0.525,0.275,0.25,2.35,10,match,36.05,323,342,361,379,398,9,9,9,9,9,,,,,,,3,0,3,0,0,30,30,25,,,,,,,,,,,,,,5,1.5095704999985173,5,0.2,0.2,7.20859,return,1.464049399990472,,,,,,,,,,,,,,,,,p318,21,female,left_right_width,2025-12-16_11h34.34.733,exp1,2023.1.0,59.99196107536744,
,,,,,,,,,,,,,,,,3,8.9,10,11.1,0,0,1.1,0.8500000000000001,0.25,2.45,10,initial,36.05,321,361,400,0,0,9,9,9,0,0,,,,,,,3,0,3,0,0,31,31,2,,,,,,,,,,,,,,4,1.0674383999867132,4,0.55,0.20000000000000007,7.20859,return,2.3344858000054955,,,,,,,,,,,,,,,,,p318,21,female,left_right_width,2025-12-16_11h34.34.733,exp1,2023.1.0,59.99196107536744,
,,,,,,,,,,,,,,,,5,8.2,9.1,10,10.9,11.8,0.9,0.5,0.4,4,10,initial,36.05,296,328,361,393,425,9,9,9,9,9,,,,,,,3,0,3,0,0,32,32,50,,,,,,,,,,,,,,5,1.0676707999955397,5,0.35,0.25,9.01073,return,1.9670372999971732,,,,,,,,,,,,,,,,,p318,21,female,left_right_width,2025-12-16_11h34.34.733,exp1,2023.1.0,59.99196107536744,
,,,,,,,,,,,,,,,,3,9.3,10,10.7,0,0,0.7,0.29999999999999993,0.4,1.8,10,initial,36.05,335,361,386,0,0,9,9,9,0,0,,,,,,,3,0,3,0,0,33,33,9,,,,,,,,,,,,,,3,2.3375365999963833,3,0.25,0.3,10.81288,return,1.5705698000092525,,,,,,,,,,,,,,,,,p318,21,female,left_right_width,2025-12-16_11h34.34.733,exp1,2023.1.0,59.99196107536744,
,,,,,,,,,,,,,,,,5,8.6,9.3,10,10.7,11.4,0.7,0.1499999999999999,0.55,3.3499999999999996,10,initial,36.05,310,335,361,386,411,9,9,9,9,9,,,,,,,3,0,3,0,0,34,34,40,,,,,,,,,,,,,,4,1.2070670999964932,4,0.25,0.49999999999999994,18.02146,return,2.758100100007141,,,,,,,,,,,,,,,,,p318,21,female,left_right_width,2025-12-16_11h34.34.733,exp1,2023.1.0,59.99196107536744,
,,,,,,,,,,,,,,,,5,8.2,9.1,10,10.9,11.8,0.9,0.35,0.55,4.15,10,initial,36.05,296,328,361,393,425,9,9,9,9,9,,,,,,,3,0,3,0,0,35,35,46,,,,,,,,,,,,,,4,1.5680391999921994,4,0.5,0.6000000000000001,21.62576,return,1.2963563999946928,,,,,,,,,,,,,,,,,p318,21,female,left_right_width,2025-12-16_11h34.34.733,exp1,2023.1.0,59.99196107536744,
,,,,,,,,,,,,,,,,5,8.35,9.175,10,10.825,11.65,0.825,0.575,0.25,3.55,10,match,36.05,301,331,361,390,420,9,9,9,9,9,,,,,,,3,0,3,0,0,36,36,20,,,,,,,,,,,,,,5,1.6420919999945909,5,0.35,0.15000000000000002,5.40644,return,1.4948848000058206,,,,,,,,,,,,,,,,,p318,21,female,left_right_width,2025-12-16_11h34.34.733,exp1,2023.1.0,59.99196107536744,
,,,,,,,,,,,,,,,,3,9.3,10,10.7,0,0,0.7,0.1499999999999999,0.55,1.95,10,initial,36.05,335,361,386,0,0,9,9,9,0,0,,,,,,,3,0,3,0,0,37,37,6,,,,,,,,,,,,,,3,1.3245443000050727,3,0.4,0.6000000000000001,21.62576,return,1.5895770999923116,,,,,,,,,,,,,,,,,p318,21,female,left_right_width,2025-12-16_11h34.34.733,exp1,2023.1.0,59.99196107536744,
,,,,,,,,,,,,,,,,3,8.525,10,11.475,0,0,1.475,1.225,0.25,3.2,10,match,36.05,307,361,414,0,0,9,9,9,0,0,,,,,,,3,0,3,0,0,38,38,45,,,,,,,,,,,,,,3,1.4555114000104368,3,0.55,0.25000000000000006,9.01073,return,2.212984099998721,,,,,,,,,,,,,,,,,p318,21,female,left_right_width,2025-12-16_11h34.34.733,exp1,2023.1.0,59.99196107536744,
,,,,,,,,,,,,,,,,4,9.1,9.7,10.3,10.9,0,0.6,0.04999999999999997,0.55,2.35,10,match,36.05,328,350,371,393,0,9,9,9,9,0,,,,,,,3,0,3,0,0,39,39,12,,,,,,,,,,,,,,4,1.5673049000033643,4,0.5,0.8500000000000003,30.63649,return,2.5911641999991843,,,,,,,,,,,,,,,,,p318,21,female,left_right_width,2025-12-16_11h34.34.733,exp1,2023.1.0,59.99196107536744,
,,,,,,,,,,,,,,,,5,8.6,9.3,10,10.7,11.4,0.7,0.44999999999999996,0.25,3.05,10,initial,36.05,310,335,361,386,411,9,9,9,9,9,,,,,,,3,0,3,0,0,40,40,42,,,,,,,,,,,,,,5,1.306052699990687,5,0.25,0.2,7.20859,return,1.557528999997885,,,,,,,,,,,,,,,,,p318,21,female,left_right_width,2025-12-16_11h34.34.733,exp1,2023.1.0,59.99196107536744,
,,,,,,,,,,,,,,,,3,8.6,10,11.4,0,0,1.4,0.85,0.55,3.35,10,match,36.05,310,361,411,0,0,9,9,9,0,0,,,,,,,3,0,3,0,0,41,41,41,,,,,,,,,,,,,,3,1.385119600003236,3,0.35,0.39999999999999997,14.41717,return,1.4241443000064464,,,,,,,,,,,,,,,,,p318,21,female,left_right_width,2025-12-16_11h34.34.733,exp1,2023.1.0,59.99196107536744,
,,,,,,,,,,,,,,,,3,7.800000000000001,10,12.2,0,0,2.1999999999999997,1.7999999999999998,0.4,4.8,10,match,36.05,281,361,440,0,0,9,9,9,0,0,,,,,,,3,0,3,0,0,42,42,39,,,,,,,,,,,,,,3,1.2202700000052573,3,0.4,0.30000000000000004,10.81288,return,1.3300766000029398,,,,,,,,,,,,,,,,,p318,21,female,left_right_width,2025-12-16_11h34.34.733,exp1,2023.1.0,59.99196107536744,
,,,,,,,,,,,,,,,,5,8.95,9.475,10,10.525,11.05,0.525,0.125,0.4,2.5,10,match,36.05,323,342,361,379,398,9,9,9,9,9,,,,,,,3,0,3,0,0,43,43,27,,,,,,,,,,,,,,5,1.8607922000082908,5,0.55,0.30000000000000004,10.81288,return,2.2659290000010515,,,,,,,,,,,,,,,,,p318,21,female,left_right_width,2025-12-16_11h34.34.733,exp1,2023.1.0,59.99196107536744,
,,,,,,,,,,,,,,,,5,8.275,9.1375,10,10.8625,11.725,0.8625,0.6125,0.25,3.7,10,match,36.05,298,329,361,392,423,9,9,9,9,9,,,,,,,3,0,3,0,0,44,44,22,,,,,,,,,,,,,,4,1.1109324999997625,4,0.55,0.30000000000000004,10.81288,return,1.608953399991151,,,,,,,,,,,,,,,,,p318,21,female,left_right_width,2025-12-16_11h34.34.733,exp1,2023.1.0,59.99196107536744,
,,,,,,,,,,,,,,,,3,7.8,10,12.2,0,0,2.2,1.9500000000000002,0.25,4.65,10,match,36.05,281,361,440,0,0,9,9,9,0,0,,,,,,,3,0,3,0,0,45,45,37,,,,,,,,,,,,,,3,1.1456372999964515,3,0.35,0.15000000000000002,5.40644,return,1.194861600000877,,,,,,,,,,,,,,,,,p318,21,female,left_right_width,2025-12-16_11h34.34.733,exp1,2023.1.0,59.99196107536744,
,,,,,,,,,,,,,,,,5,7.8,8.9,10,11.1,12.2,1.1,0.8500000000000001,0.25,4.65,10,initial,36.05,281,321,361,400,440,9,9,9,9,9,,,,,,,3,0,3,0,0,46,46,36,,,,,,,,,,,,,,5,1.415958400000818,5,0.35,0.2,7.20859,return,1.3749585999903502,,,,,,,,,,,,,,,,,p318,21,female,left_right_width,2025-12-16_11h34.34.733,exp1,2023.1.0,59.99196107536744,
,,,,,,,,,,,,,,,,5,8.65,9.325,10,10.675,11.35,0.675,0.125,0.55,3.25,10,match,36.05,312,336,361,385,409,9,9,9,9,9,,,,,,,3,0,3,0,0,47,47,29,,,,,,,,,,,,,,5,1.4094075000029989,5,0.2,0.35,12.61502,return,2.0241819999937434,,,,,,,,,,,,,,,,,p318,21,female,left_right_width,2025-12-16_11h34.34.733,exp1,2023.1.0,59.99196107536744,
,,,,,,,,,,,,,,,,4,8.9,9.633333333333333,10.366666666666667,11.1,0,0.7333333333333334,0.4833333333333334,0.25,2.45,10,match,36.05,321,347,374,400,0,9,9,9,9,0,,,,,,,3,0,3,0,0,48,48,3,,,,,,,,,,,,,,4,1.2617305999883683,4,0.35,0.3,10.81288,return,1.0655720999930054,,,,,,,,,,,,,,,,,p318,21,female,left_right_width,2025-12-16_11h34.34.733,exp1,2023.1.0,59.99196107536744,
,,,,,,,,,,,,,,,,5,7.8,8.9,10,11.1,12.2,1.1,0.7000000000000001,0.4,4.800000000000001,10,initial,36.05,281,321,361,400,440,9,9,9,9,9,,,,,,,3,0,3,0,0,49,49,38,,,,,,,,,,,,,,4,1.2674293000018224,4,0.25,0.3,10.81288,return,1.1666361999959918,,,,,,,,,,,,,,,,,p318,21,female,left_right_width,2025-12-16_11h34.34.733,exp1,2023.1.0,59.99196107536744,
,,,,,,,,,,,,,,,,4,9.3,9.766666666666667,10.233333333333333,10.7,0,0.4666666666666667,0.21666666666666665,0.25,1.65,10,match,36.05,335,352,369,386,0,9,9,9,9,0,,,,,,,3,0,3,0,0,50,50,8,,,,,,,,,,,,,,4,1.161956600000849,4,0.5,0.10000000000000007,3.60429,return,2.169516099995235,,,,,,,,,,,,,,,,,p318,21,female,left_right_width,2025-12-16_11h34.34.733,exp1,2023.1.0,59.99196107536744,
,,,,,,,,,,,,,,,,4,8.65,9.55,10.45,11.35,0,0.9,0.65,0.25,2.95,10,initial,36.05,312,344,377,409,0,9,9,9,9,0,,,,,,,3,0,3,0,0,51,51,30,,,,,,,,,,,,,,4,1.2808605000027455,4,0.2,0.25,9.01073,return,1.660498599987477,,,,,,,,,,,,,,,,,p318,21,female,left_right_width,2025-12-16_11h34.34.733,exp1,2023.1.0,59.99196107536744,
,,,,,,,,,,,,,,,,,,,,,,,,,,,,,,,,,,,,,,,,,,,,,3,0,3,0,,,,,,,,,,,,,,,,,,,,,,,,,,,,1816.1658770000067,1816.1658770000067,1816.1658770000067,,,,,,,,,,,,p318,21,female,left_right_width,2025-12-16_11h34.34.733,exp1,2023.1.0,59.99196107536744,
,,,,,,,,,,,,,,,,4,8.65,9.55,10.45,11.35,0,0.9,0.35,0.55,3.25,10,initial,36.05,312,344,377,409,0,9,9,9,9,0,,,,,,,4,0,4,0,0,0,0,28,,,,,,,,,,,,,,3,1.036800799993216,3,0.2,0.49999999999999994,18.02146,return,1.889655099992524,,,,,,,,,,,,,,,,,p318,21,female,left_right_width,2025-12-16_11h34.34.733,exp1,2023.1.0,59.99196107536744,
,,,,,,,,,,,,,,,,3,8.9,10,11.1,0,0,1.1,0.8500000000000001,0.25,2.45,10,initial,36.05,321,361,400,0,0,9,9,9,0,0,,,,,,,4,0,4,0,0,1,1,2,,,,,,,,,,,,,,2,1.4275455000024522,2,0.55,0.15000000000000008,5.40644,return,2.280711200000951,,,,,,,,,,,,,,,,,p318,21,female,left_right_width,2025-12-16_11h34.34.733,exp1,2023.1.0,59.99196107536744,
,,,,,,,,,,,,,,,,5,8.6,9.3,10,10.7,11.4,0.7,0.44999999999999996,0.25,3.05,10,initial,36.05,310,335,361,386,411,9,9,9,9,9,,,,,,,4,0,4,0,0,2,2,42,,,,,,,,,,,,,,5,1.135148500005016,5,0.3,0.15000000000000002,5.40644,return,1.0715320000017527,,,,,,,,,,,,,,,,,p318,21,female,left_right_width,2025-12-16_11h34.34.733,exp1,2023.1.0,59.99196107536744,
,,,,,,,,,,,,,,,,4,8.9,9.633333333333333,10.366666666666667,11.1,0,0.7333333333333333,0.18333333333333326,0.55,2.75,10,match,36.05,321,347,374,400,0,9,9,9,9,0,,,,,,,4,0,4,0,0,3,3,1,,,,,,,,,,,,,,4,1.4844860000011977,4,0.45,0.55,19.82361,return,1.0234510000009323,,,,,,,,,,,,,,,,,p318,21,female,left_right_width,2025-12-16_11h34.34.733,exp1,2023.1.0,59.99196107536744,
,,,,,,,,,,,,,,,,3,8.6,10,11.4,0,0,1.4,1.15,0.25,3.05,10,match,36.05,310,361,411,0,0,9,9,9,0,0,,,,,,,4,0,4,0,0,4,4,43,,,,,,,,,,,,,,2,1.0874662999995053,2,0.5,0.15000000000000008,5.40644,return,1.5874772000097437,,,,,,,,,,,,,,,,,p318,21,female,left_right_width,2025-12-16_11h34.34.733,exp1,2023.1.0,59.99196107536744,
,,,,,,,,,,,,,,,,4,9.1,9.7,10.3,10.9,0,0.6000000000000001,0.20000000000000004,0.4,2.2,10,match,36.05,328,350,371,393,0,9,9,9,9,0,,,,,,,4,0,4,0,0,5,5,16,,,,,,,,,,,,,,4,1.1461904000025243,4,0.55,0.30000000000000004,10.81288,return,1.9476980999897933,,,,,,,,,,,,,,,,,p318,21,female,left_right_width,2025-12-16_11h34.34.733,exp1,2023.1.0,59.99196107536744,
,,,,,,,,,,,,,,,,3,7.800000000000001,10,12.2,0,0,2.1999999999999997,1.7999999999999998,0.4,4.8,10,match,36.05,281,361,440,0,0,9,9,9,0,0,,,,,,,4,0,4,0,0,6,6,39,,,,,,,,,,,,,,2,1.168419499997981,2,0.35,0.25,9.01073,return,1.0561213999899337,,,,,,,,,,,,,,,,,p318,21,female,left_right_width,2025-12-16_11h34.34.733,exp1,2023.1.0,59.99196107536744,
,,,,,,,,,,,,,,,,3,9.1,10,10.9,0,0,0.9,0.5,0.4,2.2,10,initial,36.05,328,361,393,0,0,9,9,9,0,0,,,,,,,4,0,4,0,0,7,7,15,,,,,,,,,,,,,,2,1.340884500008542,2,0.3,0.25,9.01073,return,1.1915979000041261,,,,,,,,,,,,,,,,,p318,21,female,left_right_width,2025-12-16_11h34.34.733,exp1,2023.1.0,59.99196107536744,
,,,,,,,,,,,,,,,,4,9.1,9.7,10.3,10.9,0,0.6,0.04999999999999997,0.55,2.35,10,match,36.05,328,350,371,393,0,9,9,9,9,0,,,,,,,4,0,4,0,0,8,8,12,,,,,,,,,,,,,,3,1.4324962999962736,3,0.55,0.6500000000000001,23.4279,return,1.3745186000014655,,,,,,,,,,,,,,,,,p318,21,female,left_right_width,2025-12-16_11h34.34.733,exp1,2023.1.0,59.99196107536744,
,,,,,,,,,,,,,,,,5,8.65,9.325,10,10.675,11.35,0.675,0.125,0.55,3.25,10,match,36.05,312,336,361,385,409,9,9,9,9,9,,,,,,,4,0,4,0,0,9,9,29,,,,,,,,,,,,,,4,1.6200834000046598,4,0.5,0.6000000000000001,21.62576,return,1.0901682000112487,,,,,,,,,,,,,,,,,p318,21,female,left_right_width,2025-12-16_11h34.34.733,exp1,2023.1.0,59.99196107536744,
,,,,,,,,,,,,,,,,3,7.8,10,12.2,0,0,2.2,1.9500000000000002,0.25,4.65,10,match,36.05,281,361,440,0,0,9,9,9,0,0,,,,,,,4,0,4,0,0,10,10,37,,,,,,,,,,,,,,3,1.1445248000090942,3,0.25,0.2,7.20859,return,1.2406822999910219,,,,,,,,,,,,,,,,,p318,21,female,left_right_width,2025-12-16_11h34.34.733,exp1,2023.1.0,59.99196107536744,
,,,,,,,,,,,,,,,,4,8.35,9.45,10.55,11.65,0,1.1,0.55,0.55,3.8500000000000005,10,initial,36.05,301,341,380,420,0,9,9,9,9,0,,,,,,,4,0,4,0,0,11,11,17,,,,,,,,,,,,,,4,1.3768227999971714,4,0.45,0.4,14.41717,return,1.5595792000094661,,,,,,,,,,,,,,,,,p318,21,female,left_right_width,2025-12-16_11h34.34.733,exp1,2023.1.0,59.99196107536744,
,,,,,,,,,,,,,,,,3,9.3,10,10.7,0,0,0.7,0.29999999999999993,0.4,1.8,10,initial,36.05,335,361,386,0,0,9,9,9,0,0,,,,,,,4,0,4,0,0,12,12,9,,,,,,,,,,,,,,3,1.098685699995258,3,0.45,0.4,14.41717,return,1.2788093999988632,,,,,,,,,,,,,,,,,p318,21,female,left_right_width,2025-12-16_11h34.34.733,exp1,2023.1.0,59.99196107536744,
,,,,,,,,,,,,,,,,5,8.65,9.325,10,10.675,11.35,0.675,0.42500000000000004,0.25,2.95,10,match,36.05,312,336,361,385,409,9,9,9,9,9,,,,,,,4,0,4,0,0,13,13,31,,,,,,,,,,,,,,5,1.2023646000016015,5,0.55,0.25000000000000006,9.01073,return,2.0009118000016315,,,,,,,,,,,,,,,,,p318,21,female,left_right_width,2025-12-16_11h34.34.733,exp1,2023.1.0,59.99196107536744,
,,,,,,,,,,,,,,,,4,8.825,9.608333333333333,10.391666666666667,11.175,0,0.7833333333333333,0.5333333333333333,0.25,2.6,10,match,36.05,318,346,375,403,0,9,9,9,9,0,,,,,,,4,0,4,0,0,14,14,5,,,,,,,,,,,,,,4,1.050967799994396,4,0.25,0.25,9.01073,return,1.8068968000006862,,,,,,,,,,,,,,,,,p318,21,female,left_right_width,2025-12-16_11h34.34.733,exp1,2023.1.0,59.99196107536744,
,,,,,,,,,,,,,,,,5,8.35,9.175,10,10.825,11.65,0.825,0.575,0.25,3.55,10,match,36.05,301,331,361,390,420,9,9,9,9,9,,,,,,,4,0,4,0,0,15,15,20,,,,,,,,,,,,,,5,1.2560892000037711,5,0.55,0.25000000000000006,9.01073,return,1.9233673999988241,,,,,,,,,,,,,,,,,p318,21,female,left_right_width,2025-12-16_11h34.34.733,exp1,2023.1.0,59.99196107536744,
,,,,,,,,,,,,,,,,4,8.95,9.65,10.35,11.05,0,0.7,0.44999999999999996,0.25,2.3499999999999996,10,initial,36.05,323,348,373,398,0,9,9,9,9,0,,,,,,,4,0,4,0,0,16,16,24,,,,,,,,,,,,,,4,1.057015300000785,4,0.4,0.20000000000000007,7.20859,return,2.004128900007345,,,,,,,,,,,,,,,,,p318,21,female,left_right_width,2025-12-16_11h34.34.733,exp1,2023.1.0,59.99196107536744,
,,,,,,,,,,,,,,,,5,8.95,9.475,10,10.525,11.05,0.525,0.125,0.4,2.5,10,match,36.05,323,342,361,379,398,9,9,9,9,9,,,,,,,4,0,4,0,0,17,17,27,,,,,,,,,,,,,,5,1.1817517000017688,5,0.4,0.15000000000000008,5.40644,return,1.6127822999987984,,,,,,,,,,,,,,,,,p318,21,female,left_right_width,2025-12-16_11h34.34.733,exp1,2023.1.0,59.99196107536744,
,,,,,,,,,,,,,,,,5,8.35,9.175,10,10.825,11.65,0.8250000000000001,0.275,0.55,3.85,10,match,36.05,301,331,361,390,420,9,9,9,9,9,,,,,,,4,0,4,0,0,18,18,18,,,,,,,,,,,,,,6,1.3263723999989452,6,0.4,0.25000000000000006,9.01073,return,1.7051925999985542,,,,,,,,,,,,,,,,,p318,21,female,left_right_width,2025-12-16_11h34.34.733,exp1,2023.1.0,59.99196107536744,
,,,,,,,,,,,,,,,,4,8.9,9.633333333333333,10.366666666666667,11.1,0,0.7333333333333334,0.4833333333333334,0.25,2.45,10,match,36.05,321,347,374,400,0,9,9,9,9,0,,,,,,,4,0,4,0,0,19,19,3,,,,,,,,,,,,,,4,1.356039399994188,4,0.3,0.15000000000000002,5.40644,return,1.3011157000000821,,,,,,,,,,,,,,,,,p318,21,female,left_right_width,2025-12-16_11h34.34.733,exp1,2023.1.0,59.99196107536744,
,,,,,,,,,,,,,,,,5,8.6,9.3,10,10.7,11.4,0.7,0.1499999999999999,0.55,3.3499999999999996,10,initial,36.05,310,335,361,386,411,9,9,9,9,9,,,,,,,4,0,4,0,0,20,20,40,,,,,,,,,,,,,,5,1.2435964999895077,5,0.55,0.6000000000000001,21.62576,return,0.9365317000047071,,,,,,,,,,,,,,,,,p318,21,female,left_right_width,2025-12-16_11h34.34.733,exp1,2023.1.0,59.99196107536744,
,,,,,,,,,,,,,,,,4,8.65,9.55,10.45,11.35,0,0.9,0.5,0.4,3.1,10,initial,36.05,312,344,377,409,0,9,9,9,9,0,,,,,,,4,0,4,0,0,21,21,32,,,,,,,,,,,,,,4,1.027549899998121,4,0.4,0.30000000000000004,10.81288,return,1.2407852000033017,,,,,,,,,,,,,,,,,p318,21,female,left_right_width,2025-12-16_11h34.34.733,exp1,2023.1.0,59.99196107536744,
,,,,,,,,,,,,,,,,3,8.9,10,11.1,0,0,1.1,0.7000000000000001,0.4,2.6000000000000005,10,initial,36.05,321,361,400,0,0,9,9,9,0,0,,,,,,,4,0,4,0,0,22,22,4,,,,,,,,,,,,,,3,1.025321899986011,3,0.55,0.4,14.41717,return,1.2075087999983225,,,,,,,,,,,,,,,,,p318,21,female,left_right_width,2025-12-16_11h34.34.733,exp1,2023.1.0,59.99196107536744,
,,,,,,,,,,,,,,,,3,8.525,10,11.475,0,0,1.475,1.225,0.25,3.2,10,match,36.05,307,361,414,0,0,9,9,9,0,0,,,,,,,4,0,4,0,0,23,23,45,,,,,,,,,,,,,,3,1.4802146999863908,3,0.3,0.10000000000000002,3.60429,return,1.3401069000101415,,,,,,,,,,,,,,,,,p318,21,female,left_right_width,2025-12-16_11h34.34.733,exp1,2023.1.0,59.99196107536744,
,,,,,,,,,,,,,,,,3,9.1,10,10.9,0,0,0.9,0.65,0.25,2.05,10,initial,36.05,328,361,393,0,0,9,9,9,0,0,,,,,,,4,0,4,0,0,24,24,13,,,,,,,,,,,,,,3,1.2512509000080172,3,0.5,0.20000000000000007,7.20859,return,1.8400895999948261,,,,,,,,,,,,,,,,,p318,21,female,left_right_width,2025-12-16_11h34.34.733,exp1,2023.1.0,59.99196107536744,
,,,,,,,,,,,,,,,,4,9.1,9.7,10.3,10.9,0,0.5999999999999999,0.3499999999999999,0.25,2.05,10,match,36.05,328,350,371,393,0,9,9,9,9,0,,,,,,,4,0,4,0,0,25,25,14,,,,,,,,,,,,,,4,1.170142399991164,4,0.3,0.25,9.01073,return,1.6827410999976564,,,,,,,,,,,,,,,,,p318,21,female,left_right_width,2025-12-16_11h34.34.733,exp1,2023.1.0,59.99196107536744,
,,,,,,,,,,,,,,,,4,8.95,9.65,10.35,11.05,0,0.7,0.29999999999999993,0.4,2.5,10,initial,36.05,323,348,373,398,0,9,9,9,9,0,,,,,,,4,0,4,0,0,26,26,26,,,,,,,,,,,,,,4,1.1329727999982424,4,0.2,0.2,7.20859,return,1.4390159000031417,,,,,,,,,,,,,,,,,p318,21,female,left_right_width,2025-12-16_11h34.34.733,exp1,2023.1.0,59.99196107536744,
,,,,,,,,,,,,,,,,5,8.6,9.3,10,10.7,11.4,0.7,0.29999999999999993,0.4,3.1999999999999997,10,initial,36.05,310,335,361,386,411,9,9,9,9,9,,,,,,,4,0,4,0,0,27,27,44,,,,,,,,,,,,,,5,1.1810054999950808,5,0.3,0.35,12.61502,return,1.3561197999952128,,,,,,,,,,,,,,,,,p318,21,female,left_right_width,2025-12-16_11h34.34.733,exp1,2023.1.0,59.99196107536744,
,,,,,,,,,,,,,,,,5,7.8,8.9,10,11.1,12.2,1.1,0.55,0.55,4.95,10,initial,36.05,281,321,361,400,440,9,9,9,9,9,,,,,,,4,0,4,0,0,28,28,34,,,,,,,,,,,,,,6,1.50291089998791,6,0.3,0.35,12.61502,return,1.2332389999937732,,,,,,,,,,,,,,,,,p318,21,female,left_right_width,2025-12-16_11h34.34.733,exp1,2023.1.0,59.99196107536744,
,,,,,,,,,,,,,,,,3,9.1,10,10.9,0,0,0.9,0.35,0.55,2.35,10,initial,36.05,328,361,393,0,0,9,9,9,0,0,,,,,,,4,0,4,0,0,29,29,11,,,,,,,,,,,,,,3,1.106889599992428,3,0.45,0.5,18.02146,return,0.9827236999990419,,,,,,,,,,,,,,,,,p318,21,female,left_right_width,2025-12-16_11h34.34.733,exp1,2023.1.0,59.99196107536744,
,,,,,,,,,,,,,,,,5,8.2,9.1,10,10.9,11.8,0.9,0.5,0.4,4,10,initial,36.05,296,328,361,393,425,9,9,9,9,9,,,,,,,4,0,4,0,0,30,30,50,,,,,,,,,,,,,,6,1.240714499988826,6,0.35,0.3,10.81288,return,1.0134563999890815,,,,,,,,,,,,,,,,,p318,21,female,left_right_width,2025-12-16_11h34.34.733,exp1,2023.1.0,59.99196107536744,
,,,,,,,,,,,,,,,,3,8.2,10,11.8,0,0,1.8,1.55,0.25,3.85,10,match,36.05,296,361,425,0,0,9,9,9,0,0,,,,,,,4,0,4,0,0,31,31,49,,,,,,,,,,,,,,4,1.0497621999966213,4,0.45,0.20000000000000007,7.20859,return,1.903274299998884,,,,,,,,,,,,,,,,,p318,21,female,left_right_width,2025-12-16_11h34.34.733,exp1,2023.1.0,59.99196107536744,
,,,,,,,,,,,,,,,,5,8.95,9.475,10,10.525,11.05,0.525,0.275,0.25,2.35,10,match,36.05,323,342,361,379,398,9,9,9,9,9,,,,,,,4,0,4,0,0,32,32,25,,,,,,,,,,,,,,5,1.0249887999962084,5,0.4,0.20000000000000007,7.20859,return,1.3820320000086213,,,,,,,,,,,,,,,,,p318,21,female,left_right_width,2025-12-16_11h34.34.733,exp1,2023.1.0,59.99196107536744,
,,,,,,,,,,,,,,,,4,8.95,9.65,10.35,11.05,0,0.7,0.1499999999999999,0.55,2.65,10,initial,36.05,323,348,373,398,0,9,9,9,9,0,,,,,,,4,0,4,0,0,33,33,23,,,,,,,,,,,,,,4,1.4101918000087608,4,0.55,0.6500000000000001,23.4279,return,1.0814134999964153,,,,,,,,,,,,,,,,,p318,21,female,left_right_width,2025-12-16_11h34.34.733,exp1,2023.1.0,59.99196107536744,
,,,,,,,,,,,,,,,,3,9.3,10,10.7,0,0,0.7,0.44999999999999996,0.25,1.65,10,initial,36.05,335,361,386,0,0,9,9,9,0,0,,,,,,,4,0,4,0,0,34,34,7,,,,,,,,,,,,,,2,1.3324649999995017,2,0.25,0.25,9.01073,return,2.142895699988003,,,,,,,,,,,,,,,,,p318,21,female,left_right_width,2025-12-16_11h34.34.733,exp1,2023.1.0,59.99196107536744,
,,,,,,,,,,,,,,,,3,8.2,10,11.8,0,0,1.8,1.25,0.55,4.15,10,match,36.05,296,361,425,0,0,9,9,9,0,0,,,,,,,4,0,4,0,0,35,35,47,,,,,,,,,,,,,,3,1.3018355999956839,3,0.35,0.5499999999999999,19.82361,return,2.145067099991138,,,,,,,,,,,,,,,,,p318,21,female,left_right_width,2025-12-16_11h34.34.733,exp1,2023.1.0,59.99196107536744,
,,,,,,,,,,,,,,,,5,8.275,9.1375,10,10.8625,11.725,0.8625,0.6125,0.25,3.7,10,match,36.05,298,329,361,392,423,9,9,9,9,9,,,,,,,4,0,4,0,0,36,36,22,,,,,,,,,,,,,,5,1.6042646999994759,5,0.25,0.3,10.81288,return,1.7634295000025304,,,,,,,,,,,,,,,,,p318,21,female,left_right_width,2025-12-16_11h34.34.733,exp1,2023.1.0,59.99196107536744,
,,,,,,,,,,,,,,,,4,8.35,9.45,10.55,11.65,0,1.1,0.8500000000000001,0.25,3.5500000000000003,10,initial,36.05,301,341,380,420,0,9,9,9,9,0,,,,,,,4,0,4,0,0,37,37,19,,,,,,,,,,,,,,4,1.4239025999995647,4,0.35,0.2,7.20859,return,3.572988699990674,,,,,,,,,,,,,,,,,p318,21,female,left_right_width,2025-12-16_11h34.34.733,exp1,2023.1.0,59.99196107536744,
,,,,,,,,,,,,,,,,3,8.6,10,11.4,0,0,1.4,0.85,0.55,3.35,10,match,36.05,310,361,411,0,0,9,9,9,0,0,,,,,,,4,0,4,0,0,38,38,41,,,,,,,,,,,,,,3,1.2288657000026433,3,0.2,0.49999999999999994,18.02146,return,3.16427449999901,,,,,,,,,,,,,,,,,p318,21,female,left_right_width,2025-12-16_11h34.34.733,exp1,2023.1.0,59.99196107536744,
,,,,,,,,,,,,,,,,4,8.65,9.55,10.45,11.35,0,0.9,0.65,0.25,2.95,10,initial,36.05,312,344,377,409,0,9,9,9,9,0,,,,,,,4,0,4,0,0,39,39,30,,,,,,,,,,,,,,4,1.2068148999969708,4,0.25,0.15000000000000002,5.40644,return,1.2681316999951378,,,,,,,,,,,,,,,,,p318,21,female,left_right_width,2025-12-16_11h34.34.733,exp1,2023.1.0,59.99196107536744,
,,,,,,,,,,,,,,,,5,7.8,8.9,10,11.1,12.2,1.1,0.7000000000000001,0.4,4.800000000000001,10,initial,36.05,281,321,361,400,440,9,9,9,9,9,,,,,,,4,0,4,0,0,40,40,38,,,,,,,,,,,,,,4,1.3981016999896383,4,0.55,0.55,19.82361,return,1.3728456999961054,,,,,,,,,,,,,,,,,p318,21,female,left_right_width,2025-12-16_11h34.34.733,exp1,2023.1.0,59.99196107536744,
,,,,,,,,,,,,,,,,5,8.2,9.1,10,10.9,11.8,0.9,0.35,0.55,4.15,10,initial,36.05,296,328,361,393,425,9,9,9,9,9,,,,,,,4,0,4,0,0,41,41,46,,,,,,,,,,,,,,5,1.0708967999962624,5,0.25,0.3,10.81288,return,1.1394685999985086,,,,,,,,,,,,,,,,,p318,21,female,left_right_width,2025-12-16_11h34.34.733,exp1,2023.1.0,59.99196107536744,
,,,,,,,,,,,,,,,,3,7.8,10,12.2,0,0,2.2,1.65,0.55,4.95,10,match,36.05,281,361,440,0,0,9,9,9,0,0,,,,,,,4,0,4,0,0,42,42,35,,,,,,,,,,,,,,3,1.1441749000077834,3,0.5,0.55,19.82361,return,1.1780459000001429,,,,,,,,,,,,,,,,,p318,21,female,left_right_width,2025-12-16_11h34.34.733,exp1,2023.1.0,59.99196107536744,
,,,,,,,,,,,,,,,,5,7.8,8.9,10,11.1,12.2,1.1,0.8500000000000001,0.25,4.65,10,initial,36.05,281,321,361,400,440,9,9,9,9,9,,,,,,,4,0,4,0,0,43,43,36,,,,,,,,,,,,,,5,1.2081799000006868,5,0.25,0.3,10.81288,return,1.3188678000005893,,,,,,,,,,,,,,,,,p318,21,female,left_right_width,2025-12-16_11h34.34.733,exp1,2023.1.0,59.99196107536744,
,,,,,,,,,,,,,,,,5,8.65,9.325,10,10.675,11.35,0.675,0.275,0.4,3.1,10,match,36.05,312,336,361,385,409,9,9,9,9,9,,,,,,,4,0,4,0,0,44,44,33,,,,,,,,,,,,,,5,1.1283546000049682,5,0.25,0.3,10.81288,return,1.2105395999969915,,,,,,,,,,,,,,,,,p318,21,female,left_right_width,2025-12-16_11h34.34.733,exp1,2023.1.0,59.99196107536744,
,,,,,,,,,,,,,,,,3,8.9,10,11.1,0,0,1.1,0.55,0.55,2.75,10,initial,36.05,321,361,400,0,0,9,9,9,0,0,,,,,,,4,0,4,0,0,45,45,0,,,,,,,,,,,,,,3,1.1758335000049556,3,0.45,0.45,16.21932,return,1.238807600006112,,,,,,,,,,,,,,,,,p318,21,female,left_right_width,2025-12-16_11h34.34.733,exp1,2023.1.0,59.99196107536744,
,,,,,,,,,,,,,,,,3,9.3,10,10.7,0,0,0.7,0.1499999999999999,0.55,1.95,10,initial,36.05,335,361,386,0,0,9,9,9,0,0,,,,,,,4,0,4,0,0,46,46,6,,,,,,,,,,,,,,2,1.278347899991786,2,0.35,0.49999999999999994,18.02146,return,1.1145702000067104,,,,,,,,,,,,,,,,,p318,21,female,left_right_width,2025-12-16_11h34.34.733,exp1,2023.1.0,59.99196107536744,
,,,,,,,,,,,,,,,,4,9.3,9.766666666666667,10.233333333333333,10.7,0,0.4666666666666667,0.21666666666666665,0.25,1.65,10,match,36.05,335,352,369,386,0,9,9,9,9,0,,,,,,,4,0,4,0,0,47,47,8,,,,,,,,,,,,,,3,1.0871200999972643,3,0.2,0.10000000000000002,3.60429,return,0.8979115000111051,,,,,,,,,,,,,,,,,p318,21,female,left_right_width,2025-12-16_11h34.34.733,exp1,2023.1.0,59.99196107536744,
,,,,,,,,,,,,,,,,4,8.35,9.45,10.55,11.65,0,1.1,0.7000000000000001,0.4,3.7,10,initial,36.05,301,341,380,420,0,9,9,9,9,0,,,,,,,4,0,4,0,0,48,48,21,,,,,,,,,,,,,,4,1.1116449999972247,4,0.2,0.35,12.61502,return,1.4654680999956327,,,,,,,,,,,,,,,,,p318,21,female,left_right_width,2025-12-16_11h34.34.733,exp1,2023.1.0,59.99196107536744,
,,,,,,,,,,,,,,,,5,8.2,9.1,10,10.9,11.8,0.9,0.65,0.25,3.85,10,initial,36.05,296,328,361,393,425,9,9,9,9,9,,,,,,,4,0,4,0,0,49,49,48,,,,,,,,,,,,,,5,1.1543031000037445,5,0.55,0.25000000000000006,9.01073,return,2.2756499999959487,,,,,,,,,,,,,,,,,p318,21,female,left_right_width,2025-12-16_11h34.34.733,exp1,2023.1.0,59.99196107536744,
,,,,,,,,,,,,,,,,3,8.2,10,11.8,0,0,1.7999999999999998,1.4,0.4,4,10,match,36.05,296,361,425,0,0,9,9,9,0,0,,,,,,,4,0,4,0,0,50,50,51,,,,,,,,,,,,,,3,1.1422462000045925,3,0.3,0.35,12.61502,return,1.591642299987143,,,,,,,,,,,,,,,,,p318,21,female,left_right_width,2025-12-16_11h34.34.733,exp1,2023.1.0,59.99196107536744,
,,,,,,,,,,,,,,,,4,9.3,9.766666666666667,10.233333333333333,10.7,0,0.4666666666666667,0.06666666666666665,0.4,1.8,10,match,36.05,335,352,369,386,0,9,9,9,9,0,,,,,,,4,0,4,0,0,51,51,10,,,,,,,,,,,,,,4,2.149062899989076,4,0.35,0.35,12.61502,return,2.3183541000034893,,,,,,,,,,,,,,,,,p318,21,female,left_right_width,2025-12-16_11h34.34.733,exp1,2023.1.0,59.99196107536744,
,,,,,,,,,,,,,,,,,,,,,,,,,,,,,,,,,,,,,,,,,,,,,4,0,4,0,,,,,,,,,,,,,,,,,,,,,,,,,,,,2067.199239900001,2067.199239900001,2067.199239900001,,,,,,,,,,,,p318,21,female,left_right_width,2025-12-16_11h34.34.733,exp1,2023.1.0,59.99196107536744,
,,,,,,,,,,,,,,,,3,8.9,10,11.1,0,0,1.1,0.7000000000000001,0.4,2.6000000000000005,10,initial,36.05,321,361,400,0,0,9,9,9,0,0,,,,,,,5,0,5,0,0,0,0,4,,,,,,,,,,,,,,3,1.6375773000036133,3,0.55,0.35000000000000003,12.61502,return,1.6837845999980345,,,,,,,,,,,,,,,,,p318,21,female,left_right_width,2025-12-16_11h34.34.733,exp1,2023.1.0,59.99196107536744,
,,,,,,,,,,,,,,,,3,9.1,10,10.9,0,0,0.9,0.65,0.25,2.05,10,initial,36.05,328,361,393,0,0,9,9,9,0,0,,,,,,,5,0,5,0,0,1,1,13,,,,,,,,,,,,,,3,1.4325303999939933,3,0.3,0.10000000000000002,3.60429,return,1.3421845999982907,,,,,,,,,,,,,,,,,p318,21,female,left_right_width,2025-12-16_11h34.34.733,exp1,2023.1.0,59.99196107536744,
,,,,,,,,,,,,,,,,3,9.1,10,10.9,0,0,0.9,0.5,0.4,2.2,10,initial,36.05,328,361,393,0,0,9,9,9,0,0,,,,,,,5,0,5,0,0,2,2,15,,,,,,,,,,,,,,3,0.6825450000033015,3,0.3,0.2,7.20859,return,0.9115996999898925,,,,,,,,,,,,,,,,,p318,21,female,left_right_width,2025-12-16_11h34.34.733,exp1,2023.1.0,59.99196107536744,
,,,,,,,,,,,,,,,,5,8.2,9.1,10,10.9,11.8,0.9,0.65,0.25,3.85,10,initial,36.05,296,328,361,393,425,9,9,9,9,9,,,,,,,5,0,5,0,0,3,3,48,,,,,,,,,,,,,,5,1.3136286999942968,5,0.2,0.25,9.01073,return,1.1648548000084702,,,,,,,,,,,,,,,,,p318,21,female,left_right_width,2025-12-16_11h34.34.733,exp1,2023.1.0,59.99196107536744,
,,,,,,,,,,,,,,,,4,8.9,9.633333333333333,10.366666666666667,11.1,0,0.7333333333333333,0.18333333333333326,0.55,2.75,10,match,36.05,321,347,374,400,0,9,9,9,9,0,,,,,,,5,0,5,0,0,4,4,1,,,,,,,,,,,,,,3,1.252171799991629,3,0.55,0.6000000000000001,21.62576,return,1.457701299994369,,,,,,,,,,,,,,,,,p318,21,female,left_right_width,2025-12-16_11h34.34.733,exp1,2023.1.0,59.99196107536744,
,,,,,,,,,,,,,,,,4,8.65,9.55,10.45,11.35,0,0.9,0.5,0.4,3.1,10,initial,36.05,312,344,377,409,0,9,9,9,9,0,,,,,,,5,0,5,0,0,5,5,32,,,,,,,,,,,,,,4,1.039486299996497,4,0.55,0.45,16.21932,return,1.3339777999935905,,,,,,,,,,,,,,,,,p318,21,female,left_right_width,2025-12-16_11h34.34.733,exp1,2023.1.0,59.99196107536744,
,,,,,,,,,,,,,,,,4,9.1,9.7,10.3,10.9,0,0.6,0.04999999999999997,0.55,2.35,10,match,36.05,328,350,371,393,0,9,9,9,9,0,,,,,,,5,0,5,0,0,6,6,12,,,,,,,,,,,,,,3,1.2809701999940444,3,0.4,0.6000000000000001,21.62576,return,1.4219034999987343,,,,,,,,,,,,,,,,,p318,21,female,left_right_width,2025-12-16_11h34.34.733,exp1,2023.1.0,59.99196107536744,
,,,,,,,,,,,,,,,,5,8.2,9.1,10,10.9,11.8,0.9,0.35,0.55,4.15,10,initial,36.05,296,328,361,393,425,9,9,9,9,9,,,,,,,5,0,5,0,0,7,7,46,,,,,,,,,,,,,,4,1.0793414999934612,4,0.3,0.5499999999999999,19.82361,return,2.156214999995427,,,,,,,,,,,,,,,,,p318,21,female,left_right_width,2025-12-16_11h34.34.733,exp1,2023.1.0,59.99196107536744,
,,,,,,,,,,,,,,,,5,8.95,9.475,10,10.525,11.05,0.525,0.275,0.25,2.35,10,match,36.05,323,342,361,379,398,9,9,9,9,9,,,,,,,5,0,5,0,0,8,8,25,,,,,,,,,,,,,,5,1.6115984999923967,5,0.25,0.15000000000000002,5.40644,return,1.595625600006315,,,,,,,,,,,,,,,,,p318,21,female,left_right_width,2025-12-16_11h34.34.733,exp1,2023.1.0,59.99196107536744,
,,,,,,,,,,,,,,,,3,8.9,10,11.1,0,0,1.1,0.8500000000000001,0.25,2.45,10,initial,36.05,321,361,400,0,0,9,9,9,0,0,,,,,,,5,0,5,0,0,9,9,2,,,,,,,,,,,,,,3,1.332673299999442,3,0.35,0.25,9.01073,return,1.1828337000042666,,,,,,,,,,,,,,,,,p318,21,female,left_right_width,2025-12-16_11h34.34.733,exp1,2023.1.0,59.99196107536744,
,,,,,,,,,,,,,,,,4,8.65,9.55,10.45,11.35,0,0.9,0.65,0.25,2.95,10,initial,36.05,312,344,377,409,0,9,9,9,9,0,,,,,,,5,0,5,0,0,10,10,30,,,,,,,,,,,,,,4,1.2178800999972736,4,0.55,0.15000000000000008,5.40644,return,2.4644205999939004,,,,,,,,,,,,,,,,,p318,21,female,left_right_width,2025-12-16_11h34.34.733,exp1,2023.1.0,59.99196107536744,
,,,,,,,,,,,,,,,,3,8.2,10,11.8,0,0,1.7999999999999998,1.4,0.4,4,10,match,36.05,296,361,425,0,0,9,9,9,0,0,,,,,,,5,0,5,0,0,11,11,51,,,,,,,,,,,,,,2,1.2159820000088075,2,0.3,0.2,7.20859,return,1.197705099999439,,,,,,,,,,,,,,,,,p318,21,female,left_right_width,2025-12-16_11h34.34.733,exp1,2023.1.0,59.99196107536744,
,,,,,,,,,,,,,,,,4,8.95,9.65,10.35,11.05,0,0.7,0.29999999999999993,0.4,2.5,10,initial,36.05,323,348,373,398,0,9,9,9,9,0,,,,,,,5,0,5,0,0,12,12,26,,,,,,,,,,,,,,4,1.1209567000041716,4,0.5,0.5,18.02146,return,1.634714100000565,,,,,,,,,,,,,,,,,p318,21,female,left_right_width,2025-12-16_11h34.34.733,exp1,2023.1.0,59.99196107536744,
,,,,,,,,,,,,,,,,4,9.3,9.766666666666667,10.233333333333333,10.7,0,0.4666666666666667,0.06666666666666665,0.4,1.8,10,match,36.05,335,352,369,386,0,9,9,9,9,0,,,,,,,5,0,5,0,0,13,13,10,,,,,,,,,,,,,,3,1.284886399997049,3,0.35,0.39999999999999997,14.41717,return,1.120288200007053,,,,,,,,,,,,,,,,,p318,21,female,left_right_width,2025-12-16_11h34.34.733,exp1,2023.1.0,59.99196107536744,
,,,,,,,,,,,,,,,,4,8.35,9.45,10.55,11.65,0,1.1,0.8500000000000001,0.25,3.5500000000000003,10,initial,36.05,301,341,380,420,0,9,9,9,9,0,,,,,,,5,0,5,0,0,14,14,19,,,,,,,,,,,,,,4,1.5423253000044497,4,0.4,0.25000000000000006,9.01073,return,1.3035347999975784,,,,,,,,,,,,,,,,,p318,21,female,left_right_width,2025-12-16_11h34.34.733,exp1,2023.1.0,59.99196107536744,
,,,,,,,,,,,,,,,,5,8.2,9.1,10,10.9,11.8,0.9,0.5,0.4,4,10,initial,36.05,296,328,361,393,425,9,9,9,9,9,,,,,,,5,0,5,0,0,15,15,50,,,,,,,,,,,,,,5,1.3434602999914205,5,0.35,0.3,10.81288,return,1.1449604999943404,,,,,,,,,,,,,,,,,p318,21,female,left_right_width,2025-12-16_11h34.34.733,exp1,2023.1.0,59.99196107536744,
,,,,,,,,,,,,,,,,3,8.525,10,11.475,0,0,1.475,1.225,0.25,3.2,10,match,36.05,307,361,414,0,0,9,9,9,0,0,,,,,,,5,0,5,0,0,16,16,45,,,,,,,,,,,,,,3,1.0116464000020642,3,0.4,0.25000000000000006,9.01073,return,1.1621681999968132,,,,,,,,,,,,,,,,,p318,21,female,left_right_width,2025-12-16_11h34.34.733,exp1,2023.1.0,59.99196107536744,
,,,,,,,,,,,,,,,,4,9.3,9.766666666666667,10.233333333333333,10.7,0,0.4666666666666667,0.21666666666666665,0.25,1.65,10,match,36.05,335,352,369,386,0,9,9,9,9,0,,,,,,,5,0,5,0,0,17,17,8,,,,,,,,,,,,,,4,1.137649299998884,4,0.5,0.30000000000000004,10.81288,return,2.0988581999990856,,,,,,,,,,,,,,,,,p318,21,female,left_right_width,2025-12-16_11h34.34.733,exp1,2023.1.0,59.99196107536744,
,,,,,,,,,,,,,,,,5,8.35,9.175,10,10.825,11.65,0.8250000000000001,0.275,0.55,3.85,10,match,36.05,301,331,361,390,420,9,9,9,9,9,,,,,,,5,0,5,0,0,18,18,18,,,,,,,,,,,,,,4,1.4152022999915062,4,0.3,0.44999999999999996,16.21932,return,1.469368599995505,,,,,,,,,,,,,,,,,p318,21,female,left_right_width,2025-12-16_11h34.34.733,exp1,2023.1.0,59.99196107536744,
,,,,,,,,,,,,,,,,5,8.275,9.1375,10,10.8625,11.725,0.8625,0.6125,0.25,3.7,10,match,36.05,298,329,361,392,423,9,9,9,9,9,,,,,,,5,0,5,0,0,19,19,22,,,,,,,,,,,,,,5,1.0982242000027327,5,0.5,0.30000000000000004,10.81288,return,1.4365638000017498,,,,,,,,,,,,,,,,,p318,21,female,left_right_width,2025-12-16_11h34.34.733,exp1,2023.1.0,59.99196107536744,
,,,,,,,,,,,,,,,,5,8.95,9.475,10,10.525,11.05,0.525,0.125,0.4,2.5,10,match,36.05,323,342,361,379,398,9,9,9,9,9,,,,,,,5,0,5,0,0,20,20,27,,,,,,,,,,,,,,5,1.1942723999964073,5,0.55,0.35000000000000003,12.61502,return,1.6730499999976018,,,,,,,,,,,,,,,,,p318,21,female,left_right_width,2025-12-16_11h34.34.733,exp1,2023.1.0,59.99196107536744,
,,,,,,,,,,,,,,,,4,8.35,9.45,10.55,11.65,0,1.1,0.7000000000000001,0.4,3.7,10,initial,36.05,301,341,380,420,0,9,9,9,9,0,,,,,,,5,0,5,0,0,21,21,21,,,,,,,,,,,,,,4,1.2263180000009015,4,0.35,0.3,10.81288,return,1.1756060000043362,,,,,,,,,,,,,,,,,p318,21,female,left_right_width,2025-12-16_11h34.34.733,exp1,2023.1.0,59.99196107536744,
