amount_p,posx1_p,posx2_p,posx3_p,posx4_p,posx5_p,center_to_center_p,edge_to_edge_p,w_p,stim_lengt_p,eccentricity_p,line1_p,line2_p,line3_p,line4_p,line5_p,amount,posx1,posx2,posx3,posx4,posx5,center_to_center,edge_to_edge,w,stim_length,eccentricity,trial_type,deg_to_pix_index,posx1_in_pix,posx2_in_pix,posx3_in_pix,posx4_in_pix,posx5_in_pix,line1,line2,line3,line4,line5,posx,setsize_cobdi,trials.thisRepN,trials.thisTrialN,trials.thisN,trials.thisIndex,blocks.thisRepN,blocks.thisTrialN,blocks.thisN,blocks.thisIndex,loop.thisRepN,loop.thisTrialN,loop.thisN,loop.thisIndex,first.thisRepN,first.thisTrialN,first.thisN,first.thisIndex,second.thisRepN,second.thisTrialN,second.thisN,second.thisIndex,thisRow.t,notes,key_resp_3.started,key_resp_3.keys,key_resp_3.rt,key_resp.keys,key_resp.rt,response,starting_width_deg,response_width_degree,response_width_pixel,next_5.keys,next_5.rt,key_resp_4.keys,key_resp_4.rt,text_3.started,text_4.started,key_resp_2.started,text_2.started,key_resp_2.keys,key_resp_2.rt,adjusting.started,next.keys,next.rt,text_control2.started,key_resp.started,key_resp.corr,text_bye.started,text_bye.stopped,participant,age,gender,resp_group,date,expName,psychopyVersion,frameRate,
,,,,,,,,,,,,,,,,,,,,,,,,,,,,,,,,,,,,,,,,,,,,,,,,,,,,,,,,,,,,,,,64.68566930000088,c,104.08766430000833,,,,,,,,,,,,,,,,,,,,,,,,,p319,23,male,left_right_width,2025-12-16_12h37.22.220,exp1,2023.1.0,59.98883008033509,
3,8.2,10,11.8,0,0,1.7999999999999998,1.4,0.4,4,10,9,9,9,0,0,,,,,,,,,,,,,,,,,,,,,,,,,,0,0,0,2,,,,,,,,,,,,,,,,,,,,,,3,12.34887489999528,3,0.45,0.35000000000000003,12.61502,return,12.23790320000262,,,,,,,,,,,,,,,,,p319,23,male,left_right_width,2025-12-16_12h37.22.220,exp1,2023.1.0,59.98883008033509,
3,9,10,11,0,0,1,0.9,0.1,2.1,10,9,9,9,0,0,,,,,,,,,,,,,,,,,,,,,,,,,,0,1,1,1,,,,,,,,,,,,,,,,,,,,,,3,2.780585799991968,3,0.3,0.10000000000000002,3.60429,return,3.8695816999970702,,,,,,,,,,,,,,,,,p319,23,male,left_right_width,2025-12-16_12h37.22.220,exp1,2023.1.0,59.98883008033509,
4,8.65,9.55,10.45,11.35,0,0.9,0.5,0.4,3.1,10,9,9,9,9,0,,,,,,,,,,,,,,,,,,,,,,,,,,0,2,2,5,,,,,,,,,,,,,,,,,,,,,,4,2.0271600000123726,4,0.55,0.30000000000000004,10.81288,return,4.184672800009139,,,,,,,,,,,,,,,,,p319,23,male,left_right_width,2025-12-16_12h37.22.220,exp1,2023.1.0,59.98883008033509,
4,9.5,9.833333333333334,10.166666666666666,10.5,0,0.33333333333333337,0.23333333333333336,0.1,1.1,10,9,9,9,9,0,,,,,,,,,,,,,,,,,,,,,,,,,,0,3,3,3,,,,,,,,,,,,,,,,,,,,,,3,1.3973137000139104,3,0.3,0.15000000000000002,5.40644,return,4.508405900007347,,,,,,,,,,,,,,,,,p319,23,male,left_right_width,2025-12-16_12h37.22.220,exp1,2023.1.0,59.98883008033509,
4,9.25,9.75,10.25,10.75,0,0.5,0.25,0.25,1.75,10,9,9,9,9,0,,,,,,,,,,,,,,,,,,,,,,,,,,0,4,4,4,,,,,,,,,,,,,,,,,,,,,,3,2.7350288000016008,3,0.4,0.15000000000000008,5.40644,return,4.129263000009814,,,,,,,,,,,,,,,,,p319,23,male,left_right_width,2025-12-16_12h37.22.220,exp1,2023.1.0,59.98883008033509,
5,9.25,9.625,10,10.375,10.75,0.375,0.125,0.25,1.75,10,9,9,9,9,9,,,,,,,,,,,,,,,,,,,,,,,,,,0,5,5,6,,,,,,,,,,,,,,,,,,,,,,3,0.05701000000408385,3,0.4,0.25000000000000006,9.01073,return,4.14895260000776,,,,,,,,,,,,,,,,,p319,23,male,left_right_width,2025-12-16_12h37.22.220,exp1,2023.1.0,59.98883008033509,
5,9,9.5,10,10.5,11,0.5,0.09999999999999998,0.4,2.4,10,9,9,9,9,9,,,,,,,,,,,,,,,,,,,,,,,,,,0,6,6,8,,,,,,,,,,,,,,,,,,,,,,4,2.4347149999957765,4,0.3,0.35,12.61502,return,3.9677819999924395,,,,,,,,,,,,,,,,,p319,23,male,left_right_width,2025-12-16_12h37.22.220,exp1,2023.1.0,59.98883008033509,
5,8.6,9.3,10,10.7,11.4,0.7,0.29999999999999993,0.4,3.1999999999999997,10,9,9,9,9,9,,,,,,,,,,,,,,,,,,,,,,,,,,0,7,7,7,,,,,,,,,,,,,,,,,,,,,,5,3.502996900002472,5,0.25,0.39999999999999997,14.41717,return,4.1933947000070475,,,,,,,,,,,,,,,,,p319,23,male,left_right_width,2025-12-16_12h37.22.220,exp1,2023.1.0,59.98883008033509,
3,9.5,10,10.5,0,0,0.5,0.4,0.1,1.1,10,9,9,9,0,0,,,,,,,,,,,,,,,,,,,,,,,,,,0,8,8,0,,,,,,,,,,,,,,,,,,,,,,3,2.6853430999908596,3,0.55,0.25000000000000006,9.01073,return,3.7438060000131372,,,,,,,,,,,,,,,,,p319,23,male,left_right_width,2025-12-16_12h37.22.220,exp1,2023.1.0,59.98883008033509,
,,,,,,,,,,,,,,,,,,,,,,,,,,,,,,,,,,,,,,,,,,,,,,,,,,,,,,,,,,,,,,,,,,,,,,,,,,c,78.26543030000175,,,,,,,,,,,,,,,p319,23,male,left_right_width,2025-12-16_12h37.22.220,exp1,2023.1.0,59.98883008033509,
,,,,,,,,,,,,,,,,4,8.35,9.45,10.55,11.65,0,1.1,0.55,0.55,3.8500000000000005,10,initial,36.05,301,341,380,420,0,9,9,9,9,0,,,,,,,0,0,0,0,0,0,0,17,,,,,,,,,,,,,,4,1.5266011000057915,4,0.45,0.45,16.21932,return,1.4494504000031156,,,,,,,,,,,,,,,,,p319,23,male,left_right_width,2025-12-16_12h37.22.220,exp1,2023.1.0,59.98883008033509,
,,,,,,,,,,,,,,,,4,8.825,9.608333333333333,10.391666666666667,11.175,0,0.7833333333333333,0.5333333333333333,0.25,2.6,10,match,36.05,318,346,375,403,0,9,9,9,9,0,,,,,,,0,0,0,0,0,1,1,5,,,,,,,,,,,,,,4,2.1766122999979416,4,0.4,0.30000000000000004,10.81288,return,4.568262000000686,,,,,,,,,,,,,,,,,p319,23,male,left_right_width,2025-12-16_12h37.22.220,exp1,2023.1.0,59.98883008033509,
,,,,,,,,,,,,,,,,3,7.800000000000001,10,12.2,0,0,2.1999999999999997,1.7999999999999998,0.4,4.8,10,match,36.05,281,361,440,0,0,9,9,9,0,0,,,,,,,0,0,0,0,0,2,2,39,,,,,,,,,,,,,,3,1.368367600007332,3,0.45,0.35000000000000003,12.61502,return,3.0885310000012396,,,,,,,,,,,,,,,,,p319,23,male,left_right_width,2025-12-16_12h37.22.220,exp1,2023.1.0,59.98883008033509,
,,,,,,,,,,,,,,,,4,8.9,9.633333333333333,10.366666666666667,11.1,0,0.7333333333333334,0.4833333333333334,0.25,2.45,10,match,36.05,321,347,374,400,0,9,9,9,9,0,,,,,,,0,0,0,0,0,3,3,3,,,,,,,,,,,,,,4,1.7517483999981778,4,0.35,0.3,10.81288,return,3.1680712000088533,,,,,,,,,,,,,,,,,p319,23,male,left_right_width,2025-12-16_12h37.22.220,exp1,2023.1.0,59.98883008033509,
,,,,,,,,,,,,,,,,4,8.65,9.55,10.45,11.35,0,0.9,0.35,0.55,3.25,10,initial,36.05,312,344,377,409,0,9,9,9,9,0,,,,,,,0,0,0,0,0,4,4,28,,,,,,,,,,,,,,5,2.0677830999920843,5,0.2,0.39999999999999997,14.41717,return,4.095807300007436,,,,,,,,,,,,,,,,,p319,23,male,left_right_width,2025-12-16_12h37.22.220,exp1,2023.1.0,59.98883008033509,
,,,,,,,,,,,,,,,,3,8.6,10,11.4,0,0,1.4,0.85,0.55,3.35,10,match,36.05,310,361,411,0,0,9,9,9,0,0,,,,,,,0,0,0,0,0,5,5,41,,,,,,,,,,,,,,3,2.510571099992376,3,0.35,0.39999999999999997,14.41717,return,2.249463600004674,,,,,,,,,,,,,,,,,p319,23,male,left_right_width,2025-12-16_12h37.22.220,exp1,2023.1.0,59.98883008033509,
,,,,,,,,,,,,,,,,5,8.6,9.3,10,10.7,11.4,0.7,0.29999999999999993,0.4,3.1999999999999997,10,initial,36.05,310,335,361,386,411,9,9,9,9,9,,,,,,,0,0,0,0,0,6,6,44,,,,,,,,,,,,,,4,1.7790827999997418,4,0.25,0.39999999999999997,14.41717,return,3.050848099999712,,,,,,,,,,,,,,,,,p319,23,male,left_right_width,2025-12-16_12h37.22.220,exp1,2023.1.0,59.98883008033509,
,,,,,,,,,,,,,,,,4,9.3,9.766666666666667,10.233333333333333,10.7,0,0.4666666666666667,0.21666666666666665,0.25,1.65,10,match,36.05,335,352,369,386,0,9,9,9,9,0,,,,,,,0,0,0,0,0,7,7,8,,,,,,,,,,,,,,4,2.4732082999980776,4,0.45,0.35000000000000003,12.61502,return,1.8787275999929989,,,,,,,,,,,,,,,,,p319,23,male,left_right_width,2025-12-16_12h37.22.220,exp1,2023.1.0,59.98883008033509,
,,,,,,,,,,,,,,,,3,8.2,10,11.8,0,0,1.8,1.55,0.25,3.85,10,match,36.05,296,361,425,0,0,9,9,9,0,0,,,,,,,0,0,0,0,0,8,8,49,,,,,,,,,,,,,,3,1.1492689000006067,3,0.55,0.35000000000000003,12.61502,return,2.8321176000026753,,,,,,,,,,,,,,,,,p319,23,male,left_right_width,2025-12-16_12h37.22.220,exp1,2023.1.0,59.98883008033509,
,,,,,,,,,,,,,,,,3,8.525,10,11.475,0,0,1.475,1.225,0.25,3.2,10,match,36.05,307,361,414,0,0,9,9,9,0,0,,,,,,,0,0,0,0,0,9,9,45,,,,,,,,,,,,,,3,1.0158999999985099,3,0.35,0.3,10.81288,return,2.558534200012218,,,,,,,,,,,,,,,,,p319,23,male,left_right_width,2025-12-16_12h37.22.220,exp1,2023.1.0,59.98883008033509,
,,,,,,,,,,,,,,,,3,9.3,10,10.7,0,0,0.7,0.44999999999999996,0.25,1.65,10,initial,36.05,335,361,386,0,0,9,9,9,0,0,,,,,,,0,0,0,0,0,10,10,7,,,,,,,,,,,,,,3,1.7107651000114856,3,0.35,0.3,10.81288,return,1.6736037999944529,,,,,,,,,,,,,,,,,p319,23,male,left_right_width,2025-12-16_12h37.22.220,exp1,2023.1.0,59.98883008033509,
,,,,,,,,,,,,,,,,4,8.95,9.65,10.35,11.05,0,0.7,0.1499999999999999,0.55,2.65,10,initial,36.05,323,348,373,398,0,9,9,9,9,0,,,,,,,0,0,0,0,0,11,11,23,,,,,,,,,,,,,,4,1.8495743999956176,4,0.4,0.5,18.02146,return,2.030954500005464,,,,,,,,,,,,,,,,,p319,23,male,left_right_width,2025-12-16_12h37.22.220,exp1,2023.1.0,59.98883008033509,
,,,,,,,,,,,,,,,,4,8.35,9.45,10.55,11.65,0,1.1,0.7000000000000001,0.4,3.7,10,initial,36.05,301,341,380,420,0,9,9,9,9,0,,,,,,,0,0,0,0,0,12,12,21,,,,,,,,,,,,,,4,1.5184514000138734,4,0.3,0.44999999999999996,16.21932,return,5.296622199995909,,,,,,,,,,,,,,,,,p319,23,male,left_right_width,2025-12-16_12h37.22.220,exp1,2023.1.0,59.98883008033509,
,,,,,,,,,,,,,,,,4,9.1,9.7,10.3,10.9,0,0.6,0.04999999999999997,0.55,2.35,10,match,36.05,328,350,371,393,0,9,9,9,9,0,,,,,,,0,0,0,0,0,13,13,12,,,,,,,,,,,,,,4,2.0619055999995908,4,0.25,0.5499999999999999,19.82361,return,4.362386799999513,,,,,,,,,,,,,,,,,p319,23,male,left_right_width,2025-12-16_12h37.22.220,exp1,2023.1.0,59.98883008033509,
,,,,,,,,,,,,,,,,4,8.95,9.65,10.35,11.05,0,0.7,0.44999999999999996,0.25,2.3499999999999996,10,initial,36.05,323,348,373,398,0,9,9,9,9,0,,,,,,,0,0,0,0,0,14,14,24,,,,,,,,,,,,,,3,2.4830136000091443,3,0.5,0.35000000000000003,12.61502,return,2.127455599998939,,,,,,,,,,,,,,,,,p319,23,male,left_right_width,2025-12-16_12h37.22.220,exp1,2023.1.0,59.98883008033509,
,,,,,,,,,,,,,,,,3,8.9,10,11.1,0,0,1.1,0.55,0.55,2.75,10,initial,36.05,321,361,400,0,0,9,9,9,0,0,,,,,,,0,0,0,0,0,15,15,0,,,,,,,,,,,,,,3,0.8680049999966286,3,0.25,0.44999999999999996,16.21932,return,3.0878980999987107,,,,,,,,,,,,,,,,,p319,23,male,left_right_width,2025-12-16_12h37.22.220,exp1,2023.1.0,59.98883008033509,
,,,,,,,,,,,,,,,,5,8.65,9.325,10,10.675,11.35,0.675,0.42500000000000004,0.25,2.95,10,match,36.05,312,336,361,385,409,9,9,9,9,9,,,,,,,0,0,0,0,0,16,16,31,,,,,,,,,,,,,,4,1.9946594000066398,4,0.3,0.3,10.81288,return,3.0177054000087082,,,,,,,,,,,,,,,,,p319,23,male,left_right_width,2025-12-16_12h37.22.220,exp1,2023.1.0,59.98883008033509,
,,,,,,,,,,,,,,,,3,9.1,10,10.9,0,0,0.9,0.5,0.4,2.2,10,initial,36.05,328,361,393,0,0,9,9,9,0,0,,,,,,,0,0,0,0,0,17,17,15,,,,,,,,,,,,,,3,0.8365587000007508,3,0.55,0.35000000000000003,12.61502,return,3.8737464000005275,,,,,,,,,,,,,,,,,p319,23,male,left_right_width,2025-12-16_12h37.22.220,exp1,2023.1.0,59.98883008033509,
,,,,,,,,,,,,,,,,5,8.2,9.1,10,10.9,11.8,0.9,0.35,0.55,4.15,10,initial,36.05,296,328,361,393,425,9,9,9,9,9,,,,,,,0,0,0,0,0,18,18,46,,,,,,,,,,,,,,5,2.0903877999953693,5,0.4,0.4,14.41717,return,1.7661469000013312,,,,,,,,,,,,,,,,,p319,23,male,left_right_width,2025-12-16_12h37.22.220,exp1,2023.1.0,59.98883008033509,
,,,,,,,,,,,,,,,,3,8.9,10,11.1,0,0,1.1,0.8500000000000001,0.25,2.45,10,initial,36.05,321,361,400,0,0,9,9,9,0,0,,,,,,,0,0,0,0,0,19,19,2,,,,,,,,,,,,,,4,2.7487727999978233,4,0.4,0.35000000000000003,12.61502,return,1.5180038999969838,,,,,,,,,,,,,,,,,p319,23,male,left_right_width,2025-12-16_12h37.22.220,exp1,2023.1.0,59.98883008033509,
,,,,,,,,,,,,,,,,5,8.2,9.1,10,10.9,11.8,0.9,0.5,0.4,4,10,initial,36.05,296,328,361,393,425,9,9,9,9,9,,,,,,,0,0,0,0,0,20,20,50,,,,,,,,,,,,,,5,2.2818791000026977,5,0.2,0.39999999999999997,14.41717,return,2.4125015000026906,,,,,,,,,,,,,,,,,p319,23,male,left_right_width,2025-12-16_12h37.22.220,exp1,2023.1.0,59.98883008033509,
,,,,,,,,,,,,,,,,5,8.6,9.3,10,10.7,11.4,0.7,0.44999999999999996,0.25,3.05,10,initial,36.05,310,335,361,386,411,9,9,9,9,9,,,,,,,0,0,0,0,0,21,21,42,,,,,,,,,,,,,,6,2.358745999998064,6,0.35,0.35,12.61502,return,1.4300907999859191,,,,,,,,,,,,,,,,,p319,23,male,left_right_width,2025-12-16_12h37.22.220,exp1,2023.1.0,59.98883008033509,
,,,,,,,,,,,,,,,,5,8.2,9.1,10,10.9,11.8,0.9,0.65,0.25,3.85,10,initial,36.05,296,328,361,393,425,9,9,9,9,9,,,,,,,0,0,0,0,0,22,22,48,,,,,,,,,,,,,,5,1.679444199995487,5,0.2,0.35,12.61502,return,1.8515239999978803,,,,,,,,,,,,,,,,,p319,23,male,left_right_width,2025-12-16_12h37.22.220,exp1,2023.1.0,59.98883008033509,
,,,,,,,,,,,,,,,,4,8.65,9.55,10.45,11.35,0,0.9,0.65,0.25,2.95,10,initial,36.05,312,344,377,409,0,9,9,9,9,0,,,,,,,0,0,0,0,0,23,23,30,,,,,,,,,,,,,,4,1.3933736000035424,4,0.25,0.3,10.81288,return,1.2415284000016982,,,,,,,,,,,,,,,,,p319,23,male,left_right_width,2025-12-16_12h37.22.220,exp1,2023.1.0,59.98883008033509,
,,,,,,,,,,,,,,,,5,8.65,9.325,10,10.675,11.35,0.675,0.125,0.55,3.25,10,match,36.05,312,336,361,385,409,9,9,9,9,9,,,,,,,0,0,0,0,0,24,24,29,,,,,,,,,,,,,,5,1.4824735000001965,5,0.3,0.39999999999999997,14.41717,return,1.4851807999948505,,,,,,,,,,,,,,,,,p319,23,male,left_right_width,2025-12-16_12h37.22.220,exp1,2023.1.0,59.98883008033509,
,,,,,,,,,,,,,,,,3,8.2,10,11.8,0,0,1.7999999999999998,1.4,0.4,4,10,match,36.05,296,361,425,0,0,9,9,9,0,0,,,,,,,0,0,0,0,0,25,25,51,,,,,,,,,,,,,,4,1.6028440999943996,4,0.25,0.35,12.61502,return,1.2494364000012865,,,,,,,,,,,,,,,,,p319,23,male,left_right_width,2025-12-16_12h37.22.220,exp1,2023.1.0,59.98883008033509,
,,,,,,,,,,,,,,,,4,9.1,9.7,10.3,10.9,0,0.6000000000000001,0.20000000000000004,0.4,2.2,10,match,36.05,328,350,371,393,0,9,9,9,9,0,,,,,,,0,0,0,0,0,26,26,16,,,,,,,,,,,,,,3,2.663934500000323,3,0.3,0.35,12.61502,return,1.4041959999885876,,,,,,,,,,,,,,,,,p319,23,male,left_right_width,2025-12-16_12h37.22.220,exp1,2023.1.0,59.98883008033509,
,,,,,,,,,,,,,,,,5,7.8,8.9,10,11.1,12.2,1.1,0.55,0.55,4.95,10,initial,36.05,281,321,361,400,440,9,9,9,9,9,,,,,,,0,0,0,0,0,27,27,34,,,,,,,,,,,,,,5,1.4666143000067677,5,0.4,0.35000000000000003,12.61502,return,1.7272785999957705,,,,,,,,,,,,,,,,,p319,23,male,left_right_width,2025-12-16_12h37.22.220,exp1,2023.1.0,59.98883008033509,
,,,,,,,,,,,,,,,,4,8.35,9.45,10.55,11.65,0,1.1,0.8500000000000001,0.25,3.5500000000000003,10,initial,36.05,301,341,380,420,0,9,9,9,9,0,,,,,,,0,0,0,0,0,28,28,19,,,,,,,,,,,,,,4,1.5791236999939429,4,0.5,0.35000000000000003,12.61502,return,2.7323933000006946,,,,,,,,,,,,,,,,,p319,23,male,left_right_width,2025-12-16_12h37.22.220,exp1,2023.1.0,59.98883008033509,
,,,,,,,,,,,,,,,,5,8.35,9.175,10,10.825,11.65,0.825,0.575,0.25,3.55,10,match,36.05,301,331,361,390,420,9,9,9,9,9,,,,,,,0,0,0,0,0,29,29,20,,,,,,,,,,,,,,5,2.0479402000055416,5,0.45,0.30000000000000004,10.81288,return,1.8684816000022693,,,,,,,,,,,,,,,,,p319,23,male,left_right_width,2025-12-16_12h37.22.220,exp1,2023.1.0,59.98883008033509,
,,,,,,,,,,,,,,,,3,7.8,10,12.2,0,0,2.2,1.65,0.55,4.95,10,match,36.05,281,361,440,0,0,9,9,9,0,0,,,,,,,0,0,0,0,0,30,30,35,,,,,,,,,,,,,,4,1.1925344000046607,4,0.2,0.39999999999999997,14.41717,return,2.264604000010877,,,,,,,,,,,,,,,,,p319,23,male,left_right_width,2025-12-16_12h37.22.220,exp1,2023.1.0,59.98883008033509,
,,,,,,,,,,,,,,,,4,8.9,9.633333333333333,10.366666666666667,11.1,0,0.7333333333333333,0.18333333333333326,0.55,2.75,10,match,36.05,321,347,374,400,0,9,9,9,9,0,,,,,,,0,0,0,0,0,31,31,1,,,,,,,,,,,,,,4,1.2199483000003966,4,0.3,0.39999999999999997,14.41717,return,1.5540800000017043,,,,,,,,,,,,,,,,,p319,23,male,left_right_width,2025-12-16_12h37.22.220,exp1,2023.1.0,59.98883008033509,
,,,,,,,,,,,,,,,,3,8.6,10,11.4,0,0,1.4,1.15,0.25,3.05,10,match,36.05,310,361,411,0,0,9,9,9,0,0,,,,,,,0,0,0,0,0,32,32,43,,,,,,,,,,,,,,4,2.6956826000096044,4,0.4,0.30000000000000004,10.81288,return,2.3938696999975946,,,,,,,,,,,,,,,,,p319,23,male,left_right_width,2025-12-16_12h37.22.220,exp1,2023.1.0,59.98883008033509,
,,,,,,,,,,,,,,,,3,7.8,10,12.2,0,0,2.2,1.9500000000000002,0.25,4.65,10,match,36.05,281,361,440,0,0,9,9,9,0,0,,,,,,,0,0,0,0,0,33,33,37,,,,,,,,,,,,,,3,1.2567376999941189,3,0.35,0.3,10.81288,return,1.572834900012822,,,,,,,,,,,,,,,,,p319,23,male,left_right_width,2025-12-16_12h37.22.220,exp1,2023.1.0,59.98883008033509,
,,,,,,,,,,,,,,,,5,7.8,8.9,10,11.1,12.2,1.1,0.7000000000000001,0.4,4.800000000000001,10,initial,36.05,281,321,361,400,440,9,9,9,9,9,,,,,,,0,0,0,0,0,34,34,38,,,,,,,,,,,,,,5,2.1098167000018293,5,0.25,0.35,12.61502,return,1.8817784999992,,,,,,,,,,,,,,,,,p319,23,male,left_right_width,2025-12-16_12h37.22.220,exp1,2023.1.0,59.98883008033509,
,,,,,,,,,,,,,,,,4,8.65,9.55,10.45,11.35,0,0.9,0.5,0.4,3.1,10,initial,36.05,312,344,377,409,0,9,9,9,9,0,,,,,,,0,0,0,0,0,35,35,32,,,,,,,,,,,,,,4,1.8576079000049504,4,0.35,0.3,10.81288,return,1.5585299999947893,,,,,,,,,,,,,,,,,p319,23,male,left_right_width,2025-12-16_12h37.22.220,exp1,2023.1.0,59.98883008033509,
,,,,,,,,,,,,,,,,3,8.2,10,11.8,0,0,1.8,1.25,0.55,4.15,10,match,36.05,296,361,425,0,0,9,9,9,0,0,,,,,,,0,0,0,0,0,36,36,47,,,,,,,,,,,,,,3,1.905349299995578,3,0.25,0.35,12.61502,return,1.8908839000068838,,,,,,,,,,,,,,,,,p319,23,male,left_right_width,2025-12-16_12h37.22.220,exp1,2023.1.0,59.98883008033509,
,,,,,,,,,,,,,,,,4,8.95,9.65,10.35,11.05,0,0.7,0.29999999999999993,0.4,2.5,10,initial,36.05,323,348,373,398,0,9,9,9,9,0,,,,,,,0,0,0,0,0,37,37,26,,,,,,,,,,,,,,4,1.8765392000059364,4,0.45,0.35000000000000003,12.61502,return,1.4654004000040004,,,,,,,,,,,,,,,,,p319,23,male,left_right_width,2025-12-16_12h37.22.220,exp1,2023.1.0,59.98883008033509,
,,,,,,,,,,,,,,,,3,9.1,10,10.9,0,0,0.9,0.35,0.55,2.35,10,initial,36.05,328,361,393,0,0,9,9,9,0,0,,,,,,,0,0,0,0,0,38,38,11,,,,,,,,,,,,,,3,0.9439849999907892,3,0.2,0.3,10.81288,return,1.6248150000028545,,,,,,,,,,,,,,,,,p319,23,male,left_right_width,2025-12-16_12h37.22.220,exp1,2023.1.0,59.98883008033509,
,,,,,,,,,,,,,,,,5,8.95,9.475,10,10.525,11.05,0.525,0.125,0.4,2.5,10,match,36.05,323,342,361,379,398,9,9,9,9,9,,,,,,,0,0,0,0,0,39,39,27,,,,,,,,,,,,,,4,1.9931410999997752,4,0.2,0.35,12.61502,return,1.8000924000079976,,,,,,,,,,,,,,,,,p319,23,male,left_right_width,2025-12-16_12h37.22.220,exp1,2023.1.0,59.98883008033509,
,,,,,,,,,,,,,,,,5,8.6,9.3,10,10.7,11.4,0.7,0.1499999999999999,0.55,3.3499999999999996,10,initial,36.05,310,335,361,386,411,9,9,9,9,9,,,,,,,0,0,0,0,0,40,40,40,,,,,,,,,,,,,,5,1.3894431000080658,5,0.2,0.44999999999999996,16.21932,return,2.356042900006287,,,,,,,,,,,,,,,,,p319,23,male,left_right_width,2025-12-16_12h37.22.220,exp1,2023.1.0,59.98883008033509,
,,,,,,,,,,,,,,,,5,8.35,9.175,10,10.825,11.65,0.8250000000000001,0.275,0.55,3.85,10,match,36.05,301,331,361,390,420,9,9,9,9,9,,,,,,,0,0,0,0,0,41,41,18,,,,,,,,,,,,,,5,1.506574200000614,5,0.2,0.39999999999999997,14.41717,return,1.5258251999912318,,,,,,,,,,,,,,,,,p319,23,male,left_right_width,2025-12-16_12h37.22.220,exp1,2023.1.0,59.98883008033509,
,,,,,,,,,,,,,,,,4,9.1,9.7,10.3,10.9,0,0.5999999999999999,0.3499999999999999,0.25,2.05,10,match,36.05,328,350,371,393,0,9,9,9,9,0,,,,,,,0,0,0,0,0,42,42,14,,,,,,,,,,,,,,4,1.3945033000054536,4,0.55,0.30000000000000004,10.81288,return,2.2010614000028,,,,,,,,,,,,,,,,,p319,23,male,left_right_width,2025-12-16_12h37.22.220,exp1,2023.1.0,59.98883008033509,
,,,,,,,,,,,,,,,,3,9.1,10,10.9,0,0,0.9,0.65,0.25,2.05,10,initial,36.05,328,361,393,0,0,9,9,9,0,0,,,,,,,0,0,0,0,0,43,43,13,,,,,,,,,,,,,,3,0.7308678000117652,3,0.4,0.25000000000000006,9.01073,return,1.517743700009305,,,,,,,,,,,,,,,,,p319,23,male,left_right_width,2025-12-16_12h37.22.220,exp1,2023.1.0,59.98883008033509,
,,,,,,,,,,,,,,,,4,9.3,9.766666666666667,10.233333333333333,10.7,0,0.4666666666666667,0.06666666666666665,0.4,1.8,10,match,36.05,335,352,369,386,0,9,9,9,9,0,,,,,,,0,0,0,0,0,44,44,10,,,,,,,,,,,,,,3,0.9572305000037886,3,0.45,0.30000000000000004,10.81288,return,2.0686319999949774,,,,,,,,,,,,,,,,,p319,23,male,left_right_width,2025-12-16_12h37.22.220,exp1,2023.1.0,59.98883008033509,
,,,,,,,,,,,,,,,,3,8.9,10,11.1,0,0,1.1,0.7000000000000001,0.4,2.6000000000000005,10,initial,36.05,321,361,400,0,0,9,9,9,0,0,,,,,,,0,0,0,0,0,45,45,4,,,,,,,,,,,,,,3,0.7154691000032471,3,0.5,0.30000000000000004,10.81288,return,2.3653411000123015,,,,,,,,,,,,,,,,,p319,23,male,left_right_width,2025-12-16_12h37.22.220,exp1,2023.1.0,59.98883008033509,
,,,,,,,,,,,,,,,,3,9.3,10,10.7,0,0,0.7,0.29999999999999993,0.4,1.8,10,initial,36.05,335,361,386,0,0,9,9,9,0,0,,,,,,,0,0,0,0,0,46,46,9,,,,,,,,,,,,,,3,0.6091757000103826,3,0.3,0.3,10.81288,return,1.4798046000069007,,,,,,,,,,,,,,,,,p319,23,male,left_right_width,2025-12-16_12h37.22.220,exp1,2023.1.0,59.98883008033509,
,,,,,,,,,,,,,,,,3,9.3,10,10.7,0,0,0.7,0.1499999999999999,0.55,1.95,10,initial,36.05,335,361,386,0,0,9,9,9,0,0,,,,,,,0,0,0,0,0,47,47,6,,,,,,,,,,,,,,3,0.6780264999979408,3,0.45,0.30000000000000004,10.81288,return,1.7851436999917496,,,,,,,,,,,,,,,,,p319,23,male,left_right_width,2025-12-16_12h37.22.220,exp1,2023.1.0,59.98883008033509,
,,,,,,,,,,,,,,,,5,7.8,8.9,10,11.1,12.2,1.1,0.8500000000000001,0.25,4.65,10,initial,36.05,281,321,361,400,440,9,9,9,9,9,,,,,,,0,0,0,0,0,48,48,36,,,,,,,,,,,,,,4,1.5665918000013335,4,0.25,0.3,10.81288,return,1.8867548999987775,,,,,,,,,,,,,,,,,p319,23,male,left_right_width,2025-12-16_12h37.22.220,exp1,2023.1.0,59.98883008033509,
,,,,,,,,,,,,,,,,5,8.65,9.325,10,10.675,11.35,0.675,0.275,0.4,3.1,10,match,36.05,312,336,361,385,409,9,9,9,9,9,,,,,,,0,0,0,0,0,49,49,33,,,,,,,,,,,,,,4,1.3347070999880088,4,0.2,0.35,12.61502,return,2.3196509999979753,,,,,,,,,,,,,,,,,p319,23,male,left_right_width,2025-12-16_12h37.22.220,exp1,2023.1.0,59.98883008033509,
,,,,,,,,,,,,,,,,5,8.275,9.1375,10,10.8625,11.725,0.8625,0.6125,0.25,3.7,10,match,36.05,298,329,361,392,423,9,9,9,9,9,,,,,,,0,0,0,0,0,50,50,22,,,,,,,,,,,,,,5,1.7246464000054402,5,0.3,0.35,12.61502,return,1.2386187999945832,,,,,,,,,,,,,,,,,p319,23,male,left_right_width,2025-12-16_12h37.22.220,exp1,2023.1.0,59.98883008033509,
,,,,,,,,,,,,,,,,5,8.95,9.475,10,10.525,11.05,0.525,0.275,0.25,2.35,10,match,36.05,323,342,361,379,398,9,9,9,9,9,,,,,,,0,0,0,0,0,51,51,25,,,,,,,,,,,,,,5,0.9185465000045951,5,0.2,0.35,12.61502,return,3.841613500000676,,,,,,,,,,,,,,,,,p319,23,male,left_right_width,2025-12-16_12h37.22.220,exp1,2023.1.0,59.98883008033509,
,,,,,,,,,,,,,,,,,,,,,,,,,,,,,,,,,,,,,,,,,,,,,0,0,0,0,,,,,,,,,,,,,,,,,,,,,,,,,,,,632.1107499999925,632.1107499999925,632.1107499999925,,,,,,,,,,,,p319,23,male,left_right_width,2025-12-16_12h37.22.220,exp1,2023.1.0,59.98883008033509,
,,,,,,,,,,,,,,,,3,7.8,10,12.2,0,0,2.2,1.65,0.55,4.95,10,match,36.05,281,361,440,0,0,9,9,9,0,0,,,,,,,1,0,1,0,0,0,0,35,,,,,,,,,,,,,,3,1.4279886000003899,3,0.4,0.4,14.41717,return,1.098438699991675,,,,,,,,,,,,,,,,,p319,23,male,left_right_width,2025-12-16_12h37.22.220,exp1,2023.1.0,59.98883008033509,
,,,,,,,,,,,,,,,,4,8.35,9.45,10.55,11.65,0,1.1,0.8500000000000001,0.25,3.5500000000000003,10,initial,36.05,301,341,380,420,0,9,9,9,9,0,,,,,,,1,0,1,0,0,1,1,19,,,,,,,,,,,,,,4,2.0270560000062687,4,0.55,0.35000000000000003,12.61502,return,5.193870100003551,,,,,,,,,,,,,,,,,p319,23,male,left_right_width,2025-12-16_12h37.22.220,exp1,2023.1.0,59.98883008033509,
,,,,,,,,,,,,,,,,4,8.35,9.45,10.55,11.65,0,1.1,0.55,0.55,3.8500000000000005,10,initial,36.05,301,341,380,420,0,9,9,9,9,0,,,,,,,1,0,1,0,0,2,2,17,,,,,,,,,,,,,,4,1.9971217999991495,4,0.45,0.4,14.41717,return,1.837129699997604,,,,,,,,,,,,,,,,,p319,23,male,left_right_width,2025-12-16_12h37.22.220,exp1,2023.1.0,59.98883008033509,
,,,,,,,,,,,,,,,,3,8.525,10,11.475,0,0,1.475,1.225,0.25,3.2,10,match,36.05,307,361,414,0,0,9,9,9,0,0,,,,,,,1,0,1,0,0,3,3,45,,,,,,,,,,,,,,3,1.7331979000009596,3,0.25,0.3,10.81288,return,2.096160399989458,,,,,,,,,,,,,,,,,p319,23,male,left_right_width,2025-12-16_12h37.22.220,exp1,2023.1.0,59.98883008033509,
,,,,,,,,,,,,,,,,3,8.9,10,11.1,0,0,1.1,0.55,0.55,2.75,10,initial,36.05,321,361,400,0,0,9,9,9,0,0,,,,,,,1,0,1,0,0,4,4,0,,,,,,,,,,,,,,3,0.9972929999930784,3,0.35,0.3,10.81288,return,1.9953428999870084,,,,,,,,,,,,,,,,,p319,23,male,left_right_width,2025-12-16_12h37.22.220,exp1,2023.1.0,59.98883008033509,
,,,,,,,,,,,,,,,,5,8.2,9.1,10,10.9,11.8,0.9,0.65,0.25,3.85,10,initial,36.05,296,328,361,393,425,9,9,9,9,9,,,,,,,1,0,1,0,0,5,5,48,,,,,,,,,,,,,,4,1.5254336999933003,4,0.5,0.30000000000000004,10.81288,return,2.3281755999923917,,,,,,,,,,,,,,,,,p319,23,male,left_right_width,2025-12-16_12h37.22.220,exp1,2023.1.0,59.98883008033509,
,,,,,,,,,,,,,,,,5,8.95,9.475,10,10.525,11.05,0.525,0.125,0.4,2.5,10,match,36.05,323,342,361,379,398,9,9,9,9,9,,,,,,,1,0,1,0,0,6,6,27,,,,,,,,,,,,,,4,2.171492199995555,4,0.3,0.35,12.61502,return,1.0119500000000698,,,,,,,,,,,,,,,,,p319,23,male,left_right_width,2025-12-16_12h37.22.220,exp1,2023.1.0,59.98883008033509,
,,,,,,,,,,,,,,,,3,8.6,10,11.4,0,0,1.4,0.85,0.55,3.35,10,match,36.05,310,361,411,0,0,9,9,9,0,0,,,,,,,1,0,1,0,0,7,7,41,,,,,,,,,,,,,,4,0.6286095999967074,4,0.5,0.30000000000000004,10.81288,return,2.185733000005712,,,,,,,,,,,,,,,,,p319,23,male,left_right_width,2025-12-16_12h37.22.220,exp1,2023.1.0,59.98883008033509,
,,,,,,,,,,,,,,,,4,9.3,9.766666666666667,10.233333333333333,10.7,0,0.4666666666666667,0.06666666666666665,0.4,1.8,10,match,36.05,335,352,369,386,0,9,9,9,9,0,,,,,,,1,0,1,0,0,8,8,10,,,,,,,,,,,,,,4,0.7517629000067245,4,0.45,0.35000000000000003,12.61502,return,1.9038491999963298,,,,,,,,,,,,,,,,,p319,23,male,left_right_width,2025-12-16_12h37.22.220,exp1,2023.1.0,59.98883008033509,
,,,,,,,,,,,,,,,,3,9.3,10,10.7,0,0,0.7,0.1499999999999999,0.55,1.95,10,initial,36.05,335,361,386,0,0,9,9,9,0,0,,,,,,,1,0,1,0,0,9,9,6,,,,,,,,,,,,,,4,0.7492065999977058,4,0.25,0.35,12.61502,return,1.8373602000065148,,,,,,,,,,,,,,,,,p319,23,male,left_right_width,2025-12-16_12h37.22.220,exp1,2023.1.0,59.98883008033509,
,,,,,,,,,,,,,,,,4,9.1,9.7,10.3,10.9,0,0.6,0.04999999999999997,0.55,2.35,10,match,36.05,328,350,371,393,0,9,9,9,9,0,,,,,,,1,0,1,0,0,10,10,12,,,,,,,,,,,,,,4,0.626082500006305,4,0.2,0.49999999999999994,18.02146,return,2.791537699988112,,,,,,,,,,,,,,,,,p319,23,male,left_right_width,2025-12-16_12h37.22.220,exp1,2023.1.0,59.98883008033509,
,,,,,,,,,,,,,,,,3,8.6,10,11.4,0,0,1.4,1.15,0.25,3.05,10,match,36.05,310,361,411,0,0,9,9,9,0,0,,,,,,,1,0,1,0,0,11,11,43,,,,,,,,,,,,,,4,0.8110964999941643,4,0.4,0.25000000000000006,9.01073,return,1.9932582000037655,,,,,,,,,,,,,,,,,p319,23,male,left_right_width,2025-12-16_12h37.22.220,exp1,2023.1.0,59.98883008033509,
,,,,,,,,,,,,,,,,4,8.9,9.633333333333333,10.366666666666667,11.1,0,0.7333333333333334,0.4833333333333334,0.25,2.45,10,match,36.05,321,347,374,400,0,9,9,9,9,0,,,,,,,1,0,1,0,0,12,12,3,,,,,,,,,,,,,,4,0.9732045999990078,4,0.4,0.35000000000000003,12.61502,return,1.9414211999974214,,,,,,,,,,,,,,,,,p319,23,male,left_right_width,2025-12-16_12h37.22.220,exp1,2023.1.0,59.98883008033509,
,,,,,,,,,,,,,,,,3,9.1,10,10.9,0,0,0.9,0.5,0.4,2.2,10,initial,36.05,328,361,393,0,0,9,9,9,0,0,,,,,,,1,0,1,0,0,13,13,15,,,,,,,,,,,,,,4,0.8302154999983031,4,0.45,0.35000000000000003,12.61502,return,2.012017199987895,,,,,,,,,,,,,,,,,p319,23,male,left_right_width,2025-12-16_12h37.22.220,exp1,2023.1.0,59.98883008033509,
,,,,,,,,,,,,,,,,3,7.800000000000001,10,12.2,0,0,2.1999999999999997,1.7999999999999998,0.4,4.8,10,match,36.05,281,361,440,0,0,9,9,9,0,0,,,,,,,1,0,1,0,0,14,14,39,,,,,,,,,,,,,,4,0.8412970999925165,4,0.55,0.35000000000000003,12.61502,return,1.7987511000101222,,,,,,,,,,,,,,,,,p319,23,male,left_right_width,2025-12-16_12h37.22.220,exp1,2023.1.0,59.98883008033509,
,,,,,,,,,,,,,,,,5,7.8,8.9,10,11.1,12.2,1.1,0.8500000000000001,0.25,4.65,10,initial,36.05,281,321,361,400,440,9,9,9,9,9,,,,,,,1,0,1,0,0,15,15,36,,,,,,,,,,,,,,4,1.6686006999952951,4,0.55,0.35000000000000003,12.61502,return,1.9056472000083886,,,,,,,,,,,,,,,,,p319,23,male,left_right_width,2025-12-16_12h37.22.220,exp1,2023.1.0,59.98883008033509,
,,,,,,,,,,,,,,,,4,8.65,9.55,10.45,11.35,0,0.9,0.5,0.4,3.1,10,initial,36.05,312,344,377,409,0,9,9,9,9,0,,,,,,,1,0,1,0,0,16,16,32,,,,,,,,,,,,,,4,0.748424299992621,4,0.35,0.3,10.81288,return,1.8371062999940477,,,,,,,,,,,,,,,,,p319,23,male,left_right_width,2025-12-16_12h37.22.220,exp1,2023.1.0,59.98883008033509,
,,,,,,,,,,,,,,,,5,8.6,9.3,10,10.7,11.4,0.7,0.1499999999999999,0.55,3.3499999999999996,10,initial,36.05,310,335,361,386,411,9,9,9,9,9,,,,,,,1,0,1,0,0,17,17,40,,,,,,,,,,,,,,4,1.1358668000029866,4,0.3,0.39999999999999997,14.41717,return,1.7940462999977171,,,,,,,,,,,,,,,,,p319,23,male,left_right_width,2025-12-16_12h37.22.220,exp1,2023.1.0,59.98883008033509,
,,,,,,,,,,,,,,,,4,8.65,9.55,10.45,11.35,0,0.9,0.35,0.55,3.25,10,initial,36.05,312,344,377,409,0,9,9,9,9,0,,,,,,,1,0,1,0,0,18,18,28,,,,,,,,,,,,,,4,1.0726668999996036,4,0.25,0.39999999999999997,14.41717,return,1.6052436000027228,,,,,,,,,,,,,,,,,p319,23,male,left_right_width,2025-12-16_12h37.22.220,exp1,2023.1.0,59.98883008033509,
,,,,,,,,,,,,,,,,4,9.1,9.7,10.3,10.9,0,0.5999999999999999,0.3499999999999999,0.25,2.05,10,match,36.05,328,350,371,393,0,9,9,9,9,0,,,,,,,1,0,1,0,0,19,19,14,,,,,,,,,,,,,,3,1.0224373999953968,3,0.25,0.35,12.61502,return,2.0362798999994993,,,,,,,,,,,,,,,,,p319,23,male,left_right_width,2025-12-16_12h37.22.220,exp1,2023.1.0,59.98883008033509,
,,,,,,,,,,,,,,,,5,8.2,9.1,10,10.9,11.8,0.9,0.35,0.55,4.15,10,initial,36.05,296,328,361,393,425,9,9,9,9,9,,,,,,,1,0,1,0,0,20,20,46,,,,,,,,,,,,,,5,1.3978585000004387,5,0.35,0.35,12.61502,return,2.061389800001052,,,,,,,,,,,,,,,,,p319,23,male,left_right_width,2025-12-16_12h37.22.220,exp1,2023.1.0,59.98883008033509,
,,,,,,,,,,,,,,,,3,8.2,10,11.8,0,0,1.7999999999999998,1.4,0.4,4,10,match,36.05,296,361,425,0,0,9,9,9,0,0,,,,,,,1,0,1,0,0,21,21,51,,,,,,,,,,,,,,3,1.7319086000061361,3,0.2,0.35,12.61502,return,2.0132497000013245,,,,,,,,,,,,,,,,,p319,23,male,left_right_width,2025-12-16_12h37.22.220,exp1,2023.1.0,59.98883008033509,
,,,,,,,,,,,,,,,,5,8.65,9.325,10,10.675,11.35,0.675,0.125,0.55,3.25,10,match,36.05,312,336,361,385,409,9,9,9,9,9,,,,,,,1,0,1,0,0,22,22,29,,,,,,,,,,,,,,5,1.5349951999960467,5,0.3,0.39999999999999997,14.41717,return,1.8717680999980075,,,,,,,,,,,,,,,,,p319,23,male,left_right_width,2025-12-16_12h37.22.220,exp1,2023.1.0,59.98883008033509,
,,,,,,,,,,,,,,,,5,7.8,8.9,10,11.1,12.2,1.1,0.55,0.55,4.95,10,initial,36.05,281,321,361,400,440,9,9,9,9,9,,,,,,,1,0,1,0,0,23,23,34,,,,,,,,,,,,,,5,1.741412000003038,5,0.35,0.44999999999999996,16.21932,return,1.367420000009588,,,,,,,,,,,,,,,,,p319,23,male,left_right_width,2025-12-16_12h37.22.220,exp1,2023.1.0,59.98883008033509,
,,,,,,,,,,,,,,,,3,8.2,10,11.8,0,0,1.8,1.25,0.55,4.15,10,match,36.05,296,361,425,0,0,9,9,9,0,0,,,,,,,1,0,1,0,0,24,24,47,,,,,,,,,,,,,,3,1.8051291000010679,3,0.25,0.35,12.61502,return,3.4126205000065966,,,,,,,,,,,,,,,,,p319,23,male,left_right_width,2025-12-16_12h37.22.220,exp1,2023.1.0,59.98883008033509,
,,,,,,,,,,,,,,,,4,9.3,9.766666666666667,10.233333333333333,10.7,0,0.4666666666666667,0.21666666666666665,0.25,1.65,10,match,36.05,335,352,369,386,0,9,9,9,9,0,,,,,,,1,0,1,0,0,25,25,8,,,,,,,,,,,,,,3,1.3459593000006862,3,0.35,0.35,12.61502,return,1.4523085999971954,,,,,,,,,,,,,,,,,p319,23,male,left_right_width,2025-12-16_12h37.22.220,exp1,2023.1.0,59.98883008033509,
,,,,,,,,,,,,,,,,5,7.8,8.9,10,11.1,12.2,1.1,0.7000000000000001,0.4,4.800000000000001,10,initial,36.05,281,321,361,400,440,9,9,9,9,9,,,,,,,1,0,1,0,0,26,26,38,,,,,,,,,,,,,,5,1.765037699995446,5,0.4,0.4,14.41717,return,1.3099134000076447,,,,,,,,,,,,,,,,,p319,23,male,left_right_width,2025-12-16_12h37.22.220,exp1,2023.1.0,59.98883008033509,
,,,,,,,,,,,,,,,,4,8.9,9.633333333333333,10.366666666666667,11.1,0,0.7333333333333333,0.18333333333333326,0.55,2.75,10,match,36.05,321,347,374,400,0,9,9,9,9,0,,,,,,,1,0,1,0,0,27,27,1,,,,,,,,,,,,,,5,1.9212019999977201,5,0.35,0.39999999999999997,14.41717,return,1.3329053999914322,,,,,,,,,,,,,,,,,p319,23,male,left_right_width,2025-12-16_12h37.22.220,exp1,2023.1.0,59.98883008033509,
,,,,,,,,,,,,,,,,3,9.1,10,10.9,0,0,0.9,0.65,0.25,2.05,10,initial,36.05,328,361,393,0,0,9,9,9,0,0,,,,,,,1,0,1,0,0,28,28,13,,,,,,,,,,,,,,3,1.61891900000046,3,0.4,0.35000000000000003,12.61502,return,1.4727148999954807,,,,,,,,,,,,,,,,,p319,23,male,left_right_width,2025-12-16_12h37.22.220,exp1,2023.1.0,59.98883008033509,
,,,,,,,,,,,,,,,,5,8.65,9.325,10,10.675,11.35,0.675,0.42500000000000004,0.25,2.95,10,match,36.05,312,336,361,385,409,9,9,9,9,9,,,,,,,1,0,1,0,0,29,29,31,,,,,,,,,,,,,,6,2.795208499999717,6,0.35,0.3,10.81288,return,1.3076553999999305,,,,,,,,,,,,,,,,,p319,23,male,left_right_width,2025-12-16_12h37.22.220,exp1,2023.1.0,59.98883008033509,
,,,,,,,,,,,,,,,,5,8.95,9.475,10,10.525,11.05,0.525,0.275,0.25,2.35,10,match,36.05,323,342,361,379,398,9,9,9,9,9,,,,,,,1,0,1,0,0,30,30,25,,,,,,,,,,,,,,4,1.8127155999973183,4,0.25,0.3,10.81288,return,1.418008100008592,,,,,,,,,,,,,,,,,p319,23,male,left_right_width,2025-12-16_12h37.22.220,exp1,2023.1.0,59.98883008033509,
,,,,,,,,,,,,,,,,3,9.1,10,10.9,0,0,0.9,0.35,0.55,2.35,10,initial,36.05,328,361,393,0,0,9,9,9,0,0,,,,,,,1,0,1,0,0,31,31,11,,,,,,,,,,,,,,3,1.370646499999566,3,0.4,0.30000000000000004,10.81288,return,1.8114548000012292,,,,,,,,,,,,,,,,,p319,23,male,left_right_width,2025-12-16_12h37.22.220,exp1,2023.1.0,59.98883008033509,
,,,,,,,,,,,,,,,,4,8.825,9.608333333333333,10.391666666666667,11.175,0,0.7833333333333333,0.5333333333333333,0.25,2.6,10,match,36.05,318,346,375,403,0,9,9,9,9,0,,,,,,,1,0,1,0,0,32,32,5,,,,,,,,,,,,,,4,2.1362082999985432,4,0.2,0.3,10.81288,return,3.5853105999995023,,,,,,,,,,,,,,,,,p319,23,male,left_right_width,2025-12-16_12h37.22.220,exp1,2023.1.0,59.98883008033509,
,,,,,,,,,,,,,,,,4,9.1,9.7,10.3,10.9,0,0.6000000000000001,0.20000000000000004,0.4,2.2,10,match,36.05,328,350,371,393,0,9,9,9,9,0,,,,,,,1,0,1,0,0,33,33,16,,,,,,,,,,,,,,4,2.724010799996904,4,0.3,0.25,9.01073,return,1.3179584000026807,,,,,,,,,,,,,,,,,p319,23,male,left_right_width,2025-12-16_12h37.22.220,exp1,2023.1.0,59.98883008033509,
,,,,,,,,,,,,,,,,5,8.6,9.3,10,10.7,11.4,0.7,0.44999999999999996,0.25,3.05,10,initial,36.05,310,335,361,386,411,9,9,9,9,9,,,,,,,1,0,1,0,0,34,34,42,,,,,,,,,,,,,,5,1.817794699993101,5,0.45,0.25000000000000006,9.01073,return,2.0801202000002377,,,,,,,,,,,,,,,,,p319,23,male,left_right_width,2025-12-16_12h37.22.220,exp1,2023.1.0,59.98883008033509,
,,,,,,,,,,,,,,,,3,8.9,10,11.1,0,0,1.1,0.7000000000000001,0.4,2.6000000000000005,10,initial,36.05,321,361,400,0,0,9,9,9,0,0,,,,,,,1,0,1,0,0,35,35,4,,,,,,,,,,,,,,4,1.5839991999964695,4,0.4,0.25000000000000006,9.01073,return,4.238977300003171,,,,,,,,,,,,,,,,,p319,23,male,left_right_width,2025-12-16_12h37.22.220,exp1,2023.1.0,59.98883008033509,
,,,,,,,,,,,,,,,,4,8.95,9.65,10.35,11.05,0,0.7,0.1499999999999999,0.55,2.65,10,initial,36.05,323,348,373,398,0,9,9,9,9,0,,,,,,,1,0,1,0,0,36,36,23,,,,,,,,,,,,,,4,1.8044287000084296,4,0.35,0.35,12.61502,return,1.0266884000011487,,,,,,,,,,,,,,,,,p319,23,male,left_right_width,2025-12-16_12h37.22.220,exp1,2023.1.0,59.98883008033509,
,,,,,,,,,,,,,,,,3,8.9,10,11.1,0,0,1.1,0.8500000000000001,0.25,2.45,10,initial,36.05,321,361,400,0,0,9,9,9,0,0,,,,,,,1,0,1,0,0,37,37,2,,,,,,,,,,,,,,3,1.4251007999991998,3,0.5,0.25000000000000006,9.01073,return,1.9111848999891663,,,,,,,,,,,,,,,,,p319,23,male,left_right_width,2025-12-16_12h37.22.220,exp1,2023.1.0,59.98883008033509,
,,,,,,,,,,,,,,,,3,9.3,10,10.7,0,0,0.7,0.29999999999999993,0.4,1.8,10,initial,36.05,335,361,386,0,0,9,9,9,0,0,,,,,,,1,0,1,0,0,38,38,9,,,,,,,,,,,,,,3,0.9638983999902848,3,0.25,0.3,10.81288,return,2.092547599997488,,,,,,,,,,,,,,,,,p319,23,male,left_right_width,2025-12-16_12h37.22.220,exp1,2023.1.0,59.98883008033509,
,,,,,,,,,,,,,,,,4,8.95,9.65,10.35,11.05,0,0.7,0.44999999999999996,0.25,2.3499999999999996,10,initial,36.05,323,348,373,398,0,9,9,9,9,0,,,,,,,1,0,1,0,0,39,39,24,,,,,,,,,,,,,,4,1.946043899995857,4,0.5,0.30000000000000004,10.81288,return,1.914076599990949,,,,,,,,,,,,,,,,,p319,23,male,left_right_width,2025-12-16_12h37.22.220,exp1,2023.1.0,59.98883008033509,
,,,,,,,,,,,,,,,,5,8.65,9.325,10,10.675,11.35,0.675,0.275,0.4,3.1,10,match,36.05,312,336,361,385,409,9,9,9,9,9,,,,,,,1,0,1,0,0,40,40,33,,,,,,,,,,,,,,5,1.8087068000022555,5,0.4,0.30000000000000004,10.81288,return,2.2327529000031063,,,,,,,,,,,,,,,,,p319,23,male,left_right_width,2025-12-16_12h37.22.220,exp1,2023.1.0,59.98883008033509,
,,,,,,,,,,,,,,,,5,8.275,9.1375,10,10.8625,11.725,0.8625,0.6125,0.25,3.7,10,match,36.05,298,329,361,392,423,9,9,9,9,9,,,,,,,1,0,1,0,0,41,41,22,,,,,,,,,,,,,,5,1.6445681000041077,5,0.4,0.30000000000000004,10.81288,return,1.785159899998689,,,,,,,,,,,,,,,,,p319,23,male,left_right_width,2025-12-16_12h37.22.220,exp1,2023.1.0,59.98883008033509,
,,,,,,,,,,,,,,,,3,8.2,10,11.8,0,0,1.8,1.55,0.25,3.85,10,match,36.05,296,361,425,0,0,9,9,9,0,0,,,,,,,1,0,1,0,0,42,42,49,,,,,,,,,,,,,,4,1.7325712000019848,4,0.55,0.30000000000000004,10.81288,return,2.22244879999198,,,,,,,,,,,,,,,,,p319,23,male,left_right_width,2025-12-16_12h37.22.220,exp1,2023.1.0,59.98883008033509,
,,,,,,,,,,,,,,,,5,8.35,9.175,10,10.825,11.65,0.825,0.575,0.25,3.55,10,match,36.05,301,331,361,390,420,9,9,9,9,9,,,,,,,1,0,1,0,0,43,43,20,,,,,,,,,,,,,,5,1.581960199997411,5,0.55,0.30000000000000004,10.81288,return,1.645995099999709,,,,,,,,,,,,,,,,,p319,23,male,left_right_width,2025-12-16_12h37.22.220,exp1,2023.1.0,59.98883008033509,
,,,,,,,,,,,,,,,,4,8.95,9.65,10.35,11.05,0,0.7,0.29999999999999993,0.4,2.5,10,initial,36.05,323,348,373,398,0,9,9,9,9,0,,,,,,,1,0,1,0,0,44,44,26,,,,,,,,,,,,,,5,1.5239335999940522,5,0.35,0.3,10.81288,return,1.4301265999965835,,,,,,,,,,,,,,,,,p319,23,male,left_right_width,2025-12-16_12h37.22.220,exp1,2023.1.0,59.98883008033509,
,,,,,,,,,,,,,,,,5,8.2,9.1,10,10.9,11.8,0.9,0.5,0.4,4,10,initial,36.05,296,328,361,393,425,9,9,9,9,9,,,,,,,1,0,1,0,0,45,45,50,,,,,,,,,,,,,,5,1.4608048000081908,5,0.3,0.3,10.81288,return,1.0652345999988029,,,,,,,,,,,,,,,,,p319,23,male,left_right_width,2025-12-16_12h37.22.220,exp1,2023.1.0,59.98883008033509,
,,,,,,,,,,,,,,,,4,8.65,9.55,10.45,11.35,0,0.9,0.65,0.25,2.95,10,initial,36.05,312,344,377,409,0,9,9,9,9,0,,,,,,,1,0,1,0,0,46,46,30,,,,,,,,,,,,,,4,2.8324539000022924,4,0.45,0.30000000000000004,10.81288,return,2.237600199994631,,,,,,,,,,,,,,,,,p319,23,male,left_right_width,2025-12-16_12h37.22.220,exp1,2023.1.0,59.98883008033509,
,,,,,,,,,,,,,,,,4,8.35,9.45,10.55,11.65,0,1.1,0.7000000000000001,0.4,3.7,10,initial,36.05,301,341,380,420,0,9,9,9,9,0,,,,,,,1,0,1,0,0,47,47,21,,,,,,,,,,,,,,5,1.5430199000111315,5,0.35,0.35,12.61502,return,0.7438508000050206,,,,,,,,,,,,,,,,,p319,23,male,left_right_width,2025-12-16_12h37.22.220,exp1,2023.1.0,59.98883008033509,
,,,,,,,,,,,,,,,,3,9.3,10,10.7,0,0,0.7,0.44999999999999996,0.25,1.65,10,initial,36.05,335,361,386,0,0,9,9,9,0,0,,,,,,,1,0,1,0,0,48,48,7,,,,,,,,,,,,,,2,1.8691736000037054,2,0.5,0.35000000000000003,12.61502,return,2.465376499996637,,,,,,,,,,,,,,,,,p319,23,male,left_right_width,2025-12-16_12h37.22.220,exp1,2023.1.0,59.98883008033509,
,,,,,,,,,,,,,,,,3,7.8,10,12.2,0,0,2.2,1.9500000000000002,0.25,4.65,10,match,36.05,281,361,440,0,0,9,9,9,0,0,,,,,,,1,0,1,0,0,49,49,37,,,,,,,,,,,,,,3,1.6658383999892976,3,0.25,0.3,10.81288,return,1.294041200002539,,,,,,,,,,,,,,,,,p319,23,male,left_right_width,2025-12-16_12h37.22.220,exp1,2023.1.0,59.98883008033509,
,,,,,,,,,,,,,,,,5,8.6,9.3,10,10.7,11.4,0.7,0.29999999999999993,0.4,3.1999999999999997,10,initial,36.05,310,335,361,386,411,9,9,9,9,9,,,,,,,1,0,1,0,0,50,50,44,,,,,,,,,,,,,,5,1.4759754999977304,5,0.3,0.3,10.81288,return,0.8876897000009194,,,,,,,,,,,,,,,,,p319,23,male,left_right_width,2025-12-16_12h37.22.220,exp1,2023.1.0,59.98883008033509,
,,,,,,,,,,,,,,,,5,8.35,9.175,10,10.825,11.65,0.8250000000000001,0.275,0.55,3.85,10,match,36.05,301,331,361,390,420,9,9,9,9,9,,,,,,,1,0,1,0,0,51,51,18,,,,,,,,,,,,,,5,1.1911018999962835,5,0.35,0.39999999999999997,14.41717,return,1.686501699994551,,,,,,,,,,,,,,,,,p319,23,male,left_right_width,2025-12-16_12h37.22.220,exp1,2023.1.0,59.98883008033509,
,,,,,,,,,,,,,,,,,,,,,,,,,,,,,,,,,,,,,,,,,,,,,1,0,1,0,,,,,,,,,,,,,,,,,,,,,,,,,,,,909.8276230999909,909.8276230999909,909.8276230999909,,,,,,,,,,,,p319,23,male,left_right_width,2025-12-16_12h37.22.220,exp1,2023.1.0,59.98883008033509,
,,,,,,,,,,,,,,,,5,8.6,9.3,10,10.7,11.4,0.7,0.1499999999999999,0.55,3.3499999999999996,10,initial,36.05,310,335,361,386,411,9,9,9,9,9,,,,,,,2,0,2,0,0,0,0,40,,,,,,,,,,,,,,5,1.796463999999105,5,0.25,0.35,12.61502,return,2.7152472000016132,,,,,,,,,,,,,,,,,p319,23,male,left_right_width,2025-12-16_12h37.22.220,exp1,2023.1.0,59.98883008033509,
,,,,,,,,,,,,,,,,5,8.6,9.3,10,10.7,11.4,0.7,0.29999999999999993,0.4,3.1999999999999997,10,initial,36.05,310,335,361,386,411,9,9,9,9,9,,,,,,,2,0,2,0,0,1,1,44,,,,,,,,,,,,,,4,2.312688400008483,4,0.55,0.35000000000000003,12.61502,return,3.0033413999917684,,,,,,,,,,,,,,,,,p319,23,male,left_right_width,2025-12-16_12h37.22.220,exp1,2023.1.0,59.98883008033509,
,,,,,,,,,,,,,,,,4,8.95,9.65,10.35,11.05,0,0.7,0.29999999999999993,0.4,2.5,10,initial,36.05,323,348,373,398,0,9,9,9,9,0,,,,,,,2,0,2,0,0,2,2,26,,,,,,,,,,,,,,3,1.55131419999816,3,0.45,0.4,14.41717,return,2.2567601000046125,,,,,,,,,,,,,,,,,p319,23,male,left_right_width,2025-12-16_12h37.22.220,exp1,2023.1.0,59.98883008033509,
,,,,,,,,,,,,,,,,4,8.9,9.633333333333333,10.366666666666667,11.1,0,0.7333333333333333,0.18333333333333326,0.55,2.75,10,match,36.05,321,347,374,400,0,9,9,9,9,0,,,,,,,2,0,2,0,0,3,3,1,,,,,,,,,,,,,,4,1.3632345999940298,4,0.3,0.49999999999999994,18.02146,return,1.7405017999990378,,,,,,,,,,,,,,,,,p319,23,male,left_right_width,2025-12-16_12h37.22.220,exp1,2023.1.0,59.98883008033509,
,,,,,,,,,,,,,,,,5,8.65,9.325,10,10.675,11.35,0.675,0.275,0.4,3.1,10,match,36.05,312,336,361,385,409,9,9,9,9,9,,,,,,,2,0,2,0,0,4,4,33,,,,,,,,,,,,,,5,1.1753985000104876,5,0.5,0.4,14.41717,return,1.254794699998456,,,,,,,,,,,,,,,,,p319,23,male,left_right_width,2025-12-16_12h37.22.220,exp1,2023.1.0,59.98883008033509,
,,,,,,,,,,,,,,,,3,8.2,10,11.8,0,0,1.8,1.55,0.25,3.85,10,match,36.05,296,361,425,0,0,9,9,9,0,0,,,,,,,2,0,2,0,0,5,5,49,,,,,,,,,,,,,,3,1.4780199000088032,3,0.4,0.20000000000000007,7.20859,return,2.8578077999991365,,,,,,,,,,,,,,,,,p319,23,male,left_right_width,2025-12-16_12h37.22.220,exp1,2023.1.0,59.98883008033509,
,,,,,,,,,,,,,,,,5,8.2,9.1,10,10.9,11.8,0.9,0.35,0.55,4.15,10,initial,36.05,296,328,361,393,425,9,9,9,9,9,,,,,,,2,0,2,0,0,6,6,46,,,,,,,,,,,,,,5,1.5686386000015773,5,0.4,0.4,14.41717,return,0.9132094999949913,,,,,,,,,,,,,,,,,p319,23,male,left_right_width,2025-12-16_12h37.22.220,exp1,2023.1.0,59.98883008033509,
,,,,,,,,,,,,,,,,5,8.65,9.325,10,10.675,11.35,0.675,0.42500000000000004,0.25,2.95,10,match,36.05,312,336,361,385,409,9,9,9,9,9,,,,,,,2,0,2,0,0,7,7,31,,,,,,,,,,,,,,5,1.518258500000229,5,0.2,0.25,9.01073,return,1.375892699987162,,,,,,,,,,,,,,,,,p319,23,male,left_right_width,2025-12-16_12h37.22.220,exp1,2023.1.0,59.98883008033509,
,,,,,,,,,,,,,,,,3,8.525,10,11.475,0,0,1.475,1.225,0.25,3.2,10,match,36.05,307,361,414,0,0,9,9,9,0,0,,,,,,,2,0,2,0,0,8,8,45,,,,,,,,,,,,,,3,1.809492999993381,3,0.2,0.25,9.01073,return,1.7518681000074139,,,,,,,,,,,,,,,,,p319,23,male,left_right_width,2025-12-16_12h37.22.220,exp1,2023.1.0,59.98883008033509,
,,,,,,,,,,,,,,,,3,9.1,10,10.9,0,0,0.9,0.35,0.55,2.35,10,initial,36.05,328,361,393,0,0,9,9,9,0,0,,,,,,,2,0,2,0,0,9,9,11,,,,,,,,,,,,,,3,0.7711845000012545,3,0.4,0.45,16.21932,return,1.8590435000078287,,,,,,,,,,,,,,,,,p319,23,male,left_right_width,2025-12-16_12h37.22.220,exp1,2023.1.0,59.98883008033509,
,,,,,,,,,,,,,,,,4,8.65,9.55,10.45,11.35,0,0.9,0.5,0.4,3.1,10,initial,36.05,312,344,377,409,0,9,9,9,9,0,,,,,,,2,0,2,0,0,10,10,32,,,,,,,,,,,,,,4,1.3922621000092477,4,0.45,0.30000000000000004,10.81288,return,1.543305600003805,,,,,,,,,,,,,,,,,p319,23,male,left_right_width,2025-12-16_12h37.22.220,exp1,2023.1.0,59.98883008033509,
,,,,,,,,,,,,,,,,3,7.8,10,12.2,0,0,2.2,1.9500000000000002,0.25,4.65,10,match,36.05,281,361,440,0,0,9,9,9,0,0,,,,,,,2,0,2,0,0,11,11,37,,,,,,,,,,,,,,3,2.8173817999922903,3,0.4,0.30000000000000004,10.81288,return,2.4488300000084564,,,,,,,,,,,,,,,,,p319,23,male,left_right_width,2025-12-16_12h37.22.220,exp1,2023.1.0,59.98883008033509,
,,,,,,,,,,,,,,,,3,8.6,10,11.4,0,0,1.4,1.15,0.25,3.05,10,match,36.05,310,361,411,0,0,9,9,9,0,0,,,,,,,2,0,2,0,0,12,12,43,,,,,,,,,,,,,,3,0.8065233999950578,3,0.2,0.25,9.01073,return,1.973897699994268,,,,,,,,,,,,,,,,,p319,23,male,left_right_width,2025-12-16_12h37.22.220,exp1,2023.1.0,59.98883008033509,
,,,,,,,,,,,,,,,,4,9.1,9.7,10.3,10.9,0,0.5999999999999999,0.3499999999999999,0.25,2.05,10,match,36.05,328,350,371,393,0,9,9,9,9,0,,,,,,,2,0,2,0,0,13,13,14,,,,,,,,,,,,,,3,1.2719811999995727,3,0.4,0.25000000000000006,9.01073,return,3.5393719999992754,,,,,,,,,,,,,,,,,p319,23,male,left_right_width,2025-12-16_12h37.22.220,exp1,2023.1.0,59.98883008033509,
,,,,,,,,,,,,,,,,5,8.2,9.1,10,10.9,11.8,0.9,0.5,0.4,4,10,initial,36.05,296,328,361,393,425,9,9,9,9,9,,,,,,,2,0,2,0,0,14,14,50,,,,,,,,,,,,,,5,2.0619489999953657,5,0.35,0.3,10.81288,return,2.217581400007475,,,,,,,,,,,,,,,,,p319,23,male,left_right_width,2025-12-16_12h37.22.220,exp1,2023.1.0,59.98883008033509,
,,,,,,,,,,,,,,,,3,9.3,10,10.7,0,0,0.7,0.29999999999999993,0.4,1.8,10,initial,36.05,335,361,386,0,0,9,9,9,0,0,,,,,,,2,0,2,0,0,15,15,9,,,,,,,,,,,,,,3,1.202943199998117,3,0.25,0.35,12.61502,return,2.689390600004117,,,,,,,,,,,,,,,,,p319,23,male,left_right_width,2025-12-16_12h37.22.220,exp1,2023.1.0,59.98883008033509,
,,,,,,,,,,,,,,,,5,7.8,8.9,10,11.1,12.2,1.1,0.8500000000000001,0.25,4.65,10,initial,36.05,281,321,361,400,440,9,9,9,9,9,,,,,,,2,0,2,0,0,16,16,36,,,,,,,,,,,,,,5,1.427645699994173,5,0.3,0.35,12.61502,return,1.5612745999969775,,,,,,,,,,,,,,,,,p319,23,male,left_right_width,2025-12-16_12h37.22.220,exp1,2023.1.0,59.98883008033509,
,,,,,,,,,,,,,,,,3,9.1,10,10.9,0,0,0.9,0.65,0.25,2.05,10,initial,36.05,328,361,393,0,0,9,9,9,0,0,,,,,,,2,0,2,0,0,17,17,13,,,,,,,,,,,,,,3,1.1553396999952383,3,0.35,0.25,9.01073,return,1.9879808999976376,,,,,,,,,,,,,,,,,p319,23,male,left_right_width,2025-12-16_12h37.22.220,exp1,2023.1.0,59.98883008033509,
,,,,,,,,,,,,,,,,4,8.35,9.45,10.55,11.65,0,1.1,0.7000000000000001,0.4,3.7,10,initial,36.05,301,341,380,420,0,9,9,9,9,0,,,,,,,2,0,2,0,0,18,18,21,,,,,,,,,,,,,,5,1.3993792999972356,5,0.55,0.30000000000000004,10.81288,return,3.2306796000048053,,,,,,,,,,,,,,,,,p319,23,male,left_right_width,2025-12-16_12h37.22.220,exp1,2023.1.0,59.98883008033509,
,,,,,,,,,,,,,,,,5,8.95,9.475,10,10.525,11.05,0.525,0.125,0.4,2.5,10,match,36.05,323,342,361,379,398,9,9,9,9,9,,,,,,,2,0,2,0,0,19,19,27,,,,,,,,,,,,,,5,1.5085412000044016,5,0.55,0.35000000000000003,12.61502,return,2.0563117999990936,,,,,,,,,,,,,,,,,p319,23,male,left_right_width,2025-12-16_12h37.22.220,exp1,2023.1.0,59.98883008033509,
,,,,,,,,,,,,,,,,5,8.35,9.175,10,10.825,11.65,0.825,0.575,0.25,3.55,10,match,36.05,301,331,361,390,420,9,9,9,9,9,,,,,,,2,0,2,0,0,20,20,20,,,,,,,,,,,,,,5,1.5022338999988278,5,0.55,0.30000000000000004,10.81288,return,2.2254631999967387,,,,,,,,,,,,,,,,,p319,23,male,left_right_width,2025-12-16_12h37.22.220,exp1,2023.1.0,59.98883008033509,
,,,,,,,,,,,,,,,,4,8.95,9.65,10.35,11.05,0,0.7,0.1499999999999999,0.55,2.65,10,initial,36.05,323,348,373,398,0,9,9,9,9,0,,,,,,,2,0,2,0,0,21,21,23,,,,,,,,,,,,,,4,1.3772350999934133,4,0.25,0.49999999999999994,18.02146,return,2.7768731999967713,,,,,,,,,,,,,,,,,p319,23,male,left_right_width,2025-12-16_12h37.22.220,exp1,2023.1.0,59.98883008033509,
,,,,,,,,,,,,,,,,4,8.65,9.55,10.45,11.35,0,0.9,0.35,0.55,3.25,10,initial,36.05,312,344,377,409,0,9,9,9,9,0,,,,,,,2,0,2,0,0,22,22,28,,,,,,,,,,,,,,5,1.551942499994766,5,0.25,0.44999999999999996,16.21932,return,2.384751799996593,,,,,,,,,,,,,,,,,p319,23,male,left_right_width,2025-12-16_12h37.22.220,exp1,2023.1.0,59.98883008033509,
,,,,,,,,,,,,,,,,4,8.35,9.45,10.55,11.65,0,1.1,0.8500000000000001,0.25,3.5500000000000003,10,initial,36.05,301,341,380,420,0,9,9,9,9,0,,,,,,,2,0,2,0,0,23,23,19,,,,,,,,,,,,,,5,1.4488183000066783,5,0.2,0.15000000000000002,5.40644,return,1.9349120999977458,,,,,,,,,,,,,,,,,p319,23,male,left_right_width,2025-12-16_12h37.22.220,exp1,2023.1.0,59.98883008033509,
,,,,,,,,,,,,,,,,3,7.8,10,12.2,0,0,2.2,1.65,0.55,4.95,10,match,36.05,281,361,440,0,0,9,9,9,0,0,,,,,,,2,0,2,0,0,24,24,35,,,,,,,,,,,,,,3,1.847451399997226,3,0.55,0.5,18.02146,return,1.6611554999981308,,,,,,,,,,,,,,,,,p319,23,male,left_right_width,2025-12-16_12h37.22.220,exp1,2023.1.0,59.98883008033509,
,,,,,,,,,,,,,,,,4,9.3,9.766666666666667,10.233333333333333,10.7,0,0.4666666666666667,0.21666666666666665,0.25,1.65,10,match,36.05,335,352,369,386,0,9,9,9,9,0,,,,,,,2,0,2,0,0,25,25,8,,,,,,,,,,,,,,4,1.4092220999882556,4,0.2,0.35,12.61502,return,2.008155399991665,,,,,,,,,,,,,,,,,p319,23,male,left_right_width,2025-12-16_12h37.22.220,exp1,2023.1.0,59.98883008033509,
,,,,,,,,,,,,,,,,3,7.800000000000001,10,12.2,0,0,2.1999999999999997,1.7999999999999998,0.4,4.8,10,match,36.05,281,361,440,0,0,9,9,9,0,0,,,,,,,2,0,2,0,0,26,26,39,,,,,,,,,,,,,,4,1.7327575999952387,4,0.45,0.35000000000000003,12.61502,return,1.7269209999940358,,,,,,,,,,,,,,,,,p319,23,male,left_right_width,2025-12-16_12h37.22.220,exp1,2023.1.0,59.98883008033509,
,,,,,,,,,,,,,,,,4,8.95,9.65,10.35,11.05,0,0.7,0.44999999999999996,0.25,2.3499999999999996,10,initial,36.05,323,348,373,398,0,9,9,9,9,0,,,,,,,2,0,2,0,0,27,27,24,,,,,,,,,,,,,,3,1.0634917999996105,3,0.35,0.3,10.81288,return,1.4033136000070954,,,,,,,,,,,,,,,,,p319,23,male,left_right_width,2025-12-16_12h37.22.220,exp1,2023.1.0,59.98883008033509,
,,,,,,,,,,,,,,,,4,8.825,9.608333333333333,10.391666666666667,11.175,0,0.7833333333333333,0.5333333333333333,0.25,2.6,10,match,36.05,318,346,375,403,0,9,9,9,9,0,,,,,,,2,0,2,0,0,28,28,5,,,,,,,,,,,,,,4,1.2683466999878874,4,0.35,0.3,10.81288,return,1.215406500006793,,,,,,,,,,,,,,,,,p319,23,male,left_right_width,2025-12-16_12h37.22.220,exp1,2023.1.0,59.98883008033509,
,,,,,,,,,,,,,,,,5,8.35,9.175,10,10.825,11.65,0.8250000000000001,0.275,0.55,3.85,10,match,36.05,301,331,361,390,420,9,9,9,9,9,,,,,,,2,0,2,0,0,29,29,18,,,,,,,,,,,,,,5,1.4893723999994108,5,0.3,0.39999999999999997,14.41717,return,1.6691275000048336,,,,,,,,,,,,,,,,,p319,23,male,left_right_width,2025-12-16_12h37.22.220,exp1,2023.1.0,59.98883008033509,
,,,,,,,,,,,,,,,,5,8.6,9.3,10,10.7,11.4,0.7,0.44999999999999996,0.25,3.05,10,initial,36.05,310,335,361,386,411,9,9,9,9,9,,,,,,,2,0,2,0,0,30,30,42,,,,,,,,,,,,,,4,2.248800100001972,4,0.4,0.35000000000000003,12.61502,return,1.3260283999989042,,,,,,,,,,,,,,,,,p319,23,male,left_right_width,2025-12-16_12h37.22.220,exp1,2023.1.0,59.98883008033509,
,,,,,,,,,,,,,,,,5,8.275,9.1375,10,10.8625,11.725,0.8625,0.6125,0.25,3.7,10,match,36.05,298,329,361,392,423,9,9,9,9,9,,,,,,,2,0,2,0,0,31,31,22,,,,,,,,,,,,,,5,0.8114611999917543,5,0.5,0.30000000000000004,10.81288,return,1.9938727999979164,,,,,,,,,,,,,,,,,p319,23,male,left_right_width,2025-12-16_12h37.22.220,exp1,2023.1.0,59.98883008033509,
,,,,,,,,,,,,,,,,5,8.65,9.325,10,10.675,11.35,0.675,0.125,0.55,3.25,10,match,36.05,312,336,361,385,409,9,9,9,9,9,,,,,,,2,0,2,0,0,32,32,29,,,,,,,,,,,,,,5,0.9232654000079492,5,0.4,0.45,16.21932,return,1.7487172999972245,,,,,,,,,,,,,,,,,p319,23,male,left_right_width,2025-12-16_12h37.22.220,exp1,2023.1.0,59.98883008033509,
,,,,,,,,,,,,,,,,4,9.3,9.766666666666667,10.233333333333333,10.7,0,0.4666666666666667,0.06666666666666665,0.4,1.8,10,match,36.05,335,352,369,386,0,9,9,9,9,0,,,,,,,2,0,2,0,0,33,33,10,,,,,,,,,,,,,,4,1.5049306000000797,4,0.55,0.45,16.21932,return,1.6509596000105375,,,,,,,,,,,,,,,,,p319,23,male,left_right_width,2025-12-16_12h37.22.220,exp1,2023.1.0,59.98883008033509,
,,,,,,,,,,,,,,,,5,8.2,9.1,10,10.9,11.8,0.9,0.65,0.25,3.85,10,initial,36.05,296,328,361,393,425,9,9,9,9,9,,,,,,,2,0,2,0,0,34,34,48,,,,,,,,,,,,,,5,0.9309111000038683,5,0.2,0.35,12.61502,return,1.756776499998523,,,,,,,,,,,,,,,,,p319,23,male,left_right_width,2025-12-16_12h37.22.220,exp1,2023.1.0,59.98883008033509,
,,,,,,,,,,,,,,,,4,8.35,9.45,10.55,11.65,0,1.1,0.55,0.55,3.8500000000000005,10,initial,36.05,301,341,380,420,0,9,9,9,9,0,,,,,,,2,0,2,0,0,35,35,17,,,,,,,,,,,,,,4,1.2098763000103645,4,0.2,0.49999999999999994,18.02146,return,2.3445806999952765,,,,,,,,,,,,,,,,,p319,23,male,left_right_width,2025-12-16_12h37.22.220,exp1,2023.1.0,59.98883008033509,
,,,,,,,,,,,,,,,,4,8.9,9.633333333333333,10.366666666666667,11.1,0,0.7333333333333334,0.4833333333333334,0.25,2.45,10,match,36.05,321,347,374,400,0,9,9,9,9,0,,,,,,,2,0,2,0,0,36,36,3,,,,,,,,,,,,,,5,1.26786509998783,5,0.45,0.30000000000000004,10.81288,return,2.127870000011171,,,,,,,,,,,,,,,,,p319,23,male,left_right_width,2025-12-16_12h37.22.220,exp1,2023.1.0,59.98883008033509,
,,,,,,,,,,,,,,,,3,9.1,10,10.9,0,0,0.9,0.5,0.4,2.2,10,initial,36.05,328,361,393,0,0,9,9,9,0,0,,,,,,,2,0,2,0,0,37,37,15,,,,,,,,,,,,,,3,1.8414384000061546,3,0.5,0.4,14.41717,return,1.4470715999923414,,,,,,,,,,,,,,,,,p319,23,male,left_right_width,2025-12-16_12h37.22.220,exp1,2023.1.0,59.98883008033509,
,,,,,,,,,,,,,,,,5,7.8,8.9,10,11.1,12.2,1.1,0.55,0.55,4.95,10,initial,36.05,281,321,361,400,440,9,9,9,9,9,,,,,,,2,0,2,0,0,38,38,34,,,,,,,,,,,,,,4,1.0086306000011973,4,0.3,0.49999999999999994,18.02146,return,3.111529400004656,,,,,,,,,,,,,,,,,p319,23,male,left_right_width,2025-12-16_12h37.22.220,exp1,2023.1.0,59.98883008033509,
,,,,,,,,,,,,,,,,5,8.95,9.475,10,10.525,11.05,0.525,0.275,0.25,2.35,10,match,36.05,323,342,361,379,398,9,9,9,9,9,,,,,,,2,0,2,0,0,39,39,25,,,,,,,,,,,,,,4,1.2675799999997253,4,0.2,0.35,12.61502,return,1.8227511000004597,,,,,,,,,,,,,,,,,p319,23,male,left_right_width,2025-12-16_12h37.22.220,exp1,2023.1.0,59.98883008033509,
,,,,,,,,,,,,,,,,3,8.9,10,11.1,0,0,1.1,0.55,0.55,2.75,10,initial,36.05,321,361,400,0,0,9,9,9,0,0,,,,,,,2,0,2,0,0,40,40,0,,,,,,,,,,,,,,3,1.5226680999912787,3,0.25,0.39999999999999997,14.41717,return,1.8447417999996105,,,,,,,,,,,,,,,,,p319,23,male,left_right_width,2025-12-16_12h37.22.220,exp1,2023.1.0,59.98883008033509,
,,,,,,,,,,,,,,,,4,9.1,9.7,10.3,10.9,0,0.6,0.04999999999999997,0.55,2.35,10,match,36.05,328,350,371,393,0,9,9,9,9,0,,,,,,,2,0,2,0,0,41,41,12,,,,,,,,,,,,,,3,1.1449789000034798,3,0.25,0.6,21.62576,return,6.6020936999993864,,,,,,,,,,,,,,,,,p319,23,male,left_right_width,2025-12-16_12h37.22.220,exp1,2023.1.0,59.98883008033509,
,,,,,,,,,,,,,,,,3,8.9,10,11.1,0,0,1.1,0.8500000000000001,0.25,2.45,10,initial,36.05,321,361,400,0,0,9,9,9,0,0,,,,,,,2,0,2,0,0,42,42,2,,,,,,,,,,,,,,4,1.4540848000033293,4,0.45,0.30000000000000004,10.81288,return,2.0038469999999506,,,,,,,,,,,,,,,,,p319,23,male,left_right_width,2025-12-16_12h37.22.220,exp1,2023.1.0,59.98883008033509,
,,,,,,,,,,,,,,,,3,8.2,10,11.8,0,0,1.8,1.25,0.55,4.15,10,match,36.05,296,361,425,0,0,9,9,9,0,0,,,,,,,2,0,2,0,0,43,43,47,,,,,,,,,,,,,,3,1.5419694999873172,3,0.35,0.44999999999999996,16.21932,return,1.287586199992802,,,,,,,,,,,,,,,,,p319,23,male,left_right_width,2025-12-16_12h37.22.220,exp1,2023.1.0,59.98883008033509,
,,,,,,,,,,,,,,,,3,9.3,10,10.7,0,0,0.7,0.44999999999999996,0.25,1.65,10,initial,36.05,335,361,386,0,0,9,9,9,0,0,,,,,,,2,0,2,0,0,44,44,7,,,,,,,,,,,,,,3,0.8320782000082545,3,0.4,0.25000000000000006,9.01073,return,1.502539599998272,,,,,,,,,,,,,,,,,p319,23,male,left_right_width,2025-12-16_12h37.22.220,exp1,2023.1.0,59.98883008033509,
,,,,,,,,,,,,,,,,3,9.3,10,10.7,0,0,0.7,0.1499999999999999,0.55,1.95,10,initial,36.05,335,361,386,0,0,9,9,9,0,0,,,,,,,2,0,2,0,0,45,45,6,,,,,,,,,,,,,,3,0.6995072999998229,3,0.3,0.39999999999999997,14.41717,return,1.6949453999986872,,,,,,,,,,,,,,,,,p319,23,male,left_right_width,2025-12-16_12h37.22.220,exp1,2023.1.0,59.98883008033509,
,,,,,,,,,,,,,,,,3,8.2,10,11.8,0,0,1.7999999999999998,1.4,0.4,4,10,match,36.05,296,361,425,0,0,9,9,9,0,0,,,,,,,2,0,2,0,0,46,46,51,,,,,,,,,,,,,,4,1.684398000012152,4,0.5,0.4,14.41717,return,1.855675800004974,,,,,,,,,,,,,,,,,p319,23,male,left_right_width,2025-12-16_12h37.22.220,exp1,2023.1.0,59.98883008033509,
,,,,,,,,,,,,,,,,3,8.6,10,11.4,0,0,1.4,0.85,0.55,3.35,10,match,36.05,310,361,411,0,0,9,9,9,0,0,,,,,,,2,0,2,0,0,47,47,41,,,,,,,,,,,,,,3,1.5919954999990296,3,0.25,0.44999999999999996,16.21932,return,1.8163146000006236,,,,,,,,,,,,,,,,,p319,23,male,left_right_width,2025-12-16_12h37.22.220,exp1,2023.1.0,59.98883008033509,
,,,,,,,,,,,,,,,,4,9.1,9.7,10.3,10.9,0,0.6000000000000001,0.20000000000000004,0.4,2.2,10,match,36.05,328,350,371,393,0,9,9,9,9,0,,,,,,,2,0,2,0,0,48,48,16,,,,,,,,,,,,,,4,1.0948142999986885,4,0.25,0.35,12.61502,return,2.2181666999968,,,,,,,,,,,,,,,,,p319,23,male,left_right_width,2025-12-16_12h37.22.220,exp1,2023.1.0,59.98883008033509,
,,,,,,,,,,,,,,,,3,8.9,10,11.1,0,0,1.1,0.7000000000000001,0.4,2.6000000000000005,10,initial,36.05,321,361,400,0,0,9,9,9,0,0,,,,,,,2,0,2,0,0,49,49,4,,,,,,,,,,,,,,3,0.8072296000027563,3,0.45,0.35000000000000003,12.61502,return,1.4945557999890298,,,,,,,,,,,,,,,,,p319,23,male,left_right_width,2025-12-16_12h37.22.220,exp1,2023.1.0,59.98883008033509,
,,,,,,,,,,,,,,,,5,7.8,8.9,10,11.1,12.2,1.1,0.7000000000000001,0.4,4.800000000000001,10,initial,36.05,281,321,361,400,440,9,9,9,9,9,,,,,,,2,0,2,0,0,50,50,38,,,,,,,,,,,,,,4,1.6275658999948064,4,0.3,0.44999999999999996,16.21932,return,3.353413700009696,,,,,,,,,,,,,,,,,p319,23,male,left_right_width,2025-12-16_12h37.22.220,exp1,2023.1.0,59.98883008033509,
,,,,,,,,,,,,,,,,4,8.65,9.55,10.45,11.35,0,0.9,0.65,0.25,2.95,10,initial,36.05,312,344,377,409,0,9,9,9,9,0,,,,,,,2,0,2,0,0,51,51,30,,,,,,,,,,,,,,4,1.5142445999954361,4,0.25,0.35,12.61502,return,1.2767834999976913,,,,,,,,,,,,,,,,,p319,23,male,left_right_width,2025-12-16_12h37.22.220,exp1,2023.1.0,59.98883008033509,
,,,,,,,,,,,,,,,,,,,,,,,,,,,,,,,,,,,,,,,,,,,,,2,0,2,0,,,,,,,,,,,,,,,,,,,,,,,,,,,,1183.2609620000003,1183.2609620000003,1183.2609620000003,,,,,,,,,,,,p319,23,male,left_right_width,2025-12-16_12h37.22.220,exp1,2023.1.0,59.98883008033509,
,,,,,,,,,,,,,,,,4,8.9,9.633333333333333,10.366666666666667,11.1,0,0.7333333333333334,0.4833333333333334,0.25,2.45,10,match,36.05,321,347,374,400,0,9,9,9,9,0,,,,,,,3,0,3,0,0,0,0,3,,,,,,,,,,,,,,4,1.3468415999959689,4,0.35,0.35,12.61502,return,3.627366599990637,,,,,,,,,,,,,,,,,p319,23,male,left_right_width,2025-12-16_12h37.22.220,exp1,2023.1.0,59.98883008033509,
,,,,,,,,,,,,,,,,5,8.2,9.1,10,10.9,11.8,0.9,0.5,0.4,4,10,initial,36.05,296,328,361,393,425,9,9,9,9,9,,,,,,,3,0,3,0,0,1,1,50,,,,,,,,,,,,,,6,2.132507700007409,6,0.3,0.35,12.61502,return,1.6787432999990415,,,,,,,,,,,,,,,,,p319,23,male,left_right_width,2025-12-16_12h37.22.220,exp1,2023.1.0,59.98883008033509,
,,,,,,,,,,,,,,,,5,8.35,9.175,10,10.825,11.65,0.8250000000000001,0.275,0.55,3.85,10,match,36.05,301,331,361,390,420,9,9,9,9,9,,,,,,,3,0,3,0,0,2,2,18,,,,,,,,,,,,,,6,1.8228838000068208,6,0.5,0.45,16.21932,return,1.1239440999925137,,,,,,,,,,,,,,,,,p319,23,male,left_right_width,2025-12-16_12h37.22.220,exp1,2023.1.0,59.98883008033509,
,,,,,,,,,,,,,,,,5,7.8,8.9,10,11.1,12.2,1.1,0.8500000000000001,0.25,4.65,10,initial,36.05,281,321,361,400,440,9,9,9,9,9,,,,,,,3,0,3,0,0,3,3,36,,,,,,,,,,,,,,5,1.5180591999960598,5,0.5,0.20000000000000007,7.20859,return,1.9845935000048485,,,,,,,,,,,,,,,,,p319,23,male,left_right_width,2025-12-16_12h37.22.220,exp1,2023.1.0,59.98883008033509,
,,,,,,,,,,,,,,,,4,8.35,9.45,10.55,11.65,0,1.1,0.8500000000000001,0.25,3.5500000000000003,10,initial,36.05,301,341,380,420,0,9,9,9,9,0,,,,,,,3,0,3,0,0,4,4,19,,,,,,,,,,,,,,4,1.2178549999953248,4,0.45,0.25000000000000006,9.01073,return,1.5990257999947062,,,,,,,,,,,,,,,,,p319,23,male,left_right_width,2025-12-16_12h37.22.220,exp1,2023.1.0,59.98883008033509,
,,,,,,,,,,,,,,,,4,8.9,9.633333333333333,10.366666666666667,11.1,0,0.7333333333333333,0.18333333333333326,0.55,2.75,10,match,36.05,321,347,374,400,0,9,9,9,9,0,,,,,,,3,0,3,0,0,5,5,1,,,,,,,,,,,,,,4,1.334416900004726,4,0.3,0.44999999999999996,16.21932,return,2.1602895999967586,,,,,,,,,,,,,,,,,p319,23,male,left_right_width,2025-12-16_12h37.22.220,exp1,2023.1.0,59.98883008033509,
,,,,,,,,,,,,,,,,4,9.1,9.7,10.3,10.9,0,0.6000000000000001,0.20000000000000004,0.4,2.2,10,match,36.05,328,350,371,393,0,9,9,9,9,0,,,,,,,3,0,3,0,0,6,6,16,,,,,,,,,,,,,,3,1.5072068000008585,3,0.4,0.35000000000000003,12.61502,return,1.2046378999948502,,,,,,,,,,,,,,,,,p319,23,male,left_right_width,2025-12-16_12h37.22.220,exp1,2023.1.0,59.98883008033509,
,,,,,,,,,,,,,,,,4,8.35,9.45,10.55,11.65,0,1.1,0.7000000000000001,0.4,3.7,10,initial,36.05,301,341,380,420,0,9,9,9,9,0,,,,,,,3,0,3,0,0,7,7,21,,,,,,,,,,,,,,4,1.532634600007441,4,0.25,0.39999999999999997,14.41717,return,1.614471799999592,,,,,,,,,,,,,,,,,p319,23,male,left_right_width,2025-12-16_12h37.22.220,exp1,2023.1.0,59.98883008033509,
,,,,,,,,,,,,,,,,3,8.2,10,11.8,0,0,1.8,1.25,0.55,4.15,10,match,36.05,296,361,425,0,0,9,9,9,0,0,,,,,,,3,0,3,0,0,8,8,47,,,,,,,,,,,,,,3,1.0398982999904547,3,0.45,0.4,14.41717,return,1.5586055000021588,,,,,,,,,,,,,,,,,p319,23,male,left_right_width,2025-12-16_12h37.22.220,exp1,2023.1.0,59.98883008033509,
,,,,,,,,,,,,,,,,4,8.65,9.55,10.45,11.35,0,0.9,0.35,0.55,3.25,10,initial,36.05,312,344,377,409,0,9,9,9,9,0,,,,,,,3,0,3,0,0,9,9,28,,,,,,,,,,,,,,5,1.2785551999986637,5,0.45,0.45,16.21932,return,2.090849000000162,,,,,,,,,,,,,,,,,p319,23,male,left_right_width,2025-12-16_12h37.22.220,exp1,2023.1.0,59.98883008033509,
,,,,,,,,,,,,,,,,3,9.1,10,10.9,0,0,0.9,0.65,0.25,2.05,10,initial,36.05,328,361,393,0,0,9,9,9,0,0,,,,,,,3,0,3,0,0,10,10,13,,,,,,,,,,,,,,4,1.2101818999944953,4,0.55,0.30000000000000004,10.81288,return,1.7840110999968601,,,,,,,,,,,,,,,,,p319,23,male,left_right_width,2025-12-16_12h37.22.220,exp1,2023.1.0,59.98883008033509,
,,,,,,,,,,,,,,,,3,9.1,10,10.9,0,0,0.9,0.5,0.4,2.2,10,initial,36.05,328,361,393,0,0,9,9,9,0,0,,,,,,,3,0,3,0,0,11,11,15,,,,,,,,,,,,,,3,2.040016099999775,3,0.2,0.3,10.81288,return,1.3492741999943973,,,,,,,,,,,,,,,,,p319,23,male,left_right_width,2025-12-16_12h37.22.220,exp1,2023.1.0,59.98883008033509,
,,,,,,,,,,,,,,,,5,7.8,8.9,10,11.1,12.2,1.1,0.7000000000000001,0.4,4.800000000000001,10,initial,36.05,281,321,361,400,440,9,9,9,9,9,,,,,,,3,0,3,0,0,12,12,38,,,,,,,,,,,,,,5,1.3380113000021083,5,0.45,0.35000000000000003,12.61502,return,1.8591687000007369,,,,,,,,,,,,,,,,,p319,23,male,left_right_width,2025-12-16_12h37.22.220,exp1,2023.1.0,59.98883008033509,
,,,,,,,,,,,,,,,,5,8.6,9.3,10,10.7,11.4,0.7,0.44999999999999996,0.25,3.05,10,initial,36.05,310,335,361,386,411,9,9,9,9,9,,,,,,,3,0,3,0,0,13,13,42,,,,,,,,,,,,,,5,1.3562082000134978,5,0.55,0.35000000000000003,12.61502,return,1.652039499997045,,,,,,,,,,,,,,,,,p319,23,male,left_right_width,2025-12-16_12h37.22.220,exp1,2023.1.0,59.98883008033509,
,,,,,,,,,,,,,,,,3,8.6,10,11.4,0,0,1.4,1.15,0.25,3.05,10,match,36.05,310,361,411,0,0,9,9,9,0,0,,,,,,,3,0,3,0,0,14,14,43,,,,,,,,,,,,,,3,1.5155356999894138,3,0.2,0.3,10.81288,return,1.437501099993824,,,,,,,,,,,,,,,,,p319,23,male,left_right_width,2025-12-16_12h37.22.220,exp1,2023.1.0,59.98883008033509,
,,,,,,,,,,,,,,,,4,8.95,9.65,10.35,11.05,0,0.7,0.29999999999999993,0.4,2.5,10,initial,36.05,323,348,373,398,0,9,9,9,9,0,,,,,,,3,0,3,0,0,15,15,26,,,,,,,,,,,,,,4,0.8054097999993246,4,0.25,0.35,12.61502,return,2.068196700012777,,,,,,,,,,,,,,,,,p319,23,male,left_right_width,2025-12-16_12h37.22.220,exp1,2023.1.0,59.98883008033509,
,,,,,,,,,,,,,,,,5,8.275,9.1375,10,10.8625,11.725,0.8625,0.6125,0.25,3.7,10,match,36.05,298,329,361,392,423,9,9,9,9,9,,,,,,,3,0,3,0,0,16,16,22,,,,,,,,,,,,,,4,0.80088139999134,4,0.45,0.4,14.41717,return,2.3684567000018433,,,,,,,,,,,,,,,,,p319,23,male,left_right_width,2025-12-16_12h37.22.220,exp1,2023.1.0,59.98883008033509,
,,,,,,,,,,,,,,,,3,8.2,10,11.8,0,0,1.8,1.55,0.25,3.85,10,match,36.05,296,361,425,0,0,9,9,9,0,0,,,,,,,3,0,3,0,0,17,17,49,,,,,,,,,,,,,,4,0.6766755999997258,4,0.5,0.25000000000000006,9.01073,return,2.6159941000078106,,,,,,,,,,,,,,,,,p319,23,male,left_right_width,2025-12-16_12h37.22.220,exp1,2023.1.0,59.98883008033509,
,,,,,,,,,,,,,,,,3,7.8,10,12.2,0,0,2.2,1.9500000000000002,0.25,4.65,10,match,36.05,281,361,440,0,0,9,9,9,0,0,,,,,,,3,0,3,0,0,18,18,37,,,,,,,,,,,,,,4,0.9109851999965031,4,0.25,0.3,10.81288,return,1.7033748000103515,,,,,,,,,,,,,,,,,p319,23,male,left_right_width,2025-12-16_12h37.22.220,exp1,2023.1.0,59.98883008033509,
,,,,,,,,,,,,,,,,5,8.35,9.175,10,10.825,11.65,0.825,0.575,0.25,3.55,10,match,36.05,301,331,361,390,420,9,9,9,9,9,,,,,,,3,0,3,0,0,19,19,20,,,,,,,,,,,,,,5,2.0227521999913733,5,0.2,0.3,10.81288,return,1.8288305000023684,,,,,,,,,,,,,,,,,p319,23,male,left_right_width,2025-12-16_12h37.22.220,exp1,2023.1.0,59.98883008033509,
,,,,,,,,,,,,,,,,3,8.2,10,11.8,0,0,1.7999999999999998,1.4,0.4,4,10,match,36.05,296,361,425,0,0,9,9,9,0,0,,,,,,,3,0,3,0,0,20,20,51,,,,,,,,,,,,,,3,1.6559687000117265,3,0.25,0.35,12.61502,return,2.1173060000000987,,,,,,,,,,,,,,,,,p319,23,male,left_right_width,2025-12-16_12h37.22.220,exp1,2023.1.0,59.98883008033509,
,,,,,,,,,,,,,,,,4,8.65,9.55,10.45,11.35,0,0.9,0.5,0.4,3.1,10,initial,36.05,312,344,377,409,0,9,9,9,9,0,,,,,,,3,0,3,0,0,21,21,32,,,,,,,,,,,,,,5,2.942268500002683,5,0.55,0.35000000000000003,12.61502,return,2.599050000004354,,,,,,,,,,,,,,,,,p319,23,male,left_right_width,2025-12-16_12h37.22.220,exp1,2023.1.0,59.98883008033509,
,,,,,,,,,,,,,,,,3,8.9,10,11.1,0,0,1.1,0.7000000000000001,0.4,2.6000000000000005,10,initial,36.05,321,361,400,0,0,9,9,9,0,0,,,,,,,3,0,3,0,0,22,22,4,,,,,,,,,,,,,,3,1.6920708999969065,3,0.3,0.3,10.81288,return,1.1279675000114366,,,,,,,,,,,,,,,,,p319,23,male,left_right_width,2025-12-16_12h37.22.220,exp1,2023.1.0,59.98883008033509,
,,,,,,,,,,,,,,,,5,8.65,9.325,10,10.675,11.35,0.675,0.275,0.4,3.1,10,match,36.05,312,336,361,385,409,9,9,9,9,9,,,,,,,3,0,3,0,0,23,23,33,,,,,,,,,,,,,,4,2.220237500005169,4,0.55,0.30000000000000004,10.81288,return,2.497705200003111,,,,,,,,,,,,,,,,,p319,23,male,left_right_width,2025-12-16_12h37.22.220,exp1,2023.1.0,59.98883008033509,
,,,,,,,,,,,,,,,,5,8.2,9.1,10,10.9,11.8,0.9,0.65,0.25,3.85,10,initial,36.05,296,328,361,393,425,9,9,9,9,9,,,,,,,3,0,3,0,0,24,24,48,,,,,,,,,,,,,,5,1.3012363000016194,5,0.2,0.35,12.61502,return,1.5349510999949416,,,,,,,,,,,,,,,,,p319,23,male,left_right_width,2025-12-16_12h37.22.220,exp1,2023.1.0,59.98883008033509,
,,,,,,,,,,,,,,,,4,8.65,9.55,10.45,11.35,0,0.9,0.65,0.25,2.95,10,initial,36.05,312,344,377,409,0,9,9,9,9,0,,,,,,,3,0,3,0,0,25,25,30,,,,,,,,,,,,,,4,1.0866765999962809,4,0.35,0.3,10.81288,return,1.8579152000020258,,,,,,,,,,,,,,,,,p319,23,male,left_right_width,2025-12-16_12h37.22.220,exp1,2023.1.0,59.98883008033509,
,,,,,,,,,,,,,,,,4,9.3,9.766666666666667,10.233333333333333,10.7,0,0.4666666666666667,0.21666666666666665,0.25,1.65,10,match,36.05,335,352,369,386,0,9,9,9,9,0,,,,,,,3,0,3,0,0,26,26,8,,,,,,,,,,,,,,3,1.1732284999889089,3,0.5,0.25000000000000006,9.01073,return,1.8286140999989584,,,,,,,,,,,,,,,,,p319,23,male,left_right_width,2025-12-16_12h37.22.220,exp1,2023.1.0,59.98883008033509,
,,,,,,,,,,,,,,,,5,7.8,8.9,10,11.1,12.2,1.1,0.55,0.55,4.95,10,initial,36.05,281,321,361,400,440,9,9,9,9,9,,,,,,,3,0,3,0,0,27,27,34,,,,,,,,,,,,,,5,1.4601205000071786,5,0.3,0.35,12.61502,return,3.4663346000015736,,,,,,,,,,,,,,,,,p319,23,male,left_right_width,2025-12-16_12h37.22.220,exp1,2023.1.0,59.98883008033509,
,,,,,,,,,,,,,,,,5,8.65,9.325,10,10.675,11.35,0.675,0.125,0.55,3.25,10,match,36.05,312,336,361,385,409,9,9,9,9,9,,,,,,,3,0,3,0,0,28,28,29,,,,,,,,,,,,,,5,1.3820959000004223,5,0.4,0.35000000000000003,12.61502,return,1.0220970999944257,,,,,,,,,,,,,,,,,p319,23,male,left_right_width,2025-12-16_12h37.22.220,exp1,2023.1.0,59.98883008033509,
,,,,,,,,,,,,,,,,3,9.3,10,10.7,0,0,0.7,0.1499999999999999,0.55,1.95,10,initial,36.05,335,361,386,0,0,9,9,9,0,0,,,,,,,3,0,3,0,0,29,29,6,,,,,,,,,,,,,,4,0.7983119999989867,4,0.5,0.45,16.21932,return,1.7889790999906836,,,,,,,,,,,,,,,,,p319,23,male,left_right_width,2025-12-16_12h37.22.220,exp1,2023.1.0,59.98883008033509,
,,,,,,,,,,,,,,,,3,8.9,10,11.1,0,0,1.1,0.8500000000000001,0.25,2.45,10,initial,36.05,321,361,400,0,0,9,9,9,0,0,,,,,,,3,0,3,0,0,30,30,2,,,,,,,,,,,,,,3,1.81921699999657,3,0.25,0.3,10.81288,return,1.3611881999968318,,,,,,,,,,,,,,,,,p319,23,male,left_right_width,2025-12-16_12h37.22.220,exp1,2023.1.0,59.98883008033509,
,,,,,,,,,,,,,,,,3,9.1,10,10.9,0,0,0.9,0.35,0.55,2.35,10,initial,36.05,328,361,393,0,0,9,9,9,0,0,,,,,,,3,0,3,0,0,31,31,11,,,,,,,,,,,,,,3,1.5215363000024809,3,0.2,0.35,12.61502,return,2.2434898000065004,,,,,,,,,,,,,,,,,p319,23,male,left_right_width,2025-12-16_12h37.22.220,exp1,2023.1.0,59.98883008033509,
,,,,,,,,,,,,,,,,5,8.2,9.1,10,10.9,11.8,0.9,0.35,0.55,4.15,10,initial,36.05,296,328,361,393,425,9,9,9,9,9,,,,,,,3,0,3,0,0,32,32,46,,,,,,,,,,,,,,5,1.5207886999996845,5,0.2,0.35,12.61502,return,3.8749796000047354,,,,,,,,,,,,,,,,,p319,23,male,left_right_width,2025-12-16_12h37.22.220,exp1,2023.1.0,59.98883008033509,
,,,,,,,,,,,,,,,,4,9.1,9.7,10.3,10.9,0,0.6,0.04999999999999997,0.55,2.35,10,match,36.05,328,350,371,393,0,9,9,9,9,0,,,,,,,3,0,3,0,0,33,33,12,,,,,,,,,,,,,,4,1.8824425999919185,4,0.3,0.39999999999999997,14.41717,return,1.4549050999921747,,,,,,,,,,,,,,,,,p319,23,male,left_right_width,2025-12-16_12h37.22.220,exp1,2023.1.0,59.98883008033509,
,,,,,,,,,,,,,,,,3,8.6,10,11.4,0,0,1.4,0.85,0.55,3.35,10,match,36.05,310,361,411,0,0,9,9,9,0,0,,,,,,,3,0,3,0,0,34,34,41,,,,,,,,,,,,,,3,1.3328024999937043,3,0.5,0.5,18.02146,return,1.5347756000119261,,,,,,,,,,,,,,,,,p319,23,male,left_right_width,2025-12-16_12h37.22.220,exp1,2023.1.0,59.98883008033509,
,,,,,,,,,,,,,,,,3,7.800000000000001,10,12.2,0,0,2.1999999999999997,1.7999999999999998,0.4,4.8,10,match,36.05,281,361,440,0,0,9,9,9,0,0,,,,,,,3,0,3,0,0,35,35,39,,,,,,,,,,,,,,3,1.1190524999983609,3,0.3,0.39999999999999997,14.41717,return,1.808692799997516,,,,,,,,,,,,,,,,,p319,23,male,left_right_width,2025-12-16_12h37.22.220,exp1,2023.1.0,59.98883008033509,
,,,,,,,,,,,,,,,,4,8.825,9.608333333333333,10.391666666666667,11.175,0,0.7833333333333333,0.5333333333333333,0.25,2.6,10,match,36.05,318,346,375,403,0,9,9,9,9,0,,,,,,,3,0,3,0,0,36,36,5,,,,,,,,,,,,,,4,1.625650299989502,4,0.25,0.3,10.81288,return,1.143839600001229,,,,,,,,,,,,,,,,,p319,23,male,left_right_width,2025-12-16_12h37.22.220,exp1,2023.1.0,59.98883008033509,
,,,,,,,,,,,,,,,,4,8.35,9.45,10.55,11.65,0,1.1,0.55,0.55,3.8500000000000005,10,initial,36.05,301,341,380,420,0,9,9,9,9,0,,,,,,,3,0,3,0,0,37,37,17,,,,,,,,,,,,,,5,1.340542000005371,5,0.45,0.4,14.41717,return,1.3654561000003014,,,,,,,,,,,,,,,,,p319,23,male,left_right_width,2025-12-16_12h37.22.220,exp1,2023.1.0,59.98883008033509,
,,,,,,,,,,,,,,,,4,9.1,9.7,10.3,10.9,0,0.5999999999999999,0.3499999999999999,0.25,2.05,10,match,36.05,328,350,371,393,0,9,9,9,9,0,,,,,,,3,0,3,0,0,38,38,14,,,,,,,,,,,,,,4,1.6861471999873174,4,0.35,0.3,10.81288,return,1.1695873999997275,,,,,,,,,,,,,,,,,p319,23,male,left_right_width,2025-12-16_12h37.22.220,exp1,2023.1.0,59.98883008033509,
,,,,,,,,,,,,,,,,3,8.9,10,11.1,0,0,1.1,0.55,0.55,2.75,10,initial,36.05,321,361,400,0,0,9,9,9,0,0,,,,,,,3,0,3,0,0,39,39,0,,,,,,,,,,,,,,4,1.580008999997517,4,0.25,0.35,12.61502,return,1.3082097000005888,,,,,,,,,,,,,,,,,p319,23,male,left_right_width,2025-12-16_12h37.22.220,exp1,2023.1.0,59.98883008033509,
,,,,,,,,,,,,,,,,5,8.6,9.3,10,10.7,11.4,0.7,0.1499999999999999,0.55,3.3499999999999996,10,initial,36.05,310,335,361,386,411,9,9,9,9,9,,,,,,,3,0,3,0,0,40,40,40,,,,,,,,,,,,,,5,1.8234393000020646,5,0.35,0.35,12.61502,return,2.2769164000055753,,,,,,,,,,,,,,,,,p319,23,male,left_right_width,2025-12-16_12h37.22.220,exp1,2023.1.0,59.98883008033509,
,,,,,,,,,,,,,,,,3,9.3,10,10.7,0,0,0.7,0.29999999999999993,0.4,1.8,10,initial,36.05,335,361,386,0,0,9,9,9,0,0,,,,,,,3,0,3,0,0,41,41,9,,,,,,,,,,,,,,3,1.3662039000046207,3,0.55,0.35000000000000003,12.61502,return,2.0642168000049423,,,,,,,,,,,,,,,,,p319,23,male,left_right_width,2025-12-16_12h37.22.220,exp1,2023.1.0,59.98883008033509,
,,,,,,,,,,,,,,,,4,9.3,9.766666666666667,10.233333333333333,10.7,0,0.4666666666666667,0.06666666666666665,0.4,1.8,10,match,36.05,335,352,369,386,0,9,9,9,9,0,,,,,,,3,0,3,0,0,42,42,10,,,,,,,,,,,,,,5,1.5460840000014286,5,0.5,0.35000000000000003,12.61502,return,1.707266299999901,,,,,,,,,,,,,,,,,p319,23,male,left_right_width,2025-12-16_12h37.22.220,exp1,2023.1.0,59.98883008033509,
,,,,,,,,,,,,,,,,5,8.65,9.325,10,10.675,11.35,0.675,0.42500000000000004,0.25,2.95,10,match,36.05,312,336,361,385,409,9,9,9,9,9,,,,,,,3,0,3,0,0,43,43,31,,,,,,,,,,,,,,5,1.3650408999965293,5,0.3,0.35,12.61502,return,1.2132219999912195,,,,,,,,,,,,,,,,,p319,23,male,left_right_width,2025-12-16_12h37.22.220,exp1,2023.1.0,59.98883008033509,
,,,,,,,,,,,,,,,,4,8.95,9.65,10.35,11.05,0,0.7,0.1499999999999999,0.55,2.65,10,initial,36.05,323,348,373,398,0,9,9,9,9,0,,,,,,,3,0,3,0,0,44,44,23,,,,,,,,,,,,,,5,1.5825439000036567,5,0.3,0.35,12.61502,return,1.2457539000024553,,,,,,,,,,,,,,,,,p319,23,male,left_right_width,2025-12-16_12h37.22.220,exp1,2023.1.0,59.98883008033509,
,,,,,,,,,,,,,,,,3,9.3,10,10.7,0,0,0.7,0.44999999999999996,0.25,1.65,10,initial,36.05,335,361,386,0,0,9,9,9,0,0,,,,,,,3,0,3,0,0,45,45,7,,,,,,,,,,,,,,3,1.6526717000087956,3,0.55,0.35000000000000003,12.61502,return,1.8258628000039607,,,,,,,,,,,,,,,,,p319,23,male,left_right_width,2025-12-16_12h37.22.220,exp1,2023.1.0,59.98883008033509,
,,,,,,,,,,,,,,,,3,8.525,10,11.475,0,0,1.475,1.225,0.25,3.2,10,match,36.05,307,361,414,0,0,9,9,9,0,0,,,,,,,3,0,3,0,0,46,46,45,,,,,,,,,,,,,,3,0.8180928999936441,3,0.45,0.25000000000000006,9.01073,return,1.5991138000099454,,,,,,,,,,,,,,,,,p319,23,male,left_right_width,2025-12-16_12h37.22.220,exp1,2023.1.0,59.98883008033509,
,,,,,,,,,,,,,,,,3,7.8,10,12.2,0,0,2.2,1.65,0.55,4.95,10,match,36.05,281,361,440,0,0,9,9,9,0,0,,,,,,,3,0,3,0,0,47,47,35,,,,,,,,,,,,,,3,0.5927173999953084,3,0.35,0.3,10.81288,return,1.4006730999972206,,,,,,,,,,,,,,,,,p319,23,male,left_right_width,2025-12-16_12h37.22.220,exp1,2023.1.0,59.98883008033509,
,,,,,,,,,,,,,,,,5,8.95,9.475,10,10.525,11.05,0.525,0.125,0.4,2.5,10,match,36.05,323,342,361,379,398,9,9,9,9,9,,,,,,,3,0,3,0,0,48,48,27,,,,,,,,,,,,,,5,1.5141983999928925,5,0.35,0.3,10.81288,return,1.8846401000046171,,,,,,,,,,,,,,,,,p319,23,male,left_right_width,2025-12-16_12h37.22.220,exp1,2023.1.0,59.98883008033509,
,,,,,,,,,,,,,,,,4,8.95,9.65,10.35,11.05,0,0.7,0.44999999999999996,0.25,2.3499999999999996,10,initial,36.05,323,348,373,398,0,9,9,9,9,0,,,,,,,3,0,3,0,0,49,49,24,,,,,,,,,,,,,,4,1.3737091999937547,4,0.55,0.35000000000000003,12.61502,return,2.7258686999994097,,,,,,,,,,,,,,,,,p319,23,male,left_right_width,2025-12-16_12h37.22.220,exp1,2023.1.0,59.98883008033509,
,,,,,,,,,,,,,,,,5,8.6,9.3,10,10.7,11.4,0.7,0.29999999999999993,0.4,3.1999999999999997,10,initial,36.05,310,335,361,386,411,9,9,9,9,9,,,,,,,3,0,3,0,0,50,50,44,,,,,,,,,,,,,,4,1.0042246999946656,4,0.3,0.35,12.61502,return,1.5700251999951433,,,,,,,,,,,,,,,,,p319,23,male,left_right_width,2025-12-16_12h37.22.220,exp1,2023.1.0,59.98883008033509,
,,,,,,,,,,,,,,,,5,8.95,9.475,10,10.525,11.05,0.525,0.275,0.25,2.35,10,match,36.05,323,342,361,379,398,9,9,9,9,9,,,,,,,3,0,3,0,0,51,51,25,,,,,,,,,,,,,,4,0.7160548999963794,4,0.2,0.35,12.61502,return,2.0468151999957627,,,,,,,,,,,,,,,,,p319,23,male,left_right_width,2025-12-16_12h37.22.220,exp1,2023.1.0,59.98883008033509,
,,,,,,,,,,,,,,,,,,,,,,,,,,,,,,,,,,,,,,,,,,,,,3,0,3,0,,,,,,,,,,,,,,,,,,,,,,,,,,,,1446.377609499992,1446.377609499992,1446.377609499992,,,,,,,,,,,,p319,23,male,left_right_width,2025-12-16_12h37.22.220,exp1,2023.1.0,59.98883008033509,
,,,,,,,,,,,,,,,,3,8.6,10,11.4,0,0,1.4,0.85,0.55,3.35,10,match,36.05,310,361,411,0,0,9,9,9,0,0,,,,,,,4,0,4,0,0,0,0,41,,,,,,,,,,,,,,4,0.8035185999906389,4,0.45,0.4,14.41717,return,1.1532296000077622,,,,,,,,,,,,,,,,,p319,23,male,left_right_width,2025-12-16_12h37.22.220,exp1,2023.1.0,59.98883008033509,
,,,,,,,,,,,,,,,,4,9.3,9.766666666666667,10.233333333333333,10.7,0,0.4666666666666667,0.06666666666666665,0.4,1.8,10,match,36.05,335,352,369,386,0,9,9,9,9,0,,,,,,,4,0,4,0,0,1,1,10,,,,,,,,,,,,,,4,0.4928933000046527,4,0.2,0.2,7.20859,return,1.0324715000024298,,,,,,,,,,,,,,,,,p319,23,male,left_right_width,2025-12-16_12h37.22.220,exp1,2023.1.0,59.98883008033509,
,,,,,,,,,,,,,,,,3,9.1,10,10.9,0,0,0.9,0.65,0.25,2.05,10,initial,36.05,328,361,393,0,0,9,9,9,0,0,,,,,,,4,0,4,0,0,2,2,13,,,,,,,,,,,,,,4,0.5010043000074802,4,0.4,0.20000000000000007,7.20859,return,1.9849714999872958,,,,,,,,,,,,,,,,,p319,23,male,left_right_width,2025-12-16_12h37.22.220,exp1,2023.1.0,59.98883008033509,
,,,,,,,,,,,,,,,,3,7.800000000000001,10,12.2,0,0,2.1999999999999997,1.7999999999999998,0.4,4.8,10,match,36.05,281,361,440,0,0,9,9,9,0,0,,,,,,,4,0,4,0,0,3,3,39,,,,,,,,,,,,,,4,0.5040869000076782,4,0.25,0.25,9.01073,return,1.3142293999990216,,,,,,,,,,,,,,,,,p319,23,male,left_right_width,2025-12-16_12h37.22.220,exp1,2023.1.0,59.98883008033509,
,,,,,,,,,,,,,,,,3,9.1,10,10.9,0,0,0.9,0.35,0.55,2.35,10,initial,36.05,328,361,393,0,0,9,9,9,0,0,,,,,,,4,0,4,0,0,4,4,11,,,,,,,,,,,,,,2,2.46553159999894,2,0.45,0.4,14.41717,return,3.918359599992982,,,,,,,,,,,,,,,,,p319,23,male,left_right_width,2025-12-16_12h37.22.220,exp1,2023.1.0,59.98883008033509,
,,,,,,,,,,,,,,,,5,8.2,9.1,10,10.9,11.8,0.9,0.35,0.55,4.15,10,initial,36.05,296,328,361,393,425,9,9,9,9,9,,,,,,,4,0,4,0,0,5,5,46,,,,,,,,,,,,,,4,1.9759199999971315,4,0.3,0.39999999999999997,14.41717,return,1.6721048000035807,,,,,,,,,,,,,,,,,p319,23,male,left_right_width,2025-12-16_12h37.22.220,exp1,2023.1.0,59.98883008033509,
,,,,,,,,,,,,,,,,5,8.65,9.325,10,10.675,11.35,0.675,0.42500000000000004,0.25,2.95,10,match,36.05,312,336,361,385,409,9,9,9,9,9,,,,,,,4,0,4,0,0,6,6,31,,,,,,,,,,,,,,5,1.2763705999968806,5,0.5,0.30000000000000004,10.81288,return,2.968272700003581,,,,,,,,,,,,,,,,,p319,23,male,left_right_width,2025-12-16_12h37.22.220,exp1,2023.1.0,59.98883008033509,
,,,,,,,,,,,,,,,,4,9.1,9.7,10.3,10.9,0,0.6,0.04999999999999997,0.55,2.35,10,match,36.05,328,350,371,393,0,9,9,9,9,0,,,,,,,4,0,4,0,0,7,7,12,,,,,,,,,,,,,,5,2.3700726999959443,5,0.45,0.45,16.21932,return,0.9773617000028025,,,,,,,,,,,,,,,,,p319,23,male,left_right_width,2025-12-16_12h37.22.220,exp1,2023.1.0,59.98883008033509,
,,,,,,,,,,,,,,,,4,8.65,9.55,10.45,11.35,0,0.9,0.5,0.4,3.1,10,initial,36.05,312,344,377,409,0,9,9,9,9,0,,,,,,,4,0,4,0,0,8,8,32,,,,,,,,,,,,,,5,0.9399052999942796,5,0.45,0.4,14.41717,return,2.0200458000035724,,,,,,,,,,,,,,,,,p319,23,male,left_right_width,2025-12-16_12h37.22.220,exp1,2023.1.0,59.98883008033509,
,,,,,,,,,,,,,,,,3,9.3,10,10.7,0,0,0.7,0.29999999999999993,0.4,1.8,10,initial,36.05,335,361,386,0,0,9,9,9,0,0,,,,,,,4,0,4,0,0,9,9,9,,,,,,,,,,,,,,3,2.1343882999935886,3,0.3,0.3,10.81288,return,1.9997995000012452,,,,,,,,,,,,,,,,,p319,23,male,left_right_width,2025-12-16_12h37.22.220,exp1,2023.1.0,59.98883008033509,
,,,,,,,,,,,,,,,,5,8.65,9.325,10,10.675,11.35,0.675,0.125,0.55,3.25,10,match,36.05,312,336,361,385,409,9,9,9,9,9,,,,,,,4,0,4,0,0,10,10,29,,,,,,,,,,,,,,5,1.3095079000049736,5,0.5,0.45,16.21932,return,1.4639412999968044,,,,,,,,,,,,,,,,,p319,23,male,left_right_width,2025-12-16_12h37.22.220,exp1,2023.1.0,59.98883008033509,
,,,,,,,,,,,,,,,,5,7.8,8.9,10,11.1,12.2,1.1,0.7000000000000001,0.4,4.800000000000001,10,initial,36.05,281,321,361,400,440,9,9,9,9,9,,,,,,,4,0,4,0,0,11,11,38,,,,,,,,,,,,,,5,1.0726195000024745,5,0.2,0.3,10.81288,return,1.66879899999185,,,,,,,,,,,,,,,,,p319,23,male,left_right_width,2025-12-16_12h37.22.220,exp1,2023.1.0,59.98883008033509,
,,,,,,,,,,,,,,,,3,8.9,10,11.1,0,0,1.1,0.55,0.55,2.75,10,initial,36.05,321,361,400,0,0,9,9,9,0,0,,,,,,,4,0,4,0,0,12,12,0,,,,,,,,,,,,,,3,1.3201248999976087,3,0.55,0.30000000000000004,10.81288,return,2.434925200010184,,,,,,,,,,,,,,,,,p319,23,male,left_right_width,2025-12-16_12h37.22.220,exp1,2023.1.0,59.98883008033509,
,,,,,,,,,,,,,,,,4,8.95,9.65,10.35,11.05,0,0.7,0.44999999999999996,0.25,2.3499999999999996,10,initial,36.05,323,348,373,398,0,9,9,9,9,0,,,,,,,4,0,4,0,0,13,13,24,,,,,,,,,,,,,,3,1.8385302999959094,3,0.3,0.25,9.01073,return,1.1708643999882042,,,,,,,,,,,,,,,,,p319,23,male,left_right_width,2025-12-16_12h37.22.220,exp1,2023.1.0,59.98883008033509,
,,,,,,,,,,,,,,,,3,8.9,10,11.1,0,0,1.1,0.8500000000000001,0.25,2.45,10,initial,36.05,321,361,400,0,0,9,9,9,0,0,,,,,,,4,0,4,0,0,14,14,2,,,,,,,,,,,,,,3,0.73790320000262,3,0.3,0.2,7.20859,return,2.194839100004174,,,,,,,,,,,,,,,,,p319,23,male,left_right_width,2025-12-16_12h37.22.220,exp1,2023.1.0,59.98883008033509,
,,,,,,,,,,,,,,,,5,8.35,9.175,10,10.825,11.65,0.825,0.575,0.25,3.55,10,match,36.05,301,331,361,390,420,9,9,9,9,9,,,,,,,4,0,4,0,0,15,15,20,,,,,,,,,,,,,,5,1.4696025000012014,5,0.5,0.25000000000000006,9.01073,return,2.0022829999943497,,,,,,,,,,,,,,,,,p319,23,male,left_right_width,2025-12-16_12h37.22.220,exp1,2023.1.0,59.98883008033509,
,,,,,,,,,,,,,,,,4,9.1,9.7,10.3,10.9,0,0.5999999999999999,0.3499999999999999,0.25,2.05,10,match,36.05,328,350,371,393,0,9,9,9,9,0,,,,,,,4,0,4,0,0,16,16,14,,,,,,,,,,,,,,4,1.3788133999914862,4,0.3,0.25,9.01073,return,1.3868502999976045,,,,,,,,,,,,,,,,,p319,23,male,left_right_width,2025-12-16_12h37.22.220,exp1,2023.1.0,59.98883008033509,
,,,,,,,,,,,,,,,,4,8.95,9.65,10.35,11.05,0,0.7,0.1499999999999999,0.55,2.65,10,initial,36.05,323,348,373,398,0,9,9,9,9,0,,,,,,,4,0,4,0,0,17,17,23,,,,,,,,,,,,,,4,1.849323300004471,4,0.45,0.25000000000000006,9.01073,return,2.25608099999954,,,,,,,,,,,,,,,,,p319,23,male,left_right_width,2025-12-16_12h37.22.220,exp1,2023.1.0,59.98883008033509,
,,,,,,,,,,,,,,,,4,8.35,9.45,10.55,11.65,0,1.1,0.8500000000000001,0.25,3.5500000000000003,10,initial,36.05,301,341,380,420,0,9,9,9,9,0,,,,,,,4,0,4,0,0,18,18,19,,,,,,,,,,,,,,4,0.8774803999986034,4,0.3,0.25,9.01073,return,1.2425556999951368,,,,,,,,,,,,,,,,,p319,23,male,left_right_width,2025-12-16_12h37.22.220,exp1,2023.1.0,59.98883008033509,
,,,,,,,,,,,,,,,,5,8.6,9.3,10,10.7,11.4,0.7,0.1499999999999999,0.55,3.3499999999999996,10,initial,36.05,310,335,361,386,411,9,9,9,9,9,,,,,,,4,0,4,0,0,19,19,40,,,,,,,,,,,,,,5,1.3811982000042917,5,0.25,0.2,7.20859,return,1.2616364999994403,,,,,,,,,,,,,,,,,p319,23,male,left_right_width,2025-12-16_12h37.22.220,exp1,2023.1.0,59.98883008033509,
,,,,,,,,,,,,,,,,4,8.9,9.633333333333333,10.366666666666667,11.1,0,0.7333333333333333,0.18333333333333326,0.55,2.75,10,match,36.05,321,347,374,400,0,9,9,9,9,0,,,,,,,4,0,4,0,0,20,20,1,,,,,,,,,,,,,,5,1.4915113000024576,5,0.45,0.25000000000000006,9.01073,return,2.055777300003683,,,,,,,,,,,,,,,,,p319,23,male,left_right_width,2025-12-16_12h37.22.220,exp1,2023.1.0,59.98883008033509,
,,,,,,,,,,,,,,,,4,8.95,9.65,10.35,11.05,0,0.7,0.29999999999999993,0.4,2.5,10,initial,36.05,323,348,373,398,0,9,9,9,9,0,,,,,,,4,0,4,0,0,21,21,26,,,,,,,,,,,,,,5,0.8181163999979617,5,0.25,0.3,10.81288,return,1.8245121000072686,,,,,,,,,,,,,,,,,p319,23,male,left_right_width,2025-12-16_12h37.22.220,exp1,2023.1.0,59.98883008033509,
,,,,,,,,,,,,,,,,5,7.8,8.9,10,11.1,12.2,1.1,0.8500000000000001,0.25,4.65,10,initial,36.05,281,321,361,400,440,9,9,9,9,9,,,,,,,4,0,4,0,0,22,22,36,,,,,,,,,,,,,,5,2.4940938000072492,5,0.2,0.3,10.81288,return,1.4014913999999408,,,,,,,,,,,,,,,,,p319,23,male,left_right_width,2025-12-16_12h37.22.220,exp1,2023.1.0,59.98883008033509,
,,,,,,,,,,,,,,,,5,8.2,9.1,10,10.9,11.8,0.9,0.65,0.25,3.85,10,initial,36.05,296,328,361,393,425,9,9,9,9,9,,,,,,,4,0,4,0,0,23,23,48,,,,,,,,,,,,,,5,0.9680159000126878,5,0.3,0.25,9.01073,return,1.9047026999905938,,,,,,,,,,,,,,,,,p319,23,male,left_right_width,2025-12-16_12h37.22.220,exp1,2023.1.0,59.98883008033509,
,,,,,,,,,,,,,,,,4,8.35,9.45,10.55,11.65,0,1.1,0.55,0.55,3.8500000000000005,10,initial,36.05,301,341,380,420,0,9,9,9,9,0,,,,,,,4,0,4,0,0,24,24,17,,,,,,,,,,,,,,5,0.8206061000091722,5,0.2,0.35,12.61502,return,2.3869123999902513,,,,,,,,,,,,,,,,,p319,23,male,left_right_width,2025-12-16_12h37.22.220,exp1,2023.1.0,59.98883008033509,
,,,,,,,,,,,,,,,,4,8.9,9.633333333333333,10.366666666666667,11.1,0,0.7333333333333334,0.4833333333333334,0.25,2.45,10,match,36.05,321,347,374,400,0,9,9,9,9,0,,,,,,,4,0,4,0,0,25,25,3,,,,,,,,,,,,,,4,2.1759622000099625,4,0.55,0.30000000000000004,10.81288,return,1.8318364000006113,,,,,,,,,,,,,,,,,p319,23,male,left_right_width,2025-12-16_12h37.22.220,exp1,2023.1.0,59.98883008033509,
,,,,,,,,,,,,,,,,3,8.2,10,11.8,0,0,1.8,1.25,0.55,4.15,10,match,36.05,296,361,425,0,0,9,9,9,0,0,,,,,,,4,0,4,0,0,26,26,47,,,,,,,,,,,,,,3,2.2100443999952404,3,0.35,0.3,10.81288,return,1.2086167999950703,,,,,,,,,,,,,,,,,p319,23,male,left_right_width,2025-12-16_12h37.22.220,exp1,2023.1.0,59.98883008033509,
,,,,,,,,,,,,,,,,5,8.275,9.1375,10,10.8625,11.725,0.8625,0.6125,0.25,3.7,10,match,36.05,298,329,361,392,423,9,9,9,9,9,,,,,,,4,0,4,0,0,27,27,22,,,,,,,,,,,,,,4,1.5730530000000726,4,0.2,0.3,10.81288,return,1.9105866000027163,,,,,,,,,,,,,,,,,p319,23,male,left_right_width,2025-12-16_12h37.22.220,exp1,2023.1.0,59.98883008033509,
,,,,,,,,,,,,,,,,4,9.3,9.766666666666667,10.233333333333333,10.7,0,0.4666666666666667,0.21666666666666665,0.25,1.65,10,match,36.05,335,352,369,386,0,9,9,9,9,0,,,,,,,4,0,4,0,0,28,28,8,,,,,,,,,,,,,,4,1.9302136000042083,4,0.45,0.20000000000000007,7.20859,return,1.5646548000077019,,,,,,,,,,,,,,,,,p319,23,male,left_right_width,2025-12-16_12h37.22.220,exp1,2023.1.0,59.98883008033509,
,,,,,,,,,,,,,,,,3,9.1,10,10.9,0,0,0.9,0.5,0.4,2.2,10,initial,36.05,328,361,393,0,0,9,9,9,0,0,,,,,,,4,0,4,0,0,29,29,15,,,,,,,,,,,,,,3,1.2220374000025913,3,0.2,0.3,10.81288,return,1.6365177999978187,,,,,,,,,,,,,,,,,p319,23,male,left_right_width,2025-12-16_12h37.22.220,exp1,2023.1.0,59.98883008033509,
,,,,,,,,,,,,,,,,3,9.3,10,10.7,0,0,0.7,0.1499999999999999,0.55,1.95,10,initial,36.05,335,361,386,0,0,9,9,9,0,0,,,,,,,4,0,4,0,0,30,30,6,,,,,,,,,,,,,,4,1.2225314999959664,4,0.45,0.30000000000000004,10.81288,return,1.7484179000020958,,,,,,,,,,,,,,,,,p319,23,male,left_right_width,2025-12-16_12h37.22.220,exp1,2023.1.0,59.98883008033509,
,,,,,,,,,,,,,,,,3,8.9,10,11.1,0,0,1.1,0.7000000000000001,0.4,2.6000000000000005,10,initial,36.05,321,361,400,0,0,9,9,9,0,0,,,,,,,4,0,4,0,0,31,31,4,,,,,,,,,,,,,,3,1.1119246000016574,3,0.4,0.30000000000000004,10.81288,return,2.202590400003828,,,,,,,,,,,,,,,,,p319,23,male,left_right_width,2025-12-16_12h37.22.220,exp1,2023.1.0,59.98883008033509,
,,,,,,,,,,,,,,,,3,7.8,10,12.2,0,0,2.2,1.65,0.55,4.95,10,match,36.05,281,361,440,0,0,9,9,9,0,0,,,,,,,4,0,4,0,0,32,32,35,,,,,,,,,,,,,,3,1.0428956000105245,3,0.3,0.39999999999999997,14.41717,return,1.4324473000015132,,,,,,,,,,,,,,,,,p319,23,male,left_right_width,2025-12-16_12h37.22.220,exp1,2023.1.0,59.98883008033509,
,,,,,,,,,,,,,,,,5,8.95,9.475,10,10.525,11.05,0.525,0.275,0.25,2.35,10,match,36.05,323,342,361,379,398,9,9,9,9,9,,,,,,,4,0,4,0,0,33,33,25,,,,,,,,,,,,,,6,2.0225753000122495,6,0.5,0.30000000000000004,10.81288,return,1.6840762000065297,,,,,,,,,,,,,,,,,p319,23,male,left_right_width,2025-12-16_12h37.22.220,exp1,2023.1.0,59.98883008033509,
,,,,,,,,,,,,,,,,4,8.825,9.608333333333333,10.391666666666667,11.175,0,0.7833333333333333,0.5333333333333333,0.25,2.6,10,match,36.05,318,346,375,403,0,9,9,9,9,0,,,,,,,4,0,4,0,0,34,34,5,,,,,,,,,,,,,,4,1.3809885999944527,4,0.3,0.25,9.01073,return,1.2127327999914996,,,,,,,,,,,,,,,,,p319,23,male,left_right_width,2025-12-16_12h37.22.220,exp1,2023.1.0,59.98883008033509,
,,,,,,,,,,,,,,,,4,8.65,9.55,10.45,11.35,0,0.9,0.65,0.25,2.95,10,initial,36.05,312,344,377,409,0,9,9,9,9,0,,,,,,,4,0,4,0,0,35,35,30,,,,,,,,,,,,,,4,1.3526524000044446,4,0.3,0.25,9.01073,return,2.129780200004461,,,,,,,,,,,,,,,,,p319,23,male,left_right_width,2025-12-16_12h37.22.220,exp1,2023.1.0,59.98883008033509,
,,,,,,,,,,,,,,,,3,8.525,10,11.475,0,0,1.475,1.225,0.25,3.2,10,match,36.05,307,361,414,0,0,9,9,9,0,0,,,,,,,4,0,4,0,0,36,36,45,,,,,,,,,,,,,,3,1.7542462999990676,3,0.3,0.25,9.01073,return,1.3628042000054847,,,,,,,,,,,,,,,,,p319,23,male,left_right_width,2025-12-16_12h37.22.220,exp1,2023.1.0,59.98883008033509,
,,,,,,,,,,,,,,,,5,8.2,9.1,10,10.9,11.8,0.9,0.5,0.4,4,10,initial,36.05,296,328,361,393,425,9,9,9,9,9,,,,,,,4,0,4,0,0,37,37,50,,,,,,,,,,,,,,5,1.3158588000078453,5,0.35,0.3,10.81288,return,1.2608614999917336,,,,,,,,,,,,,,,,,p319,23,male,left_right_width,2025-12-16_12h37.22.220,exp1,2023.1.0,59.98883008033509,
,,,,,,,,,,,,,,,,3,7.8,10,12.2,0,0,2.2,1.9500000000000002,0.25,4.65,10,match,36.05,281,361,440,0,0,9,9,9,0,0,,,,,,,4,0,4,0,0,38,38,37,,,,,,,,,,,,,,3,1.2769738999922993,3,0.25,0.25,9.01073,return,0.8408627000026172,,,,,,,,,,,,,,,,,p319,23,male,left_right_width,2025-12-16_12h37.22.220,exp1,2023.1.0,59.98883008033509,
,,,,,,,,,,,,,,,,3,8.2,10,11.8,0,0,1.8,1.55,0.25,3.85,10,match,36.05,296,361,425,0,0,9,9,9,0,0,,,,,,,4,0,4,0,0,39,39,49,,,,,,,,,,,,,,3,0.551293500000611,3,0.5,0.25000000000000006,9.01073,return,2.144926499997382,,,,,,,,,,,,,,,,,p319,23,male,left_right_width,2025-12-16_12h37.22.220,exp1,2023.1.0,59.98883008033509,
,,,,,,,,,,,,,,,,5,8.65,9.325,10,10.675,11.35,0.675,0.275,0.4,3.1,10,match,36.05,312,336,361,385,409,9,9,9,9,9,,,,,,,4,0,4,0,0,40,40,33,,,,,,,,,,,,,,5,1.1489120999904117,5,0.35,0.25,9.01073,return,2.2863656999979867,,,,,,,,,,,,,,,,,p319,23,male,left_right_width,2025-12-16_12h37.22.220,exp1,2023.1.0,59.98883008033509,
,,,,,,,,,,,,,,,,3,8.6,10,11.4,0,0,1.4,1.15,0.25,3.05,10,match,36.05,310,361,411,0,0,9,9,9,0,0,,,,,,,4,0,4,0,0,41,41,43,,,,,,,,,,,,,,3,1.0949817999935476,3,0.25,0.25,9.01073,return,1.0008496000082232,,,,,,,,,,,,,,,,,p319,23,male,left_right_width,2025-12-16_12h37.22.220,exp1,2023.1.0,59.98883008033509,
,,,,,,,,,,,,,,,,3,8.2,10,11.8,0,0,1.7999999999999998,1.4,0.4,4,10,match,36.05,296,361,425,0,0,9,9,9,0,0,,,,,,,4,0,4,0,0,42,42,51,,,,,,,,,,,,,,3,1.4808113000035519,3,0.55,0.4,14.41717,return,1.8041599999996834,,,,,,,,,,,,,,,,,p319,23,male,left_right_width,2025-12-16_12h37.22.220,exp1,2023.1.0,59.98883008033509,
,,,,,,,,,,,,,,,,5,8.95,9.475,10,10.525,11.05,0.525,0.125,0.4,2.5,10,match,36.05,323,342,361,379,398,9,9,9,9,9,,,,,,,4,0,4,0,0,43,43,27,,,,,,,,,,,,,,5,1.7825903000048129,5,0.4,0.35000000000000003,12.61502,return,2.1259381999989273,,,,,,,,,,,,,,,,,p319,23,male,left_right_width,2025-12-16_12h37.22.220,exp1,2023.1.0,59.98883008033509,
,,,,,,,,,,,,,,,,5,8.6,9.3,10,10.7,11.4,0.7,0.29999999999999993,0.4,3.1999999999999997,10,initial,36.05,310,335,361,386,411,9,9,9,9,9,,,,,,,4,0,4,0,0,44,44,44,,,,,,,,,,,,,,5,1.65786140000273,5,0.4,0.35000000000000003,12.61502,return,2.0863132999947993,,,,,,,,,,,,,,,,,p319,23,male,left_right_width,2025-12-16_12h37.22.220,exp1,2023.1.0,59.98883008033509,
,,,,,,,,,,,,,,,,5,8.35,9.175,10,10.825,11.65,0.8250000000000001,0.275,0.55,3.85,10,match,36.05,301,331,361,390,420,9,9,9,9,9,,,,,,,4,0,4,0,0,45,45,18,,,,,,,,,,,,,,5,1.7533936999971047,5,0.4,0.35000000000000003,12.61502,return,1.0896008999989135,,,,,,,,,,,,,,,,,p319,23,male,left_right_width,2025-12-16_12h37.22.220,exp1,2023.1.0,59.98883008033509,
,,,,,,,,,,,,,,,,4,8.65,9.55,10.45,11.35,0,0.9,0.35,0.55,3.25,10,initial,36.05,312,344,377,409,0,9,9,9,9,0,,,,,,,4,0,4,0,0,46,46,28,,,,,,,,,,,,,,5,2.167969500005711,5,0.2,0.35,12.61502,return,2.2079890000022715,,,,,,,,,,,,,,,,,p319,23,male,left_right_width,2025-12-16_12h37.22.220,exp1,2023.1.0,59.98883008033509,
,,,,,,,,,,,,,,,,4,9.1,9.7,10.3,10.9,0,0.6000000000000001,0.20000000000000004,0.4,2.2,10,match,36.05,328,350,371,393,0,9,9,9,9,0,,,,,,,4,0,4,0,0,47,47,16,,,,,,,,,,,,,,4,1.3324190999992425,4,0.25,0.39999999999999997,14.41717,return,3.0221565999963786,,,,,,,,,,,,,,,,,p319,23,male,left_right_width,2025-12-16_12h37.22.220,exp1,2023.1.0,59.98883008033509,
,,,,,,,,,,,,,,,,5,8.6,9.3,10,10.7,11.4,0.7,0.44999999999999996,0.25,3.05,10,initial,36.05,310,335,361,386,411,9,9,9,9,9,,,,,,,4,0,4,0,0,48,48,42,,,,,,,,,,,,,,5,1.2127672999922652,5,0.45,0.35000000000000003,12.61502,return,1.3393990000040503,,,,,,,,,,,,,,,,,p319,23,male,left_right_width,2025-12-16_12h37.22.220,exp1,2023.1.0,59.98883008033509,
,,,,,,,,,,,,,,,,3,9.3,10,10.7,0,0,0.7,0.44999999999999996,0.25,1.65,10,initial,36.05,335,361,386,0,0,9,9,9,0,0,,,,,,,4,0,4,0,0,49,49,7,,,,,,,,,,,,,,3,1.2599567999859573,3,0.4,0.30000000000000004,10.81288,return,1.7054509000008693,,,,,,,,,,,,,,,,,p319,23,male,left_right_width,2025-12-16_12h37.22.220,exp1,2023.1.0,59.98883008033509,
,,,,,,,,,,,,,,,,5,7.8,8.9,10,11.1,12.2,1.1,0.55,0.55,4.95,10,initial,36.05,281,321,361,400,440,9,9,9,9,9,,,,,,,4,0,4,0,0,50,50,34,,,,,,,,,,,,,,5,1.575911799998721,5,0.35,0.39999999999999997,14.41717,return,1.464369599998463,,,,,,,,,,,,,,,,,p319,23,male,left_right_width,2025-12-16_12h37.22.220,exp1,2023.1.0,59.98883008033509,
,,,,,,,,,,,,,,,,4,8.35,9.45,10.55,11.65,0,1.1,0.7000000000000001,0.4,3.7,10,initial,36.05,301,341,380,420,0,9,9,9,9,0,,,,,,,4,0,4,0,0,51,51,21,,,,,,,,,,,,,,5,2.665989200002514,5,0.25,0.39999999999999997,14.41717,return,1.8709345000097528,,,,,,,,,,,,,,,,,p319,23,male,left_right_width,2025-12-16_12h37.22.220,exp1,2023.1.0,59.98883008033509,
,,,,,,,,,,,,,,,,,,,,,,,,,,,,,,,,,,,,,,,,,,,,,4,0,4,0,,,,,,,,,,,,,,,,,,,,,,,,,,,,1699.8109666999953,1699.8109666999953,1699.8109666999953,,,,,,,,,,,,p319,23,male,left_right_width,2025-12-16_12h37.22.220,exp1,2023.1.0,59.98883008033509,
,,,,,,,,,,,,,,,,5,8.35,9.175,10,10.825,11.65,0.825,0.575,0.25,3.55,10,match,36.05,301,331,361,390,420,9,9,9,9,9,,,,,,,5,0,5,0,0,0,0,20,,,,,,,,,,,,,,4,1.7230190000118455,4,0.35,0.39999999999999997,14.41717,return,2.068861300009303,,,,,,,,,,,,,,,,,p319,23,male,left_right_width,2025-12-16_12h37.22.220,exp1,2023.1.0,59.98883008033509,
,,,,,,,,,,,,,,,,4,8.95,9.65,10.35,11.05,0,0.7,0.29999999999999993,0.4,2.5,10,initial,36.05,323,348,373,398,0,9,9,9,9,0,,,,,,,5,0,5,0,0,1,1,26,,,,,,,,,,,,,,5,1.5662103999929968,5,0.55,0.4,14.41717,return,1.4713215000083437,,,,,,,,,,,,,,,,,p319,23,male,left_right_width,2025-12-16_12h37.22.220,exp1,2023.1.0,59.98883008033509,
,,,,,,,,,,,,,,,,4,8.35,9.45,10.55,11.65,0,1.1,0.7000000000000001,0.4,3.7,10,initial,36.05,301,341,380,420,0,9,9,9,9,0,,,,,,,5,0,5,0,0,2,2,21,,,,,,,,,,,,,,5,1.6402737000025809,5,0.4,0.4,14.41717,return,0.9968532999919262,,,,,,,,,,,,,,,,,p319,23,male,left_right_width,2025-12-16_12h37.22.220,exp1,2023.1.0,59.98883008033509,
,,,,,,,,,,,,,,,,5,8.6,9.3,10,10.7,11.4,0.7,0.44999999999999996,0.25,3.05,10,initial,36.05,310,335,361,386,411,9,9,9,9,9,,,,,,,5,0,5,0,0,3,3,42,,,,,,,,,,,,,,5,0.8641351999976905,5,0.35,0.3,10.81288,return,0.9722537000052398,,,,,,,,,,,,,,,,,p319,23,male,left_right_width,2025-12-16_12h37.22.220,exp1,2023.1.0,59.98883008033509,
,,,,,,,,,,,,,,,,3,7.8,10,12.2,0,0,2.2,1.65,0.55,4.95,10,match,36.05,281,361,440,0,0,9,9,9,0,0,,,,,,,5,0,5,0,0,4,4,35,,,,,,,,,,,,,,4,1.0911804999923334,4,0.5,0.30000000000000004,10.81288,return,1.8310214999946766,,,,,,,,,,,,,,,,,p319,23,male,left_right_width,2025-12-16_12h37.22.220,exp1,2023.1.0,59.98883008033509,
,,,,,,,,,,,,,,,,5,7.8,8.9,10,11.1,12.2,1.1,0.8500000000000001,0.25,4.65,10,initial,36.05,281,321,361,400,440,9,9,9,9,9,,,,,,,5,0,5,0,0,5,5,36,,,,,,,,,,,,,,5,0.9746118999901228,5,0.55,0.35000000000000003,12.61502,return,2.0547014999901876,,,,,,,,,,,,,,,,,p319,23,male,left_right_width,2025-12-16_12h37.22.220,exp1,2023.1.0,59.98883008033509,
,,,,,,,,,,,,,,,,4,9.1,9.7,10.3,10.9,0,0.6,0.04999999999999997,0.55,2.35,10,match,36.05,328,350,371,393,0,9,9,9,9,0,,,,,,,5,0,5,0,0,6,6,12,,,,,,,,,,,,,,4,0.9393438999977661,4,0.45,0.45,16.21932,return,2.116221999996924,,,,,,,,,,,,,,,,,p319,23,male,left_right_width,2025-12-16_12h37.22.220,exp1,2023.1.0,59.98883008033509,
,,,,,,,,,,,,,,,,3,8.9,10,11.1,0,0,1.1,0.7000000000000001,0.4,2.6000000000000005,10,initial,36.05,321,361,400,0,0,9,9,9,0,0,,,,,,,5,0,5,0,0,7,7,4,,,,,,,,,,,,,,3,1.213605600001756,3,0.5,0.35000000000000003,12.61502,return,1.3875614999997197,,,,,,,,,,,,,,,,,p319,23,male,left_right_width,2025-12-16_12h37.22.220,exp1,2023.1.0,59.98883008033509,
,,,,,,,,,,,,,,,,3,9.1,10,10.9,0,0,0.9,0.35,0.55,2.35,10,initial,36.05,328,361,393,0,0,9,9,9,0,0,,,,,,,5,0,5,0,0,8,8,11,,,,,,,,,,,,,,3,0.8682130000088364,3,0.25,0.35,12.61502,return,1.3774288999993587,,,,,,,,,,,,,,,,,p319,23,male,left_right_width,2025-12-16_12h37.22.220,exp1,2023.1.0,59.98883008033509,
,,,,,,,,,,,,,,,,4,8.95,9.65,10.35,11.05,0,0.7,0.44999999999999996,0.25,2.3499999999999996,10,initial,36.05,323,348,373,398,0,9,9,9,9,0,,,,,,,5,0,5,0,0,9,9,24,,,,,,,,,,,,,,3,0.7794423000013921,3,0.2,0.3,10.81288,return,1.9141495999938343,,,,,,,,,,,,,,,,,p319,23,male,left_right_width,2025-12-16_12h37.22.220,exp1,2023.1.0,59.98883008033509,
,,,,,,,,,,,,,,,,3,9.3,10,10.7,0,0,0.7,0.29999999999999993,0.4,1.8,10,initial,36.05,335,361,386,0,0,9,9,9,0,0,,,,,,,5,0,5,0,0,10,10,9,,,,,,,,,,,,,,3,0.6236530999885872,3,0.5,0.35000000000000003,12.61502,return,1.8297014000127092,,,,,,,,,,,,,,,,,p319,23,male,left_right_width,2025-12-16_12h37.22.220,exp1,2023.1.0,59.98883008033509,
,,,,,,,,,,,,,,,,3,9.1,10,10.9,0,0,0.9,0.65,0.25,2.05,10,initial,36.05,328,361,393,0,0,9,9,9,0,0,,,,,,,5,0,5,0,0,11,11,13,,,,,,,,,,,,,,3,0.4579211999953259,3,0.25,0.3,10.81288,return,1.7823244000028353,,,,,,,,,,,,,,,,,p319,23,male,left_right_width,2025-12-16_12h37.22.220,exp1,2023.1.0,59.98883008033509,
,,,,,,,,,,,,,,,,3,8.6,10,11.4,0,0,1.4,1.15,0.25,3.05,10,match,36.05,310,361,411,0,0,9,9,9,0,0,,,,,,,5,0,5,0,0,12,12,43,,,,,,,,,,,,,,3,0.4561585999908857,3,0.4,0.20000000000000007,7.20859,return,1.3009300000121584,,,,,,,,,,,,,,,,,p319,23,male,left_right_width,2025-12-16_12h37.22.220,exp1,2023.1.0,59.98883008033509,
,,,,,,,,,,,,,,,,5,8.95,9.475,10,10.525,11.05,0.525,0.275,0.25,2.35,10,match,36.05,323,342,361,379,398,9,9,9,9,9,,,,,,,5,0,5,0,0,13,13,25,,,,,,,,,,,,,,6,2.030684500001371,6,0.55,0.30000000000000004,10.81288,return,2.0609876999951666,,,,,,,,,,,,,,,,,p319,23,male,left_right_width,2025-12-16_12h37.22.220,exp1,2023.1.0,59.98883008033509,
,,,,,,,,,,,,,,,,5,8.2,9.1,10,10.9,11.8,0.9,0.65,0.25,3.85,10,initial,36.05,296,328,361,393,425,9,9,9,9,9,,,,,,,5,0,5,0,0,14,14,48,,,,,,,,,,,,,,5,1.325323400000343,5,0.2,0.25,9.01073,return,1.1913113999908092,,,,,,,,,,,,,,,,,p319,23,male,left_right_width,2025-12-16_12h37.22.220,exp1,2023.1.0,59.98883008033509,
,,,,,,,,,,,,,,,,4,8.9,9.633333333333333,10.366666666666667,11.1,0,0.7333333333333333,0.18333333333333326,0.55,2.75,10,match,36.05,321,347,374,400,0,9,9,9,9,0,,,,,,,5,0,5,0,0,15,15,1,,,,,,,,,,,,,,4,1.476491100009298,4,0.4,0.35000000000000003,12.61502,return,1.176745699995081,,,,,,,,,,,,,,,,,p319,23,male,left_right_width,2025-12-16_12h37.22.220,exp1,2023.1.0,59.98883008033509,
,,,,,,,,,,,,,,,,5,8.2,9.1,10,10.9,11.8,0.9,0.5,0.4,4,10,initial,36.05,296,328,361,393,425,9,9,9,9,9,,,,,,,5,0,5,0,0,16,16,50,,,,,,,,,,,,,,5,1.1301608000067063,5,0.45,0.35000000000000003,12.61502,return,1.2441379999945639,,,,,,,,,,,,,,,,,p319,23,male,left_right_width,2025-12-16_12h37.22.220,exp1,2023.1.0,59.98883008033509,
,,,,,,,,,,,,,,,,5,8.95,9.475,10,10.525,11.05,0.525,0.125,0.4,2.5,10,match,36.05,323,342,361,379,398,9,9,9,9,9,,,,,,,5,0,5,0,0,17,17,27,,,,,,,,,,,,,,4,1.5594853999937186,4,0.4,0.35000000000000003,12.61502,return,0.9993963000015356,,,,,,,,,,,,,,,,,p319,23,male,left_right_width,2025-12-16_12h37.22.220,exp1,2023.1.0,59.98883008033509,
,,,,,,,,,,,,,,,,4,8.35,9.45,10.55,11.65,0,1.1,0.55,0.55,3.8500000000000005,10,initial,36.05,301,341,380,420,0,9,9,9,9,0,,,,,,,5,0,5,0,0,18,18,17,,,,,,,,,,,,,,5,1.272803699990618,5,0.35,0.39999999999999997,14.41717,return,1.2227891999937128,,,,,,,,,,,,,,,,,p319,23,male,left_right_width,2025-12-16_12h37.22.220,exp1,2023.1.0,59.98883008033509,
,,,,,,,,,,,,,,,,4,8.65,9.55,10.45,11.35,0,0.9,0.65,0.25,2.95,10,initial,36.05,312,344,377,409,0,9,9,9,9,0,,,,,,,5,0,5,0,0,19,19,30,,,,,,,,,,,,,,4,1.121906600004877,4,0.5,0.30000000000000004,10.81288,return,1.7635582000075374,,,,,,,,,,,,,,,,,p319,23,male,left_right_width,2025-12-16_12h37.22.220,exp1,2023.1.0,59.98883008033509,
,,,,,,,,,,,,,,,,4,8.95,9.65,10.35,11.05,0,0.7,0.1499999999999999,0.55,2.65,10,initial,36.05,323,348,373,398,0,9,9,9,9,0,,,,,,,5,0,5,0,0,20,20,23,,,,,,,,,,,,,,4,1.5519861000066157,4,0.5,0.45,16.21932,return,1.264077100000577,,,,,,,,,,,,,,,,,p319,23,male,left_right_width,2025-12-16_12h37.22.220,exp1,2023.1.0,59.98883008033509,
,,,,,,,,,,,,,,,,3,9.3,10,10.7,0,0,0.7,0.44999999999999996,0.25,1.65,10,initial,36.05,335,361,386,0,0,9,9,9,0,0,,,,,,,5,0,5,0,0,21,21,7,,,,,,,,,,,,,,3,1.3237114999938058,3,0.5,0.30000000000000004,10.81288,return,2.052841400000034,,,,,,,,,,,,,,,,,p319,23,male,left_right_width,2025-12-16_12h37.22.220,exp1,2023.1.0,59.98883008033509,
,,,,,,,,,,,,,,,,4,8.35,9.45,10.55,11.65,0,1.1,0.8500000000000001,0.25,3.5500000000000003,10,initial,36.05,301,341,380,420,0,9,9,9,9,0,,,,,,,5,0,5,0,0,22,22,19,,,,,,,,,,,,,,4,1.7535024999961024,4,0.4,0.30000000000000004,10.81288,return,1.8752186999918194,,,,,,,,,,,,,,,,,p319,23,male,left_right_width,2025-12-16_12h37.22.220,exp1,2023.1.0,59.98883008033509,
,,,,,,,,,,,,,,,,5,8.2,9.1,10,10.9,11.8,0.9,0.35,0.55,4.15,10,initial,36.05,296,328,361,393,425,9,9,9,9,9,,,,,,,5,0,5,0,0,23,23,46,,,,,,,,,,,,,,5,1.134718300003442,5,0.3,0.35,12.61502,return,1.3920133000065107,,,,,,,,,,,,,,,,,p319,23,male,left_right_width,2025-12-16_12h37.22.220,exp1,2023.1.0,59.98883008033509,
,,,,,,,,,,,,,,,,3,8.2,10,11.8,0,0,1.8,1.55,0.25,3.85,10,match,36.05,296,361,425,0,0,9,9,9,0,0,,,,,,,5,0,5,0,0,24,24,49,,,,,,,,,,,,,,3,1.370092700002715,3,0.2,0.35,12.61502,return,1.4573385999974562,,,,,,,,,,,,,,,,,p319,23,male,left_right_width,2025-12-16_12h37.22.220,exp1,2023.1.0,59.98883008033509,
