amount_p,posx1_p,posx2_p,posx3_p,posx4_p,posx5_p,center_to_center_p,edge_to_edge_p,w_p,stim_lengt_p,eccentricity_p,line1_p,line2_p,line3_p,line4_p,line5_p,amount,posx1,posx2,posx3,posx4,posx5,center_to_center,edge_to_edge,w,stim_length,eccentricity,trial_type,deg_to_pix_index,posx1_in_pix,posx2_in_pix,posx3_in_pix,posx4_in_pix,posx5_in_pix,line1,line2,line3,line4,line5,posx,setsize_cobdi,trials.thisRepN,trials.thisTrialN,trials.thisN,trials.thisIndex,blocks.thisRepN,blocks.thisTrialN,blocks.thisN,blocks.thisIndex,loop.thisRepN,loop.thisTrialN,loop.thisN,loop.thisIndex,first.thisRepN,first.thisTrialN,first.thisN,first.thisIndex,second.thisRepN,second.thisTrialN,second.thisN,second.thisIndex,thisRow.t,notes,key_resp_3.started,key_resp_3.keys,key_resp_3.rt,key_resp.keys,key_resp.rt,response,starting_width_deg,response_width_degree,response_width_pixel,next_5.keys,next_5.rt,key_resp_4.keys,key_resp_4.rt,text_3.started,text_4.started,key_resp_2.started,text_2.started,key_resp_2.keys,key_resp_2.rt,adjusting.started,next.keys,next.rt,text_control2.started,key_resp.started,key_resp.corr,text_bye.started,text_bye.stopped,participant,age,gender,resp_group,date,expName,psychopyVersion,frameRate,
,,,,,,,,,,,,,,,,,,,,,,,,,,,,,,,,,,,,,,,,,,,,,,,,,,,,,,,,,,,,,,,1606.8350418000482,c,178.8062762999907,,,,,,,,,,,,,,,,,,,,,,,,,p320,22,female,up_down_width,2025-12-19_08h01.25.920,exp1,2023.1.0,59.99430056789012,
3,9.5,10,10.5,0,0,0.5,0.4,0.1,1.1,10,9,9,9,0,0,,,,,,,,,,,,,,,,,,,,,,,,,,0,0,0,0,,,,,,,,,,,,,,,,,,,,,,2,3.0855420000152662,2,0.45,0.20000000000000007,7.20859,return,4.0970703000202775,,,,,,,,,,,,,,,,,p320,22,female,up_down_width,2025-12-19_08h01.25.920,exp1,2023.1.0,59.99430056789012,
5,9.25,9.625,10,10.375,10.75,0.375,0.125,0.25,1.75,10,9,9,9,9,9,,,,,,,,,,,,,,,,,,,,,,,,,,0,1,1,6,,,,,,,,,,,,,,,,,,,,,,3,1.3181859001051635,3,0.55,0.15000000000000008,5.40644,return,2.7696664000395685,,,,,,,,,,,,,,,,,p320,22,female,up_down_width,2025-12-19_08h01.25.920,exp1,2023.1.0,59.99430056789012,
4,8.65,9.55,10.45,11.35,0,0.9,0.5,0.4,3.1,10,9,9,9,9,0,,,,,,,,,,,,,,,,,,,,,,,,,,0,2,2,5,,,,,,,,,,,,,,,,,,,,,,3,1.1612797999987379,3,0.25,0.39999999999999997,14.41717,return,3.290220099966973,,,,,,,,,,,,,,,,,p320,22,female,up_down_width,2025-12-19_08h01.25.920,exp1,2023.1.0,59.99430056789012,
5,8.6,9.3,10,10.7,11.4,0.7,0.29999999999999993,0.4,3.1999999999999997,10,9,9,9,9,9,,,,,,,,,,,,,,,,,,,,,,,,,,0,3,3,7,,,,,,,,,,,,,,,,,,,,,,3,1.3044356000609696,3,0.25,0.3,10.81288,return,1.0434856999199837,,,,,,,,,,,,,,,,,p320,22,female,up_down_width,2025-12-19_08h01.25.920,exp1,2023.1.0,59.99430056789012,
4,9.5,9.833333333333334,10.166666666666666,10.5,0,0.33333333333333337,0.23333333333333336,0.1,1.1,10,9,9,9,9,0,,,,,,,,,,,,,,,,,,,,,,,,,,0,4,4,3,,,,,,,,,,,,,,,,,,,,,,3,1.0050512999296188,3,0.55,0.25000000000000006,9.01073,return,2.084364300011657,,,,,,,,,,,,,,,,,p320,22,female,up_down_width,2025-12-19_08h01.25.920,exp1,2023.1.0,59.99430056789012,
5,9,9.5,10,10.5,11,0.5,0.09999999999999998,0.4,2.4,10,9,9,9,9,9,,,,,,,,,,,,,,,,,,,,,,,,,,0,5,5,8,,,,,,,,,,,,,,,,,,,,,,3,0.8812791999662295,3,0.55,0.55,19.82361,return,1.1330017000436783,,,,,,,,,,,,,,,,,p320,22,female,up_down_width,2025-12-19_08h01.25.920,exp1,2023.1.0,59.99430056789012,
3,8.2,10,11.8,0,0,1.7999999999999998,1.4,0.4,4,10,9,9,9,0,0,,,,,,,,,,,,,,,,,,,,,,,,,,0,6,6,2,,,,,,,,,,,,,,,,,,,,,,3,0.6953324000351131,3,0.4,0.35000000000000003,12.61502,return,2.7146482000825927,,,,,,,,,,,,,,,,,p320,22,female,up_down_width,2025-12-19_08h01.25.920,exp1,2023.1.0,59.99430056789012,
4,9.25,9.75,10.25,10.75,0,0.5,0.25,0.25,1.75,10,9,9,9,9,0,,,,,,,,,,,,,,,,,,,,,,,,,,0,7,7,4,,,,,,,,,,,,,,,,,,,,,,3,0.8017757000634447,3,0.45,0.30000000000000004,10.81288,return,1.2799288000678644,,,,,,,,,,,,,,,,,p320,22,female,up_down_width,2025-12-19_08h01.25.920,exp1,2023.1.0,59.99430056789012,
3,9,10,11,0,0,1,0.9,0.1,2.1,10,9,9,9,0,0,,,,,,,,,,,,,,,,,,,,,,,,,,0,8,8,1,,,,,,,,,,,,,,,,,,,,,,3,0.8261308999499306,3,0.35,0.10000000000000002,3.60429,return,1.655798500054516,,,,,,,,,,,,,,,,,p320,22,female,up_down_width,2025-12-19_08h01.25.920,exp1,2023.1.0,59.99430056789012,
,,,,,,,,,,,,,,,,,,,,,,,,,,,,,,,,,,,,,,,,,,,,,,,,,,,,,,,,,,,,,,,,,,,,,,,,,,c,77.89190889999736,,,,,,,,,,,,,,,p320,22,female,up_down_width,2025-12-19_08h01.25.920,exp1,2023.1.0,59.99430056789012,
,,,,,,,,,,,,,,,,4,8.35,9.45,10.55,11.65,0,1.1,0.7000000000000001,0.4,3.7,10,initial,36.05,301,341,380,420,0,9,9,9,9,0,,,,,,,0,0,0,0,0,0,0,21,,,,,,,,,,,,,,3,0.9515054000075907,3,0.4,0.35000000000000003,12.61502,return,1.536346499924548,,,,,,,,,,,,,,,,,p320,22,female,up_down_width,2025-12-19_08h01.25.920,exp1,2023.1.0,59.99430056789012,
,,,,,,,,,,,,,,,,3,8.2,10,11.8,0,0,1.7999999999999998,1.4,0.4,4,10,match,36.05,296,361,425,0,0,9,9,9,0,0,,,,,,,0,0,0,0,0,1,1,51,,,,,,,,,,,,,,3,0.4449505000375211,3,0.35,0.39999999999999997,14.41717,return,0.8263635000912473,,,,,,,,,,,,,,,,,p320,22,female,up_down_width,2025-12-19_08h01.25.920,exp1,2023.1.0,59.99430056789012,
,,,,,,,,,,,,,,,,5,8.35,9.175,10,10.825,11.65,0.825,0.575,0.25,3.55,10,match,36.05,301,331,361,390,420,9,9,9,9,9,,,,,,,0,0,0,0,0,2,2,20,,,,,,,,,,,,,,4,0.7473334000678733,4,0.55,0.30000000000000004,10.81288,return,1.6935885000275448,,,,,,,,,,,,,,,,,p320,22,female,up_down_width,2025-12-19_08h01.25.920,exp1,2023.1.0,59.99430056789012,
,,,,,,,,,,,,,,,,5,8.35,9.175,10,10.825,11.65,0.8250000000000001,0.275,0.55,3.85,10,match,36.05,301,331,361,390,420,9,9,9,9,9,,,,,,,0,0,0,0,0,3,3,18,,,,,,,,,,,,,,4,0.5495824000099674,4,0.35,0.35,12.61502,return,0.7188783000456169,,,,,,,,,,,,,,,,,p320,22,female,up_down_width,2025-12-19_08h01.25.920,exp1,2023.1.0,59.99430056789012,
,,,,,,,,,,,,,,,,3,8.9,10,11.1,0,0,1.1,0.7000000000000001,0.4,2.6000000000000005,10,initial,36.05,321,361,400,0,0,9,9,9,0,0,,,,,,,0,0,0,0,0,4,4,4,,,,,,,,,,,,,,3,0.8120665999595076,3,0.4,0.35000000000000003,12.61502,return,1.0342859999509528,,,,,,,,,,,,,,,,,p320,22,female,up_down_width,2025-12-19_08h01.25.920,exp1,2023.1.0,59.99430056789012,
,,,,,,,,,,,,,,,,3,7.800000000000001,10,12.2,0,0,2.1999999999999997,1.7999999999999998,0.4,4.8,10,match,36.05,281,361,440,0,0,9,9,9,0,0,,,,,,,0,0,0,0,0,5,5,39,,,,,,,,,,,,,,3,0.562356699956581,3,0.4,0.4,14.41717,return,0.6182718999916688,,,,,,,,,,,,,,,,,p320,22,female,up_down_width,2025-12-19_08h01.25.920,exp1,2023.1.0,59.99430056789012,
,,,,,,,,,,,,,,,,3,9.1,10,10.9,0,0,0.9,0.35,0.55,2.35,10,initial,36.05,328,361,393,0,0,9,9,9,0,0,,,,,,,0,0,0,0,0,6,6,11,,,,,,,,,,,,,,3,0.6238350999774411,3,0.2,0.6,21.62576,return,1.7330674999393523,,,,,,,,,,,,,,,,,p320,22,female,up_down_width,2025-12-19_08h01.25.920,exp1,2023.1.0,59.99430056789012,
,,,,,,,,,,,,,,,,5,8.2,9.1,10,10.9,11.8,0.9,0.35,0.55,4.15,10,initial,36.05,296,328,361,393,425,9,9,9,9,9,,,,,,,0,0,0,0,0,7,7,46,,,,,,,,,,,,,,3,0.32800779992248863,3,0.45,0.7000000000000002,25.23005,return,1.3847951999632642,,,,,,,,,,,,,,,,,p320,22,female,up_down_width,2025-12-19_08h01.25.920,exp1,2023.1.0,59.99430056789012,
,,,,,,,,,,,,,,,,5,8.95,9.475,10,10.525,11.05,0.525,0.275,0.25,2.35,10,match,36.05,323,342,361,379,398,9,9,9,9,9,,,,,,,0,0,0,0,0,8,8,25,,,,,,,,,,,,,,4,0.6908218000316992,4,0.35,0.25,9.01073,return,1.0635941000655293,,,,,,,,,,,,,,,,,p320,22,female,up_down_width,2025-12-19_08h01.25.920,exp1,2023.1.0,59.99430056789012,
,,,,,,,,,,,,,,,,4,9.3,9.766666666666667,10.233333333333333,10.7,0,0.4666666666666667,0.21666666666666665,0.25,1.65,10,match,36.05,335,352,369,386,0,9,9,9,9,0,,,,,,,0,0,0,0,0,9,9,8,,,,,,,,,,,,,,3,0.8954669999657199,3,0.5,0.35000000000000003,12.61502,return,1.2113906999584287,,,,,,,,,,,,,,,,,p320,22,female,up_down_width,2025-12-19_08h01.25.920,exp1,2023.1.0,59.99430056789012,
,,,,,,,,,,,,,,,,5,8.95,9.475,10,10.525,11.05,0.525,0.125,0.4,2.5,10,match,36.05,323,342,361,379,398,9,9,9,9,9,,,,,,,0,0,0,0,0,10,10,27,,,,,,,,,,,,,,3,1.118353300029412,3,0.55,0.6000000000000001,21.62576,return,0.7187630999833345,,,,,,,,,,,,,,,,,p320,22,female,up_down_width,2025-12-19_08h01.25.920,exp1,2023.1.0,59.99430056789012,
,,,,,,,,,,,,,,,,5,8.65,9.325,10,10.675,11.35,0.675,0.125,0.55,3.25,10,match,36.05,312,336,361,385,409,9,9,9,9,9,,,,,,,0,0,0,0,0,11,11,29,,,,,,,,,,,,,,4,1.1569089000113308,4,0.4,0.5,18.02146,return,0.982845599995926,,,,,,,,,,,,,,,,,p320,22,female,up_down_width,2025-12-19_08h01.25.920,exp1,2023.1.0,59.99430056789012,
,,,,,,,,,,,,,,,,3,8.9,10,11.1,0,0,1.1,0.8500000000000001,0.25,2.45,10,initial,36.05,321,361,400,0,0,9,9,9,0,0,,,,,,,0,0,0,0,0,12,12,2,,,,,,,,,,,,,,3,0.5567603000672534,3,0.45,0.20000000000000007,7.20859,return,1.444710100069642,,,,,,,,,,,,,,,,,p320,22,female,up_down_width,2025-12-19_08h01.25.920,exp1,2023.1.0,59.99430056789012,
,,,,,,,,,,,,,,,,4,9.1,9.7,10.3,10.9,0,0.5999999999999999,0.3499999999999999,0.25,2.05,10,match,36.05,328,350,371,393,0,9,9,9,9,0,,,,,,,0,0,0,0,0,13,13,14,,,,,,,,,,,,,,3,0.4300247000064701,3,0.3,0.2,7.20859,return,0.9398766000522301,,,,,,,,,,,,,,,,,p320,22,female,up_down_width,2025-12-19_08h01.25.920,exp1,2023.1.0,59.99430056789012,
,,,,,,,,,,,,,,,,3,8.6,10,11.4,0,0,1.4,0.85,0.55,3.35,10,match,36.05,310,361,411,0,0,9,9,9,0,0,,,,,,,0,0,0,0,0,14,14,41,,,,,,,,,,,,,,3,0.5534076999174431,3,0.5,0.55,19.82361,return,0.6420808000257239,,,,,,,,,,,,,,,,,p320,22,female,up_down_width,2025-12-19_08h01.25.920,exp1,2023.1.0,59.99430056789012,
,,,,,,,,,,,,,,,,3,8.525,10,11.475,0,0,1.475,1.225,0.25,3.2,10,match,36.05,307,361,414,0,0,9,9,9,0,0,,,,,,,0,0,0,0,0,15,15,45,,,,,,,,,,,,,,3,0.49086100002750754,3,0.45,0.25000000000000006,9.01073,return,1.2552035000408068,,,,,,,,,,,,,,,,,p320,22,female,up_down_width,2025-12-19_08h01.25.920,exp1,2023.1.0,59.99430056789012,
,,,,,,,,,,,,,,,,4,8.35,9.45,10.55,11.65,0,1.1,0.8500000000000001,0.25,3.5500000000000003,10,initial,36.05,301,341,380,420,0,9,9,9,9,0,,,,,,,0,0,0,0,0,16,16,19,,,,,,,,,,,,,,3,0.5336260999320075,3,0.2,0.15000000000000002,5.40644,return,0.9596513999858871,,,,,,,,,,,,,,,,,p320,22,female,up_down_width,2025-12-19_08h01.25.920,exp1,2023.1.0,59.99430056789012,
,,,,,,,,,,,,,,,,4,8.9,9.633333333333333,10.366666666666667,11.1,0,0.7333333333333333,0.18333333333333326,0.55,2.75,10,match,36.05,321,347,374,400,0,9,9,9,9,0,,,,,,,0,0,0,0,0,17,17,1,,,,,,,,,,,,,,3,0.34636199998203665,3,0.25,0.7000000000000001,25.23005,return,1.6437711999751627,,,,,,,,,,,,,,,,,p320,22,female,up_down_width,2025-12-19_08h01.25.920,exp1,2023.1.0,59.99430056789012,
,,,,,,,,,,,,,,,,4,8.65,9.55,10.45,11.35,0,0.9,0.65,0.25,2.95,10,initial,36.05,312,344,377,409,0,9,9,9,9,0,,,,,,,0,0,0,0,0,18,18,30,,,,,,,,,,,,,,3,0.7234745000023395,3,0.25,0.2,7.20859,return,0.9962482000701129,,,,,,,,,,,,,,,,,p320,22,female,up_down_width,2025-12-19_08h01.25.920,exp1,2023.1.0,59.99430056789012,
,,,,,,,,,,,,,,,,4,8.65,9.55,10.45,11.35,0,0.9,0.35,0.55,3.25,10,initial,36.05,312,344,377,409,0,9,9,9,9,0,,,,,,,0,0,0,0,0,19,19,28,,,,,,,,,,,,,,3,0.38446620001923293,3,0.3,0.7500000000000001,27.0322,return,3.1512261000461876,,,,,,,,,,,,,,,,,p320,22,female,up_down_width,2025-12-19_08h01.25.920,exp1,2023.1.0,59.99430056789012,
,,,,,,,,,,,,,,,,3,8.9,10,11.1,0,0,1.1,0.55,0.55,2.75,10,initial,36.05,321,361,400,0,0,9,9,9,0,0,,,,,,,0,0,0,0,0,20,20,0,,,,,,,,,,,,,,3,0.3949463999597356,3,0.25,0.6,21.62576,return,1.049452800070867,,,,,,,,,,,,,,,,,p320,22,female,up_down_width,2025-12-19_08h01.25.920,exp1,2023.1.0,59.99430056789012,
,,,,,,,,,,,,,,,,5,8.65,9.325,10,10.675,11.35,0.675,0.275,0.4,3.1,10,match,36.05,312,336,361,385,409,9,9,9,9,9,,,,,,,0,0,0,0,0,21,21,33,,,,,,,,,,,,,,3,0.36192620010115206,3,0.5,0.6500000000000001,23.4279,return,2.1537523000733927,,,,,,,,,,,,,,,,,p320,22,female,up_down_width,2025-12-19_08h01.25.920,exp1,2023.1.0,59.99430056789012,
,,,,,,,,,,,,,,,,5,7.8,8.9,10,11.1,12.2,1.1,0.8500000000000001,0.25,4.65,10,initial,36.05,281,321,361,400,440,9,9,9,9,9,,,,,,,0,0,0,0,0,22,22,36,,,,,,,,,,,,,,4,0.471062200027518,4,0.5,0.20000000000000007,7.20859,return,1.410881399991922,,,,,,,,,,,,,,,,,p320,22,female,up_down_width,2025-12-19_08h01.25.920,exp1,2023.1.0,59.99430056789012,
,,,,,,,,,,,,,,,,4,8.95,9.65,10.35,11.05,0,0.7,0.44999999999999996,0.25,2.3499999999999996,10,initial,36.05,323,348,373,398,0,9,9,9,9,0,,,,,,,0,0,0,0,0,23,23,24,,,,,,,,,,,,,,4,0.7214075999800116,4,0.2,0.15000000000000002,5.40644,return,0.7874964000657201,,,,,,,,,,,,,,,,,p320,22,female,up_down_width,2025-12-19_08h01.25.920,exp1,2023.1.0,59.99430056789012,
,,,,,,,,,,,,,,,,5,8.65,9.325,10,10.675,11.35,0.675,0.42500000000000004,0.25,2.95,10,match,36.05,312,336,361,385,409,9,9,9,9,9,,,,,,,0,0,0,0,0,24,24,31,,,,,,,,,,,,,,4,0.5771949000190943,4,0.55,0.30000000000000004,10.81288,return,1.4642693999921903,,,,,,,,,,,,,,,,,p320,22,female,up_down_width,2025-12-19_08h01.25.920,exp1,2023.1.0,59.99430056789012,
,,,,,,,,,,,,,,,,5,8.6,9.3,10,10.7,11.4,0.7,0.44999999999999996,0.25,3.05,10,initial,36.05,310,335,361,386,411,9,9,9,9,9,,,,,,,0,0,0,0,0,25,25,42,,,,,,,,,,,,,,4,0.728311000042595,4,0.55,0.20000000000000007,7.20859,return,1.4655321000609547,,,,,,,,,,,,,,,,,p320,22,female,up_down_width,2025-12-19_08h01.25.920,exp1,2023.1.0,59.99430056789012,
,,,,,,,,,,,,,,,,4,8.9,9.633333333333333,10.366666666666667,11.1,0,0.7333333333333334,0.4833333333333334,0.25,2.45,10,match,36.05,321,347,374,400,0,9,9,9,9,0,,,,,,,0,0,0,0,0,26,26,3,,,,,,,,,,,,,,3,0.9088823000201955,3,0.55,0.30000000000000004,10.81288,return,1.0462425000732765,,,,,,,,,,,,,,,,,p320,22,female,up_down_width,2025-12-19_08h01.25.920,exp1,2023.1.0,59.99430056789012,
,,,,,,,,,,,,,,,,5,8.2,9.1,10,10.9,11.8,0.9,0.65,0.25,3.85,10,initial,36.05,296,328,361,393,425,9,9,9,9,9,,,,,,,0,0,0,0,0,27,27,48,,,,,,,,,,,,,,4,0.7110239999601617,4,0.3,0.2,7.20859,return,0.8562682999763638,,,,,,,,,,,,,,,,,p320,22,female,up_down_width,2025-12-19_08h01.25.920,exp1,2023.1.0,59.99430056789012,
,,,,,,,,,,,,,,,,3,9.1,10,10.9,0,0,0.9,0.5,0.4,2.2,10,initial,36.05,328,361,393,0,0,9,9,9,0,0,,,,,,,0,0,0,0,0,28,28,15,,,,,,,,,,,,,,4,0.44189759995788336,4,0.35,0.6,21.62576,return,1.3345441999845207,,,,,,,,,,,,,,,,,p320,22,female,up_down_width,2025-12-19_08h01.25.920,exp1,2023.1.0,59.99430056789012,
,,,,,,,,,,,,,,,,4,9.1,9.7,10.3,10.9,0,0.6000000000000001,0.20000000000000004,0.4,2.2,10,match,36.05,328,350,371,393,0,9,9,9,9,0,,,,,,,0,0,0,0,0,29,29,16,,,,,,,,,,,,,,3,0.34569099999498576,3,0.2,0.5499999999999999,19.82361,return,1.6901383000658825,,,,,,,,,,,,,,,,,p320,22,female,up_down_width,2025-12-19_08h01.25.920,exp1,2023.1.0,59.99430056789012,
,,,,,,,,,,,,,,,,3,9.3,10,10.7,0,0,0.7,0.44999999999999996,0.25,1.65,10,initial,36.05,335,361,386,0,0,9,9,9,0,0,,,,,,,0,0,0,0,0,30,30,7,,,,,,,,,,,,,,3,0.4457798000657931,3,0.35,0.2,7.20859,return,0.7474610999925062,,,,,,,,,,,,,,,,,p320,22,female,up_down_width,2025-12-19_08h01.25.920,exp1,2023.1.0,59.99430056789012,
,,,,,,,,,,,,,,,,5,8.6,9.3,10,10.7,11.4,0.7,0.1499999999999999,0.55,3.3499999999999996,10,initial,36.05,310,335,361,386,411,9,9,9,9,9,,,,,,,0,0,0,0,0,31,31,40,,,,,,,,,,,,,,3,1.0603379999520257,3,0.5,0.8000000000000003,28.83434,return,1.752689899993129,,,,,,,,,,,,,,,,,p320,22,female,up_down_width,2025-12-19_08h01.25.920,exp1,2023.1.0,59.99430056789012,
,,,,,,,,,,,,,,,,3,8.2,10,11.8,0,0,1.8,1.25,0.55,4.15,10,match,36.05,296,361,425,0,0,9,9,9,0,0,,,,,,,0,0,0,0,0,32,32,47,,,,,,,,,,,,,,3,0.3844956000102684,3,0.35,0.44999999999999996,16.21932,return,0.7988848999375477,,,,,,,,,,,,,,,,,p320,22,female,up_down_width,2025-12-19_08h01.25.920,exp1,2023.1.0,59.99430056789012,
,,,,,,,,,,,,,,,,4,8.35,9.45,10.55,11.65,0,1.1,0.55,0.55,3.8500000000000005,10,initial,36.05,301,341,380,420,0,9,9,9,9,0,,,,,,,0,0,0,0,0,33,33,17,,,,,,,,,,,,,,3,0.4881203999975696,3,0.2,0.39999999999999997,14.41717,return,1.2191137000918388,,,,,,,,,,,,,,,,,p320,22,female,up_down_width,2025-12-19_08h01.25.920,exp1,2023.1.0,59.99430056789012,
,,,,,,,,,,,,,,,,4,9.1,9.7,10.3,10.9,0,0.6,0.04999999999999997,0.55,2.35,10,match,36.05,328,350,371,393,0,9,9,9,9,0,,,,,,,0,0,0,0,0,34,34,12,,,,,,,,,,,,,,3,0.5079901000717655,3,0.5,1.1500000000000006,41.44937,return,3.2223896000068635,,,,,,,,,,,,,,,,,p320,22,female,up_down_width,2025-12-19_08h01.25.920,exp1,2023.1.0,59.99430056789012,
,,,,,,,,,,,,,,,,5,8.6,9.3,10,10.7,11.4,0.7,0.29999999999999993,0.4,3.1999999999999997,10,initial,36.05,310,335,361,386,411,9,9,9,9,9,,,,,,,0,0,0,0,0,35,35,44,,,,,,,,,,,,,,3,0.601327299955301,3,0.5,0.6000000000000001,21.62576,return,0.9273147999774665,,,,,,,,,,,,,,,,,p320,22,female,up_down_width,2025-12-19_08h01.25.920,exp1,2023.1.0,59.99430056789012,
,,,,,,,,,,,,,,,,5,7.8,8.9,10,11.1,12.2,1.1,0.7000000000000001,0.4,4.800000000000001,10,initial,36.05,281,321,361,400,440,9,9,9,9,9,,,,,,,0,0,0,0,0,36,36,38,,,,,,,,,,,,,,4,0.5601350000360981,4,0.55,0.6500000000000001,23.4279,return,0.8729274000506848,,,,,,,,,,,,,,,,,p320,22,female,up_down_width,2025-12-19_08h01.25.920,exp1,2023.1.0,59.99430056789012,
,,,,,,,,,,,,,,,,3,8.2,10,11.8,0,0,1.8,1.55,0.25,3.85,10,match,36.05,296,361,425,0,0,9,9,9,0,0,,,,,,,0,0,0,0,0,37,37,49,,,,,,,,,,,,,,3,0.6223721998976544,3,0.3,0.2,7.20859,return,0.9322507000761107,,,,,,,,,,,,,,,,,p320,22,female,up_down_width,2025-12-19_08h01.25.920,exp1,2023.1.0,59.99430056789012,
,,,,,,,,,,,,,,,,3,9.3,10,10.7,0,0,0.7,0.1499999999999999,0.55,1.95,10,initial,36.05,335,361,386,0,0,9,9,9,0,0,,,,,,,0,0,0,0,0,38,38,6,,,,,,,,,,,,,,3,0.6723851000424474,3,0.55,0.6500000000000001,23.4279,return,0.9161066999658942,,,,,,,,,,,,,,,,,p320,22,female,up_down_width,2025-12-19_08h01.25.920,exp1,2023.1.0,59.99430056789012,
,,,,,,,,,,,,,,,,3,9.1,10,10.9,0,0,0.9,0.65,0.25,2.05,10,initial,36.05,328,361,393,0,0,9,9,9,0,0,,,,,,,0,0,0,0,0,39,39,13,,,,,,,,,,,,,,2,0.5941908000968397,2,0.55,0.35000000000000003,12.61502,return,1.8184098999481648,,,,,,,,,,,,,,,,,p320,22,female,up_down_width,2025-12-19_08h01.25.920,exp1,2023.1.0,59.99430056789012,
,,,,,,,,,,,,,,,,5,7.8,8.9,10,11.1,12.2,1.1,0.55,0.55,4.95,10,initial,36.05,281,321,361,400,440,9,9,9,9,9,,,,,,,0,0,0,0,0,40,40,34,,,,,,,,,,,,,,4,0.6973833000520244,4,0.4,0.6500000000000001,23.4279,return,1.213517599971965,,,,,,,,,,,,,,,,,p320,22,female,up_down_width,2025-12-19_08h01.25.920,exp1,2023.1.0,59.99430056789012,
,,,,,,,,,,,,,,,,4,8.95,9.65,10.35,11.05,0,0.7,0.29999999999999993,0.4,2.5,10,initial,36.05,323,348,373,398,0,9,9,9,9,0,,,,,,,0,0,0,0,0,41,41,26,,,,,,,,,,,,,,3,0.6533834000583738,3,0.4,0.55,19.82361,return,0.914800800033845,,,,,,,,,,,,,,,,,p320,22,female,up_down_width,2025-12-19_08h01.25.920,exp1,2023.1.0,59.99430056789012,
,,,,,,,,,,,,,,,,5,8.275,9.1375,10,10.8625,11.725,0.8625,0.6125,0.25,3.7,10,match,36.05,298,329,361,392,423,9,9,9,9,9,,,,,,,0,0,0,0,0,42,42,22,,,,,,,,,,,,,,4,0.5654327999800444,4,0.5,0.25000000000000006,9.01073,return,1.180798599962145,,,,,,,,,,,,,,,,,p320,22,female,up_down_width,2025-12-19_08h01.25.920,exp1,2023.1.0,59.99430056789012,
,,,,,,,,,,,,,,,,5,8.2,9.1,10,10.9,11.8,0.9,0.5,0.4,4,10,initial,36.05,296,328,361,393,425,9,9,9,9,9,,,,,,,0,0,0,0,0,43,43,50,,,,,,,,,,,,,,4,1.4678592000855133,4,0.35,0.5499999999999999,19.82361,return,1.0394319999031723,,,,,,,,,,,,,,,,,p320,22,female,up_down_width,2025-12-19_08h01.25.920,exp1,2023.1.0,59.99430056789012,
,,,,,,,,,,,,,,,,4,9.3,9.766666666666667,10.233333333333333,10.7,0,0.4666666666666667,0.06666666666666665,0.4,1.8,10,match,36.05,335,352,369,386,0,9,9,9,9,0,,,,,,,0,0,0,0,0,44,44,10,,,,,,,,,,,,,,3,0.5114043999928981,3,0.3,0.44999999999999996,16.21932,return,0.9850368000334129,,,,,,,,,,,,,,,,,p320,22,female,up_down_width,2025-12-19_08h01.25.920,exp1,2023.1.0,59.99430056789012,
,,,,,,,,,,,,,,,,3,7.8,10,12.2,0,0,2.2,1.65,0.55,4.95,10,match,36.05,281,361,440,0,0,9,9,9,0,0,,,,,,,0,0,0,0,0,45,45,35,,,,,,,,,,,,,,3,1.0978747999761254,3,0.2,0.39999999999999997,14.41717,return,2.253404000075534,,,,,,,,,,,,,,,,,p320,22,female,up_down_width,2025-12-19_08h01.25.920,exp1,2023.1.0,59.99430056789012,
,,,,,,,,,,,,,,,,3,7.8,10,12.2,0,0,2.2,1.9500000000000002,0.25,4.65,10,match,36.05,281,361,440,0,0,9,9,9,0,0,,,,,,,0,0,0,0,0,46,46,37,,,,,,,,,,,,,,3,0.9723510999465361,3,0.2,0.3,10.81288,return,0.739557099994272,,,,,,,,,,,,,,,,,p320,22,female,up_down_width,2025-12-19_08h01.25.920,exp1,2023.1.0,59.99430056789012,
,,,,,,,,,,,,,,,,3,9.3,10,10.7,0,0,0.7,0.29999999999999993,0.4,1.8,10,initial,36.05,335,361,386,0,0,9,9,9,0,0,,,,,,,0,0,0,0,0,47,47,9,,,,,,,,,,,,,,3,0.4727348000742495,3,0.5,0.6500000000000001,23.4279,return,0.9324041999643669,,,,,,,,,,,,,,,,,p320,22,female,up_down_width,2025-12-19_08h01.25.920,exp1,2023.1.0,59.99430056789012,
,,,,,,,,,,,,,,,,3,8.6,10,11.4,0,0,1.4,1.15,0.25,3.05,10,match,36.05,310,361,411,0,0,9,9,9,0,0,,,,,,,0,0,0,0,0,48,48,43,,,,,,,,,,,,,,3,0.6691360999830067,3,0.4,0.25000000000000006,9.01073,return,1.9369569999398664,,,,,,,,,,,,,,,,,p320,22,female,up_down_width,2025-12-19_08h01.25.920,exp1,2023.1.0,59.99430056789012,
,,,,,,,,,,,,,,,,4,8.825,9.608333333333333,10.391666666666667,11.175,0,0.7833333333333333,0.5333333333333333,0.25,2.6,10,match,36.05,318,346,375,403,0,9,9,9,9,0,,,,,,,0,0,0,0,0,49,49,5,,,,,,,,,,,,,,3,0.5184796000830829,3,0.25,0.2,7.20859,return,0.8800229000626132,,,,,,,,,,,,,,,,,p320,22,female,up_down_width,2025-12-19_08h01.25.920,exp1,2023.1.0,59.99430056789012,
,,,,,,,,,,,,,,,,4,8.95,9.65,10.35,11.05,0,0.7,0.1499999999999999,0.55,2.65,10,initial,36.05,323,348,373,398,0,9,9,9,9,0,,,,,,,0,0,0,0,0,50,50,23,,,,,,,,,,,,,,3,0.45241909998003393,3,0.2,0.7000000000000001,25.23005,return,2.4019918999401852,,,,,,,,,,,,,,,,,p320,22,female,up_down_width,2025-12-19_08h01.25.920,exp1,2023.1.0,59.99430056789012,
,,,,,,,,,,,,,,,,4,8.65,9.55,10.45,11.35,0,0.9,0.5,0.4,3.1,10,initial,36.05,312,344,377,409,0,9,9,9,9,0,,,,,,,0,0,0,0,0,51,51,32,,,,,,,,,,,,,,4,0.7715376999694854,4,0.35,0.39999999999999997,14.41717,return,1.4603988999733701,,,,,,,,,,,,,,,,,p320,22,female,up_down_width,2025-12-19_08h01.25.920,exp1,2023.1.0,59.99430056789012,
,,,,,,,,,,,,,,,,,,,,,,,,,,,,,,,,,,,,,,,,,,,,,0,0,0,0,,,,,,,,,,,,,,,,,,,,,,,,,,,,2102.256654100027,2102.256654100027,2102.256654100027,,,,,,,,,,,,p320,22,female,up_down_width,2025-12-19_08h01.25.920,exp1,2023.1.0,59.99430056789012,
,,,,,,,,,,,,,,,,3,8.9,10,11.1,0,0,1.1,0.55,0.55,2.75,10,initial,36.05,321,361,400,0,0,9,9,9,0,0,,,,,,,1,0,1,0,0,0,0,0,,,,,,,,,,,,,,3,0.5395965999923646,3,0.25,0.44999999999999996,16.21932,return,1.3327376999659464,,,,,,,,,,,,,,,,,p320,22,female,up_down_width,2025-12-19_08h01.25.920,exp1,2023.1.0,59.99430056789012,
,,,,,,,,,,,,,,,,3,9.1,10,10.9,0,0,0.9,0.5,0.4,2.2,10,initial,36.05,328,361,393,0,0,9,9,9,0,0,,,,,,,1,0,1,0,0,1,1,15,,,,,,,,,,,,,,3,0.4493418999481946,3,0.25,0.39999999999999997,14.41717,return,1.0556526000145823,,,,,,,,,,,,,,,,,p320,22,female,up_down_width,2025-12-19_08h01.25.920,exp1,2023.1.0,59.99430056789012,
,,,,,,,,,,,,,,,,5,8.2,9.1,10,10.9,11.8,0.9,0.35,0.55,4.15,10,initial,36.05,296,328,361,393,425,9,9,9,9,9,,,,,,,1,0,1,0,0,2,2,46,,,,,,,,,,,,,,4,0.6162083999952301,4,0.25,0.39999999999999997,14.41717,return,0.7993748999433592,,,,,,,,,,,,,,,,,p320,22,female,up_down_width,2025-12-19_08h01.25.920,exp1,2023.1.0,59.99430056789012,
,,,,,,,,,,,,,,,,5,8.65,9.325,10,10.675,11.35,0.675,0.125,0.55,3.25,10,match,36.05,312,336,361,385,409,9,9,9,9,9,,,,,,,1,0,1,0,0,3,3,29,,,,,,,,,,,,,,4,0.7321005000267178,4,0.3,0.44999999999999996,16.21932,return,0.8940888999495655,,,,,,,,,,,,,,,,,p320,22,female,up_down_width,2025-12-19_08h01.25.920,exp1,2023.1.0,59.99430056789012,
,,,,,,,,,,,,,,,,3,9.3,10,10.7,0,0,0.7,0.1499999999999999,0.55,1.95,10,initial,36.05,335,361,386,0,0,9,9,9,0,0,,,,,,,1,0,1,0,0,4,4,6,,,,,,,,,,,,,,3,0.47212169994600117,3,0.2,0.49999999999999994,18.02146,return,1.236120600020513,,,,,,,,,,,,,,,,,p320,22,female,up_down_width,2025-12-19_08h01.25.920,exp1,2023.1.0,59.99430056789012,
,,,,,,,,,,,,,,,,3,7.8,10,12.2,0,0,2.2,1.65,0.55,4.95,10,match,36.05,281,361,440,0,0,9,9,9,0,0,,,,,,,1,0,1,0,0,5,5,35,,,,,,,,,,,,,,3,0.761676000081934,3,0.55,0.7000000000000002,25.23005,return,0.7769579000305384,,,,,,,,,,,,,,,,,p320,22,female,up_down_width,2025-12-19_08h01.25.920,exp1,2023.1.0,59.99430056789012,
,,,,,,,,,,,,,,,,5,8.95,9.475,10,10.525,11.05,0.525,0.275,0.25,2.35,10,match,36.05,323,342,361,379,398,9,9,9,9,9,,,,,,,1,0,1,0,0,6,6,25,,,,,,,,,,,,,,4,0.5641822000034153,4,0.5,0.30000000000000004,10.81288,return,1.6283836999209598,,,,,,,,,,,,,,,,,p320,22,female,up_down_width,2025-12-19_08h01.25.920,exp1,2023.1.0,59.99430056789012,
,,,,,,,,,,,,,,,,4,9.3,9.766666666666667,10.233333333333333,10.7,0,0.4666666666666667,0.06666666666666665,0.4,1.8,10,match,36.05,335,352,369,386,0,9,9,9,9,0,,,,,,,1,0,1,0,0,7,7,10,,,,,,,,,,,,,,3,0.5569197000004351,3,0.45,0.5,18.02146,return,0.7737988999579102,,,,,,,,,,,,,,,,,p320,22,female,up_down_width,2025-12-19_08h01.25.920,exp1,2023.1.0,59.99430056789012,
,,,,,,,,,,,,,,,,5,8.65,9.325,10,10.675,11.35,0.675,0.275,0.4,3.1,10,match,36.05,312,336,361,385,409,9,9,9,9,9,,,,,,,1,0,1,0,0,8,8,33,,,,,,,,,,,,,,4,0.5824367000022903,4,0.3,0.35,12.61502,return,1.1186463000485674,,,,,,,,,,,,,,,,,p320,22,female,up_down_width,2025-12-19_08h01.25.920,exp1,2023.1.0,59.99430056789012,
,,,,,,,,,,,,,,,,4,8.65,9.55,10.45,11.35,0,0.9,0.35,0.55,3.25,10,initial,36.05,312,344,377,409,0,9,9,9,9,0,,,,,,,1,0,1,0,0,9,9,28,,,,,,,,,,,,,,3,0.4201215000357479,3,0.45,0.7000000000000002,25.23005,return,1.267456000088714,,,,,,,,,,,,,,,,,p320,22,female,up_down_width,2025-12-19_08h01.25.920,exp1,2023.1.0,59.99430056789012,
,,,,,,,,,,,,,,,,5,8.6,9.3,10,10.7,11.4,0.7,0.1499999999999999,0.55,3.3499999999999996,10,initial,36.05,310,335,361,386,411,9,9,9,9,9,,,,,,,1,0,1,0,0,10,10,40,,,,,,,,,,,,,,3,0.7109123000409454,3,0.2,0.8000000000000002,28.83434,return,2.169585899915546,,,,,,,,,,,,,,,,,p320,22,female,up_down_width,2025-12-19_08h01.25.920,exp1,2023.1.0,59.99430056789012,
,,,,,,,,,,,,,,,,4,9.1,9.7,10.3,10.9,0,0.6,0.04999999999999997,0.55,2.35,10,match,36.05,328,350,371,393,0,9,9,9,9,0,,,,,,,1,0,1,0,0,11,11,12,,,,,,,,,,,,,,3,0.6311299999943003,3,0.2,0.2,7.20859,return,0.2042480999371037,,,,,,,,,,,,,,,,,p320,22,female,up_down_width,2025-12-19_08h01.25.920,exp1,2023.1.0,59.99430056789012,
,,,,,,,,,,,,,,,,3,8.2,10,11.8,0,0,1.7999999999999998,1.4,0.4,4,10,match,36.05,296,361,425,0,0,9,9,9,0,0,,,,,,,1,0,1,0,0,12,12,51,,,,,,,,,,,,,,3,0.4769441999960691,3,0.35,0.44999999999999996,16.21932,return,1.5934802000410855,,,,,,,,,,,,,,,,,p320,22,female,up_down_width,2025-12-19_08h01.25.920,exp1,2023.1.0,59.99430056789012,
,,,,,,,,,,,,,,,,4,8.825,9.608333333333333,10.391666666666667,11.175,0,0.7833333333333333,0.5333333333333333,0.25,2.6,10,match,36.05,318,346,375,403,0,9,9,9,9,0,,,,,,,1,0,1,0,0,13,13,5,,,,,,,,,,,,,,3,0.6203982000006363,3,0.25,0.10000000000000002,3.60429,return,1.0264116000616923,,,,,,,,,,,,,,,,,p320,22,female,up_down_width,2025-12-19_08h01.25.920,exp1,2023.1.0,59.99430056789012,
,,,,,,,,,,,,,,,,5,8.35,9.175,10,10.825,11.65,0.825,0.575,0.25,3.55,10,match,36.05,301,331,361,390,420,9,9,9,9,9,,,,,,,1,0,1,0,0,14,14,20,,,,,,,,,,,,,,4,0.8060736000770703,4,0.55,0.25000000000000006,9.01073,return,1.573110400000587,,,,,,,,,,,,,,,,,p320,22,female,up_down_width,2025-12-19_08h01.25.920,exp1,2023.1.0,59.99430056789012,
,,,,,,,,,,,,,,,,5,8.65,9.325,10,10.675,11.35,0.675,0.42500000000000004,0.25,2.95,10,match,36.05,312,336,361,385,409,9,9,9,9,9,,,,,,,1,0,1,0,0,15,15,31,,,,,,,,,,,,,,4,0.6864676000550389,4,0.2,0.3,10.81288,return,1.2663173000328243,,,,,,,,,,,,,,,,,p320,22,female,up_down_width,2025-12-19_08h01.25.920,exp1,2023.1.0,59.99430056789012,
,,,,,,,,,,,,,,,,3,8.6,10,11.4,0,0,1.4,0.85,0.55,3.35,10,match,36.05,310,361,411,0,0,9,9,9,0,0,,,,,,,1,0,1,0,0,16,16,41,,,,,,,,,,,,,,3,0.8076591999270022,3,0.3,0.44999999999999996,16.21932,return,1.3822439999785274,,,,,,,,,,,,,,,,,p320,22,female,up_down_width,2025-12-19_08h01.25.920,exp1,2023.1.0,59.99430056789012,
,,,,,,,,,,,,,,,,3,8.525,10,11.475,0,0,1.475,1.225,0.25,3.2,10,match,36.05,307,361,414,0,0,9,9,9,0,0,,,,,,,1,0,1,0,0,17,17,45,,,,,,,,,,,,,,3,0.5781057000858709,3,0.4,0.25000000000000006,9.01073,return,1.0493826000019908,,,,,,,,,,,,,,,,,p320,22,female,up_down_width,2025-12-19_08h01.25.920,exp1,2023.1.0,59.99430056789012,
,,,,,,,,,,,,,,,,3,8.9,10,11.1,0,0,1.1,0.8500000000000001,0.25,2.45,10,initial,36.05,321,361,400,0,0,9,9,9,0,0,,,,,,,1,0,1,0,0,18,18,2,,,,,,,,,,,,,,3,0.41827990009915084,3,0.45,0.30000000000000004,10.81288,return,1.0886753998929635,,,,,,,,,,,,,,,,,p320,22,female,up_down_width,2025-12-19_08h01.25.920,exp1,2023.1.0,59.99430056789012,
,,,,,,,,,,,,,,,,5,8.95,9.475,10,10.525,11.05,0.525,0.125,0.4,2.5,10,match,36.05,323,342,361,379,398,9,9,9,9,9,,,,,,,1,0,1,0,0,19,19,27,,,,,,,,,,,,,,3,0.3446317999623716,3,0.5,0.6000000000000001,21.62576,return,0.8893187999492511,,,,,,,,,,,,,,,,,p320,22,female,up_down_width,2025-12-19_08h01.25.920,exp1,2023.1.0,59.99430056789012,
,,,,,,,,,,,,,,,,3,9.1,10,10.9,0,0,0.9,0.65,0.25,2.05,10,initial,36.05,328,361,393,0,0,9,9,9,0,0,,,,,,,1,0,1,0,0,20,20,13,,,,,,,,,,,,,,3,0.41902190004475415,3,0.35,0.2,7.20859,return,1.1042285000439733,,,,,,,,,,,,,,,,,p320,22,female,up_down_width,2025-12-19_08h01.25.920,exp1,2023.1.0,59.99430056789012,
,,,,,,,,,,,,,,,,5,7.8,8.9,10,11.1,12.2,1.1,0.7000000000000001,0.4,4.800000000000001,10,initial,36.05,281,321,361,400,440,9,9,9,9,9,,,,,,,1,0,1,0,0,21,21,38,,,,,,,,,,,,,,4,0.5735845000017434,4,0.5,0.35000000000000003,12.61502,return,1.3661497000139207,,,,,,,,,,,,,,,,,p320,22,female,up_down_width,2025-12-19_08h01.25.920,exp1,2023.1.0,59.99430056789012,
,,,,,,,,,,,,,,,,3,9.3,10,10.7,0,0,0.7,0.44999999999999996,0.25,1.65,10,initial,36.05,335,361,386,0,0,9,9,9,0,0,,,,,,,1,0,1,0,0,22,22,7,,,,,,,,,,,,,,2,0.5442345000337809,2,0.4,0.35000000000000003,12.61502,return,0.8737085000611842,,,,,,,,,,,,,,,,,p320,22,female,up_down_width,2025-12-19_08h01.25.920,exp1,2023.1.0,59.99430056789012,
,,,,,,,,,,,,,,,,5,8.275,9.1375,10,10.8625,11.725,0.8625,0.6125,0.25,3.7,10,match,36.05,298,329,361,392,423,9,9,9,9,9,,,,,,,1,0,1,0,0,23,23,22,,,,,,,,,,,,,,4,0.6121507999487221,4,0.2,0.39999999999999997,14.41717,return,2.6342624000972137,,,,,,,,,,,,,,,,,p320,22,female,up_down_width,2025-12-19_08h01.25.920,exp1,2023.1.0,59.99430056789012,
,,,,,,,,,,,,,,,,5,8.2,9.1,10,10.9,11.8,0.9,0.65,0.25,3.85,10,initial,36.05,296,328,361,393,425,9,9,9,9,9,,,,,,,1,0,1,0,0,24,24,48,,,,,,,,,,,,,,4,0.8513034000061452,4,0.3,0.25,9.01073,return,2.4015923000406474,,,,,,,,,,,,,,,,,p320,22,female,up_down_width,2025-12-19_08h01.25.920,exp1,2023.1.0,59.99430056789012,
,,,,,,,,,,,,,,,,4,9.3,9.766666666666667,10.233333333333333,10.7,0,0.4666666666666667,0.21666666666666665,0.25,1.65,10,match,36.05,335,352,369,386,0,9,9,9,9,0,,,,,,,1,0,1,0,0,25,25,8,,,,,,,,,,,,,,4,1.4480651000048965,4,0.3,0.25,9.01073,return,0.8283485999563709,,,,,,,,,,,,,,,,,p320,22,female,up_down_width,2025-12-19_08h01.25.920,exp1,2023.1.0,59.99430056789012,
,,,,,,,,,,,,,,,,4,8.95,9.65,10.35,11.05,0,0.7,0.29999999999999993,0.4,2.5,10,initial,36.05,323,348,373,398,0,9,9,9,9,0,,,,,,,1,0,1,0,0,26,26,26,,,,,,,,,,,,,,4,0.4679798000724986,4,0.35,0.2,7.20859,return,1.7102722999406978,,,,,,,,,,,,,,,,,p320,22,female,up_down_width,2025-12-19_08h01.25.920,exp1,2023.1.0,59.99430056789012,
,,,,,,,,,,,,,,,,4,8.35,9.45,10.55,11.65,0,1.1,0.7000000000000001,0.4,3.7,10,initial,36.05,301,341,380,420,0,9,9,9,9,0,,,,,,,1,0,1,0,0,27,27,21,,,,,,,,,,,,,,4,0.6519886000314727,4,0.2,0.3,10.81288,return,0.9288406999548897,,,,,,,,,,,,,,,,,p320,22,female,up_down_width,2025-12-19_08h01.25.920,exp1,2023.1.0,59.99430056789012,
,,,,,,,,,,,,,,,,5,7.8,8.9,10,11.1,12.2,1.1,0.8500000000000001,0.25,4.65,10,initial,36.05,281,321,361,400,440,9,9,9,9,9,,,,,,,1,0,1,0,0,28,28,36,,,,,,,,,,,,,,4,0.5802793999901041,4,0.2,0.25,9.01073,return,1.0199281999375671,,,,,,,,,,,,,,,,,p320,22,female,up_down_width,2025-12-19_08h01.25.920,exp1,2023.1.0,59.99430056789012,
,,,,,,,,,,,,,,,,3,7.8,10,12.2,0,0,2.2,1.9500000000000002,0.25,4.65,10,match,36.05,281,361,440,0,0,9,9,9,0,0,,,,,,,1,0,1,0,0,29,29,37,,,,,,,,,,,,,,3,0.6875168000115082,3,0.5,0.4,14.41717,return,1.2683742999797687,,,,,,,,,,,,,,,,,p320,22,female,up_down_width,2025-12-19_08h01.25.920,exp1,2023.1.0,59.99430056789012,
,,,,,,,,,,,,,,,,4,9.1,9.7,10.3,10.9,0,0.6000000000000001,0.20000000000000004,0.4,2.2,10,match,36.05,328,350,371,393,0,9,9,9,9,0,,,,,,,1,0,1,0,0,30,30,16,,,,,,,,,,,,,,4,0.6207842999137938,4,0.55,0.5,18.02146,return,1.1718865999719128,,,,,,,,,,,,,,,,,p320,22,female,up_down_width,2025-12-19_08h01.25.920,exp1,2023.1.0,59.99430056789012,
,,,,,,,,,,,,,,,,5,7.8,8.9,10,11.1,12.2,1.1,0.55,0.55,4.95,10,initial,36.05,281,321,361,400,440,9,9,9,9,9,,,,,,,1,0,1,0,0,31,31,34,,,,,,,,,,,,,,5,0.7787774000316858,5,0.4,0.35000000000000003,12.61502,return,0.6987879999214783,,,,,,,,,,,,,,,,,p320,22,female,up_down_width,2025-12-19_08h01.25.920,exp1,2023.1.0,59.99430056789012,
,,,,,,,,,,,,,,,,4,8.65,9.55,10.45,11.35,0,0.9,0.65,0.25,2.95,10,initial,36.05,312,344,377,409,0,9,9,9,9,0,,,,,,,1,0,1,0,0,32,32,30,,,,,,,,,,,,,,4,0.4097553000319749,4,0.5,0.30000000000000004,10.81288,return,1.4326874000253156,,,,,,,,,,,,,,,,,p320,22,female,up_down_width,2025-12-19_08h01.25.920,exp1,2023.1.0,59.99430056789012,
,,,,,,,,,,,,,,,,3,7.800000000000001,10,12.2,0,0,2.1999999999999997,1.7999999999999998,0.4,4.8,10,match,36.05,281,361,440,0,0,9,9,9,0,0,,,,,,,1,0,1,0,0,33,33,39,,,,,,,,,,,,,,3,0.7635970000410452,3,0.4,0.5,18.02146,return,1.2433671000180766,,,,,,,,,,,,,,,,,p320,22,female,up_down_width,2025-12-19_08h01.25.920,exp1,2023.1.0,59.99430056789012,
,,,,,,,,,,,,,,,,3,8.2,10,11.8,0,0,1.8,1.55,0.25,3.85,10,match,36.05,296,361,425,0,0,9,9,9,0,0,,,,,,,1,0,1,0,0,34,34,49,,,,,,,,,,,,,,3,0.555474599939771,3,0.4,0.20000000000000007,7.20859,return,1.300795100047253,,,,,,,,,,,,,,,,,p320,22,female,up_down_width,2025-12-19_08h01.25.920,exp1,2023.1.0,59.99430056789012,
,,,,,,,,,,,,,,,,3,8.6,10,11.4,0,0,1.4,1.15,0.25,3.05,10,match,36.05,310,361,411,0,0,9,9,9,0,0,,,,,,,1,0,1,0,0,35,35,43,,,,,,,,,,,,,,3,0.47826810006517917,3,0.2,0.2,7.20859,return,0.5860054999357089,,,,,,,,,,,,,,,,,p320,22,female,up_down_width,2025-12-19_08h01.25.920,exp1,2023.1.0,59.99430056789012,
,,,,,,,,,,,,,,,,3,9.1,10,10.9,0,0,0.9,0.35,0.55,2.35,10,initial,36.05,328,361,393,0,0,9,9,9,0,0,,,,,,,1,0,1,0,0,36,36,11,,,,,,,,,,,,,,3,0.6718251999700442,3,0.4,0.9500000000000004,34.24078,return,2.355146300047636,,,,,,,,,,,,,,,,,p320,22,female,up_down_width,2025-12-19_08h01.25.920,exp1,2023.1.0,59.99430056789012,
,,,,,,,,,,,,,,,,4,8.35,9.45,10.55,11.65,0,1.1,0.55,0.55,3.8500000000000005,10,initial,36.05,301,341,380,420,0,9,9,9,9,0,,,,,,,1,0,1,0,0,37,37,17,,,,,,,,,,,,,,4,0.5042076999088749,4,0.45,0.45,16.21932,return,0.9934888000134379,,,,,,,,,,,,,,,,,p320,22,female,up_down_width,2025-12-19_08h01.25.920,exp1,2023.1.0,59.99430056789012,
,,,,,,,,,,,,,,,,4,9.1,9.7,10.3,10.9,0,0.5999999999999999,0.3499999999999999,0.25,2.05,10,match,36.05,328,350,371,393,0,9,9,9,9,0,,,,,,,1,0,1,0,0,38,38,14,,,,,,,,,,,,,,3,1.0473554999334738,3,0.2,0.15000000000000002,5.40644,return,0.7641931000398472,,,,,,,,,,,,,,,,,p320,22,female,up_down_width,2025-12-19_08h01.25.920,exp1,2023.1.0,59.99430056789012,
,,,,,,,,,,,,,,,,3,8.9,10,11.1,0,0,1.1,0.7000000000000001,0.4,2.6000000000000005,10,initial,36.05,321,361,400,0,0,9,9,9,0,0,,,,,,,1,0,1,0,0,39,39,4,,,,,,,,,,,,,,2,0.9435265000211075,2,0.55,0.45,16.21932,return,1.2891346999676898,,,,,,,,,,,,,,,,,p320,22,female,up_down_width,2025-12-19_08h01.25.920,exp1,2023.1.0,59.99430056789012,
,,,,,,,,,,,,,,,,4,8.95,9.65,10.35,11.05,0,0.7,0.44999999999999996,0.25,2.3499999999999996,10,initial,36.05,323,348,373,398,0,9,9,9,9,0,,,,,,,1,0,1,0,0,40,40,24,,,,,,,,,,,,,,4,0.8470661999890581,4,0.35,0.2,7.20859,return,1.6602537999860942,,,,,,,,,,,,,,,,,p320,22,female,up_down_width,2025-12-19_08h01.25.920,exp1,2023.1.0,59.99430056789012,
,,,,,,,,,,,,,,,,5,8.2,9.1,10,10.9,11.8,0.9,0.5,0.4,4,10,initial,36.05,296,328,361,393,425,9,9,9,9,9,,,,,,,1,0,1,0,0,41,41,50,,,,,,,,,,,,,,4,0.5340274999616668,4,0.2,0.3,10.81288,return,0.9269030999857932,,,,,,,,,,,,,,,,,p320,22,female,up_down_width,2025-12-19_08h01.25.920,exp1,2023.1.0,59.99430056789012,
,,,,,,,,,,,,,,,,4,8.65,9.55,10.45,11.35,0,0.9,0.5,0.4,3.1,10,initial,36.05,312,344,377,409,0,9,9,9,9,0,,,,,,,1,0,1,0,0,42,42,32,,,,,,,,,,,,,,4,0.5513355999719352,4,0.5,0.35000000000000003,12.61502,return,1.2327026999555528,,,,,,,,,,,,,,,,,p320,22,female,up_down_width,2025-12-19_08h01.25.920,exp1,2023.1.0,59.99430056789012,
,,,,,,,,,,,,,,,,4,8.9,9.633333333333333,10.366666666666667,11.1,0,0.7333333333333333,0.18333333333333326,0.55,2.75,10,match,36.05,321,347,374,400,0,9,9,9,9,0,,,,,,,1,0,1,0,0,43,43,1,,,,,,,,,,,,,,3,0.4992447999538854,3,0.55,0.6500000000000001,23.4279,return,0.8141872000414878,,,,,,,,,,,,,,,,,p320,22,female,up_down_width,2025-12-19_08h01.25.920,exp1,2023.1.0,59.99430056789012,
,,,,,,,,,,,,,,,,4,8.35,9.45,10.55,11.65,0,1.1,0.8500000000000001,0.25,3.5500000000000003,10,initial,36.05,301,341,380,420,0,9,9,9,9,0,,,,,,,1,0,1,0,0,44,44,19,,,,,,,,,,,,,,4,0.5279024000046775,4,0.5,0.20000000000000007,7.20859,return,1.786923800013028,,,,,,,,,,,,,,,,,p320,22,female,up_down_width,2025-12-19_08h01.25.920,exp1,2023.1.0,59.99430056789012,
,,,,,,,,,,,,,,,,5,8.6,9.3,10,10.7,11.4,0.7,0.29999999999999993,0.4,3.1999999999999997,10,initial,36.05,310,335,361,386,411,9,9,9,9,9,,,,,,,1,0,1,0,0,45,45,44,,,,,,,,,,,,,,4,0.53205119993072,4,0.55,0.45,16.21932,return,1.3414665999589488,,,,,,,,,,,,,,,,,p320,22,female,up_down_width,2025-12-19_08h01.25.920,exp1,2023.1.0,59.99430056789012,
,,,,,,,,,,,,,,,,4,8.95,9.65,10.35,11.05,0,0.7,0.1499999999999999,0.55,2.65,10,initial,36.05,323,348,373,398,0,9,9,9,9,0,,,,,,,1,0,1,0,0,46,46,23,,,,,,,,,,,,,,3,1.0287319999188185,3,0.4,0.5,18.02146,return,1.0181931999977678,,,,,,,,,,,,,,,,,p320,22,female,up_down_width,2025-12-19_08h01.25.920,exp1,2023.1.0,59.99430056789012,
,,,,,,,,,,,,,,,,5,8.35,9.175,10,10.825,11.65,0.8250000000000001,0.275,0.55,3.85,10,match,36.05,301,331,361,390,420,9,9,9,9,9,,,,,,,1,0,1,0,0,47,47,18,,,,,,,,,,,,,,4,0.6517220999812707,4,0.45,0.5,18.02146,return,0.8794745000777766,,,,,,,,,,,,,,,,,p320,22,female,up_down_width,2025-12-19_08h01.25.920,exp1,2023.1.0,59.99430056789012,
,,,,,,,,,,,,,,,,5,8.6,9.3,10,10.7,11.4,0.7,0.44999999999999996,0.25,3.05,10,initial,36.05,310,335,361,386,411,9,9,9,9,9,,,,,,,1,0,1,0,0,48,48,42,,,,,,,,,,,,,,4,0.7357996000209823,4,0.25,0.35,12.61502,return,1.5696201999671757,,,,,,,,,,,,,,,,,p320,22,female,up_down_width,2025-12-19_08h01.25.920,exp1,2023.1.0,59.99430056789012,
,,,,,,,,,,,,,,,,4,8.9,9.633333333333333,10.366666666666667,11.1,0,0.7333333333333334,0.4833333333333334,0.25,2.45,10,match,36.05,321,347,374,400,0,9,9,9,9,0,,,,,,,1,0,1,0,0,49,49,3,,,,,,,,,,,,,,4,0.5161764000076801,4,0.25,0.3,10.81288,return,0.7994074000744149,,,,,,,,,,,,,,,,,p320,22,female,up_down_width,2025-12-19_08h01.25.920,exp1,2023.1.0,59.99430056789012,
,,,,,,,,,,,,,,,,3,9.3,10,10.7,0,0,0.7,0.29999999999999993,0.4,1.8,10,initial,36.05,335,361,386,0,0,9,9,9,0,0,,,,,,,1,0,1,0,0,50,50,9,,,,,,,,,,,,,,3,0.3166874999878928,3,0.45,0.4,14.41717,return,1.1989438000600785,,,,,,,,,,,,,,,,,p320,22,female,up_down_width,2025-12-19_08h01.25.920,exp1,2023.1.0,59.99430056789012,
,,,,,,,,,,,,,,,,3,8.2,10,11.8,0,0,1.8,1.25,0.55,4.15,10,match,36.05,296,361,425,0,0,9,9,9,0,0,,,,,,,1,0,1,0,0,51,51,47,,,,,,,,,,,,,,3,0.4020312000066042,3,0.5,0.6500000000000001,23.4279,return,1.1693988000042737,,,,,,,,,,,,,,,,,p320,22,female,up_down_width,2025-12-19_08h01.25.920,exp1,2023.1.0,59.99430056789012,
,,,,,,,,,,,,,,,,,,,,,,,,,,,,,,,,,,,,,,,,,,,,,1,0,1,0,,,,,,,,,,,,,,,,,,,,,,,,,,,,2292.8233068999834,2292.8233068999834,2292.8233068999834,,,,,,,,,,,,p320,22,female,up_down_width,2025-12-19_08h01.25.920,exp1,2023.1.0,59.99430056789012,
,,,,,,,,,,,,,,,,5,8.95,9.475,10,10.525,11.05,0.525,0.125,0.4,2.5,10,match,36.05,323,342,361,379,398,9,9,9,9,9,,,,,,,2,0,2,0,0,0,0,27,,,,,,,,,,,,,,3,0.7630126000149176,3,0.35,0.39999999999999997,14.41717,return,1.0842031999491155,,,,,,,,,,,,,,,,,p320,22,female,up_down_width,2025-12-19_08h01.25.920,exp1,2023.1.0,59.99430056789012,
,,,,,,,,,,,,,,,,4,8.9,9.633333333333333,10.366666666666667,11.1,0,0.7333333333333334,0.4833333333333334,0.25,2.45,10,match,36.05,321,347,374,400,0,9,9,9,9,0,,,,,,,2,0,2,0,0,1,1,3,,,,,,,,,,,,,,3,0.5302038000663742,3,0.35,0.2,7.20859,return,0.9873967999592423,,,,,,,,,,,,,,,,,p320,22,female,up_down_width,2025-12-19_08h01.25.920,exp1,2023.1.0,59.99430056789012,
,,,,,,,,,,,,,,,,3,7.8,10,12.2,0,0,2.2,1.9500000000000002,0.25,4.65,10,match,36.05,281,361,440,0,0,9,9,9,0,0,,,,,,,2,0,2,0,0,2,2,37,,,,,,,,,,,,,,3,0.4775618000421673,3,0.3,0.2,7.20859,return,0.7130605999846011,,,,,,,,,,,,,,,,,p320,22,female,up_down_width,2025-12-19_08h01.25.920,exp1,2023.1.0,59.99430056789012,
,,,,,,,,,,,,,,,,5,7.8,8.9,10,11.1,12.2,1.1,0.55,0.55,4.95,10,initial,36.05,281,321,361,400,440,9,9,9,9,9,,,,,,,2,0,2,0,0,3,3,34,,,,,,,,,,,,,,4,0.7142204999690875,4,0.2,0.44999999999999996,16.21932,return,0.9882732999976724,,,,,,,,,,,,,,,,,p320,22,female,up_down_width,2025-12-19_08h01.25.920,exp1,2023.1.0,59.99430056789012,
,,,,,,,,,,,,,,,,4,8.35,9.45,10.55,11.65,0,1.1,0.7000000000000001,0.4,3.7,10,initial,36.05,301,341,380,420,0,9,9,9,9,0,,,,,,,2,0,2,0,0,4,4,21,,,,,,,,,,,,,,3,0.5517737999325618,3,0.2,0.39999999999999997,14.41717,return,0.7679464999819174,,,,,,,,,,,,,,,,,p320,22,female,up_down_width,2025-12-19_08h01.25.920,exp1,2023.1.0,59.99430056789012,
,,,,,,,,,,,,,,,,4,8.95,9.65,10.35,11.05,0,0.7,0.29999999999999993,0.4,2.5,10,initial,36.05,323,348,373,398,0,9,9,9,9,0,,,,,,,2,0,2,0,0,5,5,26,,,,,,,,,,,,,,3,0.3407584000378847,3,0.2,0.49999999999999994,18.02146,return,1.5896484000841156,,,,,,,,,,,,,,,,,p320,22,female,up_down_width,2025-12-19_08h01.25.920,exp1,2023.1.0,59.99430056789012,
,,,,,,,,,,,,,,,,4,8.35,9.45,10.55,11.65,0,1.1,0.8500000000000001,0.25,3.5500000000000003,10,initial,36.05,301,341,380,420,0,9,9,9,9,0,,,,,,,2,0,2,0,0,6,6,19,,,,,,,,,,,,,,3,0.702253199997358,3,0.3,0.15000000000000002,5.40644,return,2.049451499944553,,,,,,,,,,,,,,,,,p320,22,female,up_down_width,2025-12-19_08h01.25.920,exp1,2023.1.0,59.99430056789012,
,,,,,,,,,,,,,,,,5,8.65,9.325,10,10.675,11.35,0.675,0.275,0.4,3.1,10,match,36.05,312,336,361,385,409,9,9,9,9,9,,,,,,,2,0,2,0,0,7,7,33,,,,,,,,,,,,,,4,0.7556612000335008,4,0.35,0.5499999999999999,19.82361,return,0.8349406000925228,,,,,,,,,,,,,,,,,p320,22,female,up_down_width,2025-12-19_08h01.25.920,exp1,2023.1.0,59.99430056789012,
,,,,,,,,,,,,,,,,3,9.3,10,10.7,0,0,0.7,0.44999999999999996,0.25,1.65,10,initial,36.05,335,361,386,0,0,9,9,9,0,0,,,,,,,2,0,2,0,0,8,8,7,,,,,,,,,,,,,,3,0.34778040007222444,3,0.25,0.25,9.01073,return,1.34152230003383,,,,,,,,,,,,,,,,,p320,22,female,up_down_width,2025-12-19_08h01.25.920,exp1,2023.1.0,59.99430056789012,
,,,,,,,,,,,,,,,,3,9.3,10,10.7,0,0,0.7,0.1499999999999999,0.55,1.95,10,initial,36.05,335,361,386,0,0,9,9,9,0,0,,,,,,,2,0,2,0,0,9,9,6,,,,,,,,,,,,,,2,0.41371849994175136,2,0.35,0.44999999999999996,16.21932,return,0.6696199999423698,,,,,,,,,,,,,,,,,p320,22,female,up_down_width,2025-12-19_08h01.25.920,exp1,2023.1.0,59.99430056789012,
,,,,,,,,,,,,,,,,5,8.6,9.3,10,10.7,11.4,0.7,0.1499999999999999,0.55,3.3499999999999996,10,initial,36.05,310,335,361,386,411,9,9,9,9,9,,,,,,,2,0,2,0,0,10,10,40,,,,,,,,,,,,,,3,0.6070250000339001,3,0.45,0.5,18.02146,return,0.9176214000908658,,,,,,,,,,,,,,,,,p320,22,female,up_down_width,2025-12-19_08h01.25.920,exp1,2023.1.0,59.99430056789012,
,,,,,,,,,,,,,,,,3,9.1,10,10.9,0,0,0.9,0.35,0.55,2.35,10,initial,36.05,328,361,393,0,0,9,9,9,0,0,,,,,,,2,0,2,0,0,11,11,11,,,,,,,,,,,,,,3,0.4569334000116214,3,0.45,0.45,16.21932,return,0.46940810000523925,,,,,,,,,,,,,,,,,p320,22,female,up_down_width,2025-12-19_08h01.25.920,exp1,2023.1.0,59.99430056789012,
,,,,,,,,,,,,,,,,3,8.2,10,11.8,0,0,1.8,1.55,0.25,3.85,10,match,36.05,296,361,425,0,0,9,9,9,0,0,,,,,,,2,0,2,0,0,12,12,49,,,,,,,,,,,,,,3,0.48476719995960593,3,0.45,0.15000000000000008,5.40644,return,1.2008947000140324,,,,,,,,,,,,,,,,,p320,22,female,up_down_width,2025-12-19_08h01.25.920,exp1,2023.1.0,59.99430056789012,
,,,,,,,,,,,,,,,,3,8.6,10,11.4,0,0,1.4,1.15,0.25,3.05,10,match,36.05,310,361,411,0,0,9,9,9,0,0,,,,,,,2,0,2,0,0,13,13,43,,,,,,,,,,,,,,3,0.8302532999077812,3,0.45,0.15000000000000008,5.40644,return,1.5961396999191493,,,,,,,,,,,,,,,,,p320,22,female,up_down_width,2025-12-19_08h01.25.920,exp1,2023.1.0,59.99430056789012,
,,,,,,,,,,,,,,,,3,8.2,10,11.8,0,0,1.7999999999999998,1.4,0.4,4,10,match,36.05,296,361,425,0,0,9,9,9,0,0,,,,,,,2,0,2,0,0,14,14,51,,,,,,,,,,,,,,3,0.4522315999493003,3,0.25,0.49999999999999994,18.02146,return,1.0583027000539005,,,,,,,,,,,,,,,,,p320,22,female,up_down_width,2025-12-19_08h01.25.920,exp1,2023.1.0,59.99430056789012,
,,,,,,,,,,,,,,,,5,8.95,9.475,10,10.525,11.05,0.525,0.275,0.25,2.35,10,match,36.05,323,342,361,379,398,9,9,9,9,9,,,,,,,2,0,2,0,0,15,15,25,,,,,,,,,,,,,,4,0.6663746000267565,4,0.2,0.2,7.20859,return,0.7030923999845982,,,,,,,,,,,,,,,,,p320,22,female,up_down_width,2025-12-19_08h01.25.920,exp1,2023.1.0,59.99430056789012,
,,,,,,,,,,,,,,,,3,8.9,10,11.1,0,0,1.1,0.55,0.55,2.75,10,initial,36.05,321,361,400,0,0,9,9,9,0,0,,,,,,,2,0,2,0,0,16,16,0,,,,,,,,,,,,,,3,1.0976876000640914,3,0.35,0.5499999999999999,19.82361,return,0.7162528000771999,,,,,,,,,,,,,,,,,p320,22,female,up_down_width,2025-12-19_08h01.25.920,exp1,2023.1.0,59.99430056789012,
,,,,,,,,,,,,,,,,4,9.1,9.7,10.3,10.9,0,0.6000000000000001,0.20000000000000004,0.4,2.2,10,match,36.05,328,350,371,393,0,9,9,9,9,0,,,,,,,2,0,2,0,0,17,17,16,,,,,,,,,,,,,,3,0.5135159000055864,3,0.25,0.49999999999999994,18.02146,return,1.0841867999406531,,,,,,,,,,,,,,,,,p320,22,female,up_down_width,2025-12-19_08h01.25.920,exp1,2023.1.0,59.99430056789012,
,,,,,,,,,,,,,,,,4,8.95,9.65,10.35,11.05,0,0.7,0.44999999999999996,0.25,2.3499999999999996,10,initial,36.05,323,348,373,398,0,9,9,9,9,0,,,,,,,2,0,2,0,0,18,18,24,,,,,,,,,,,,,,3,0.5326560999965295,3,0.5,0.15000000000000008,5.40644,return,2.158316000015475,,,,,,,,,,,,,,,,,p320,22,female,up_down_width,2025-12-19_08h01.25.920,exp1,2023.1.0,59.99430056789012,
,,,,,,,,,,,,,,,,4,8.35,9.45,10.55,11.65,0,1.1,0.55,0.55,3.8500000000000005,10,initial,36.05,301,341,380,420,0,9,9,9,9,0,,,,,,,2,0,2,0,0,19,19,17,,,,,,,,,,,,,,3,0.3850530000636354,3,0.3,0.44999999999999996,16.21932,return,1.2491497999290004,,,,,,,,,,,,,,,,,p320,22,female,up_down_width,2025-12-19_08h01.25.920,exp1,2023.1.0,59.99430056789012,
,,,,,,,,,,,,,,,,5,8.275,9.1375,10,10.8625,11.725,0.8625,0.6125,0.25,3.7,10,match,36.05,298,329,361,392,423,9,9,9,9,9,,,,,,,2,0,2,0,0,20,20,22,,,,,,,,,,,,,,4,0.5198952999198809,4,0.45,0.20000000000000007,7.20859,return,2.6414649999933317,,,,,,,,,,,,,,,,,p320,22,female,up_down_width,2025-12-19_08h01.25.920,exp1,2023.1.0,59.99430056789012,
,,,,,,,,,,,,,,,,5,7.8,8.9,10,11.1,12.2,1.1,0.7000000000000001,0.4,4.800000000000001,10,initial,36.05,281,321,361,400,440,9,9,9,9,9,,,,,,,2,0,2,0,0,21,21,38,,,,,,,,,,,,,,4,0.5755347000667825,4,0.2,0.2,7.20859,return,0.8386695999652147,,,,,,,,,,,,,,,,,p320,22,female,up_down_width,2025-12-19_08h01.25.920,exp1,2023.1.0,59.99430056789012,
,,,,,,,,,,,,,,,,3,7.800000000000001,10,12.2,0,0,2.1999999999999997,1.7999999999999998,0.4,4.8,10,match,36.05,281,361,440,0,0,9,9,9,0,0,,,,,,,2,0,2,0,0,22,22,39,,,,,,,,,,,,,,3,0.6109458999708295,3,0.2,0.5499999999999999,19.82361,return,2.665817900095135,,,,,,,,,,,,,,,,,p320,22,female,up_down_width,2025-12-19_08h01.25.920,exp1,2023.1.0,59.99430056789012,
,,,,,,,,,,,,,,,,3,9.1,10,10.9,0,0,0.9,0.5,0.4,2.2,10,initial,36.05,328,361,393,0,0,9,9,9,0,0,,,,,,,2,0,2,0,0,23,23,15,,,,,,,,,,,,,,2,0.6353785999817774,2,0.55,0.55,19.82361,return,0.8969167999457568,,,,,,,,,,,,,,,,,p320,22,female,up_down_width,2025-12-19_08h01.25.920,exp1,2023.1.0,59.99430056789012,
,,,,,,,,,,,,,,,,4,9.1,9.7,10.3,10.9,0,0.6,0.04999999999999997,0.55,2.35,10,match,36.05,328,350,371,393,0,9,9,9,9,0,,,,,,,2,0,2,0,0,24,24,12,,,,,,,,,,,,,,3,0.6660921999718994,3,0.25,0.8000000000000002,28.83434,return,1.9350392000051215,,,,,,,,,,,,,,,,,p320,22,female,up_down_width,2025-12-19_08h01.25.920,exp1,2023.1.0,59.99430056789012,
,,,,,,,,,,,,,,,,3,8.6,10,11.4,0,0,1.4,0.85,0.55,3.35,10,match,36.05,310,361,411,0,0,9,9,9,0,0,,,,,,,2,0,2,0,0,25,25,41,,,,,,,,,,,,,,3,0.45129339990671724,3,0.35,0.49999999999999994,18.02146,return,0.8629051999887452,,,,,,,,,,,,,,,,,p320,22,female,up_down_width,2025-12-19_08h01.25.920,exp1,2023.1.0,59.99430056789012,
,,,,,,,,,,,,,,,,5,8.2,9.1,10,10.9,11.8,0.9,0.5,0.4,4,10,initial,36.05,296,328,361,393,425,9,9,9,9,9,,,,,,,2,0,2,0,0,26,26,50,,,,,,,,,,,,,,4,0.6218312999699265,4,0.25,0.35,12.61502,return,0.6110208999598399,,,,,,,,,,,,,,,,,p320,22,female,up_down_width,2025-12-19_08h01.25.920,exp1,2023.1.0,59.99430056789012,
,,,,,,,,,,,,,,,,3,9.3,10,10.7,0,0,0.7,0.29999999999999993,0.4,1.8,10,initial,36.05,335,361,386,0,0,9,9,9,0,0,,,,,,,2,0,2,0,0,27,27,9,,,,,,,,,,,,,,3,0.5244300999911502,3,0.2,0.25,9.01073,return,1.0456506999908015,,,,,,,,,,,,,,,,,p320,22,female,up_down_width,2025-12-19_08h01.25.920,exp1,2023.1.0,59.99430056789012,
,,,,,,,,,,,,,,,,4,8.9,9.633333333333333,10.366666666666667,11.1,0,0.7333333333333333,0.18333333333333326,0.55,2.75,10,match,36.05,321,347,374,400,0,9,9,9,9,0,,,,,,,2,0,2,0,0,28,28,1,,,,,,,,,,,,,,4,0.6778073000023142,4,0.55,0.6000000000000001,21.62576,return,0.8895491999574006,,,,,,,,,,,,,,,,,p320,22,female,up_down_width,2025-12-19_08h01.25.920,exp1,2023.1.0,59.99430056789012,
,,,,,,,,,,,,,,,,3,9.1,10,10.9,0,0,0.9,0.65,0.25,2.05,10,initial,36.05,328,361,393,0,0,9,9,9,0,0,,,,,,,2,0,2,0,0,29,29,13,,,,,,,,,,,,,,2,0.621550599928014,2,0.5,0.5,18.02146,return,0.30775399995036423,,,,,,,,,,,,,,,,,p320,22,female,up_down_width,2025-12-19_08h01.25.920,exp1,2023.1.0,59.99430056789012,
,,,,,,,,,,,,,,,,4,8.65,9.55,10.45,11.35,0,0.9,0.65,0.25,2.95,10,initial,36.05,312,344,377,409,0,9,9,9,9,0,,,,,,,2,0,2,0,0,30,30,30,,,,,,,,,,,,,,3,0.5853955000638962,3,0.25,0.3,10.81288,return,0.7369346000486985,,,,,,,,,,,,,,,,,p320,22,female,up_down_width,2025-12-19_08h01.25.920,exp1,2023.1.0,59.99430056789012,
,,,,,,,,,,,,,,,,4,8.65,9.55,10.45,11.35,0,0.9,0.35,0.55,3.25,10,initial,36.05,312,344,377,409,0,9,9,9,9,0,,,,,,,2,0,2,0,0,31,31,28,,,,,,,,,,,,,,3,0.5444444000022486,3,0.5,0.7000000000000002,25.23005,return,0.7781905999872833,,,,,,,,,,,,,,,,,p320,22,female,up_down_width,2025-12-19_08h01.25.920,exp1,2023.1.0,59.99430056789012,
,,,,,,,,,,,,,,,,5,8.6,9.3,10,10.7,11.4,0.7,0.44999999999999996,0.25,3.05,10,initial,36.05,310,335,361,386,411,9,9,9,9,9,,,,,,,2,0,2,0,0,32,32,42,,,,,,,,,,,,,,4,0.9993285000091419,4,0.2,0.2,7.20859,return,1.1509419000940397,,,,,,,,,,,,,,,,,p320,22,female,up_down_width,2025-12-19_08h01.25.920,exp1,2023.1.0,59.99430056789012,
,,,,,,,,,,,,,,,,5,8.6,9.3,10,10.7,11.4,0.7,0.29999999999999993,0.4,3.1999999999999997,10,initial,36.05,310,335,361,386,411,9,9,9,9,9,,,,,,,2,0,2,0,0,33,33,44,,,,,,,,,,,,,,5,1.4476184999803081,5,0.35,0.35,12.61502,return,1.4372196999611333,,,,,,,,,,,,,,,,,p320,22,female,up_down_width,2025-12-19_08h01.25.920,exp1,2023.1.0,59.99430056789012,
,,,,,,,,,,,,,,,,3,8.525,10,11.475,0,0,1.475,1.225,0.25,3.2,10,match,36.05,307,361,414,0,0,9,9,9,0,0,,,,,,,2,0,2,0,0,34,34,45,,,,,,,,,,,,,,3,3.121385500067845,3,0.25,0.25,9.01073,return,1.0747589999809861,,,,,,,,,,,,,,,,,p320,22,female,up_down_width,2025-12-19_08h01.25.920,exp1,2023.1.0,59.99430056789012,
,,,,,,,,,,,,,,,,5,7.8,8.9,10,11.1,12.2,1.1,0.8500000000000001,0.25,4.65,10,initial,36.05,281,321,361,400,440,9,9,9,9,9,,,,,,,2,0,2,0,0,35,35,36,,,,,,,,,,,,,,4,2.655631099944003,4,0.25,0.2,7.20859,return,2.387399600003846,,,,,,,,,,,,,,,,,p320,22,female,up_down_width,2025-12-19_08h01.25.920,exp1,2023.1.0,59.99430056789012,
,,,,,,,,,,,,,,,,4,8.65,9.55,10.45,11.35,0,0.9,0.5,0.4,3.1,10,initial,36.05,312,344,377,409,0,9,9,9,9,0,,,,,,,2,0,2,0,0,36,36,32,,,,,,,,,,,,,,4,1.1916188999311998,4,0.45,0.55,19.82361,return,0.7265909999841824,,,,,,,,,,,,,,,,,p320,22,female,up_down_width,2025-12-19_08h01.25.920,exp1,2023.1.0,59.99430056789012,
,,,,,,,,,,,,,,,,5,8.2,9.1,10,10.9,11.8,0.9,0.65,0.25,3.85,10,initial,36.05,296,328,361,393,425,9,9,9,9,9,,,,,,,2,0,2,0,0,37,37,48,,,,,,,,,,,,,,5,0.72209430008661,5,0.55,0.4,14.41717,return,1.6366924000903964,,,,,,,,,,,,,,,,,p320,22,female,up_down_width,2025-12-19_08h01.25.920,exp1,2023.1.0,59.99430056789012,
,,,,,,,,,,,,,,,,4,8.825,9.608333333333333,10.391666666666667,11.175,0,0.7833333333333333,0.5333333333333333,0.25,2.6,10,match,36.05,318,346,375,403,0,9,9,9,9,0,,,,,,,2,0,2,0,0,38,38,5,,,,,,,,,,,,,,3,1.1401291000656784,3,0.5,0.30000000000000004,10.81288,return,1.2201006000395864,,,,,,,,,,,,,,,,,p320,22,female,up_down_width,2025-12-19_08h01.25.920,exp1,2023.1.0,59.99430056789012,
,,,,,,,,,,,,,,,,3,8.9,10,11.1,0,0,1.1,0.7000000000000001,0.4,2.6000000000000005,10,initial,36.05,321,361,400,0,0,9,9,9,0,0,,,,,,,2,0,2,0,0,39,39,4,,,,,,,,,,,,,,3,0.7523151000496,3,0.35,0.49999999999999994,18.02146,return,0.9615107999416068,,,,,,,,,,,,,,,,,p320,22,female,up_down_width,2025-12-19_08h01.25.920,exp1,2023.1.0,59.99430056789012,
,,,,,,,,,,,,,,,,5,8.35,9.175,10,10.825,11.65,0.8250000000000001,0.275,0.55,3.85,10,match,36.05,301,331,361,390,420,9,9,9,9,9,,,,,,,2,0,2,0,0,40,40,18,,,,,,,,,,,,,,4,0.7648336000274867,4,0.25,0.5499999999999999,19.82361,return,1.7730953000718728,,,,,,,,,,,,,,,,,p320,22,female,up_down_width,2025-12-19_08h01.25.920,exp1,2023.1.0,59.99430056789012,
,,,,,,,,,,,,,,,,5,8.65,9.325,10,10.675,11.35,0.675,0.42500000000000004,0.25,2.95,10,match,36.05,312,336,361,385,409,9,9,9,9,9,,,,,,,2,0,2,0,0,41,41,31,,,,,,,,,,,,,,4,0.6710619000950828,4,0.45,0.35000000000000003,12.61502,return,1.1542492000153288,,,,,,,,,,,,,,,,,p320,22,female,up_down_width,2025-12-19_08h01.25.920,exp1,2023.1.0,59.99430056789012,
,,,,,,,,,,,,,,,,4,9.3,9.766666666666667,10.233333333333333,10.7,0,0.4666666666666667,0.21666666666666665,0.25,1.65,10,match,36.05,335,352,369,386,0,9,9,9,9,0,,,,,,,2,0,2,0,0,42,42,8,,,,,,,,,,,,,,3,0.9831683000084013,3,0.55,0.35000000000000003,12.61502,return,1.8236992999445647,,,,,,,,,,,,,,,,,p320,22,female,up_down_width,2025-12-19_08h01.25.920,exp1,2023.1.0,59.99430056789012,
,,,,,,,,,,,,,,,,3,7.8,10,12.2,0,0,2.2,1.65,0.55,4.95,10,match,36.05,281,361,440,0,0,9,9,9,0,0,,,,,,,2,0,2,0,0,43,43,35,,,,,,,,,,,,,,3,0.9761580999474972,3,0.3,0.8500000000000002,30.63649,return,1.7840364000294358,,,,,,,,,,,,,,,,,p320,22,female,up_down_width,2025-12-19_08h01.25.920,exp1,2023.1.0,59.99430056789012,
,,,,,,,,,,,,,,,,4,9.3,9.766666666666667,10.233333333333333,10.7,0,0.4666666666666667,0.06666666666666665,0.4,1.8,10,match,36.05,335,352,369,386,0,9,9,9,9,0,,,,,,,2,0,2,0,0,44,44,10,,,,,,,,,,,,,,3,0.8196088999975473,3,0.4,0.35000000000000003,12.61502,return,1.0254278000211343,,,,,,,,,,,,,,,,,p320,22,female,up_down_width,2025-12-19_08h01.25.920,exp1,2023.1.0,59.99430056789012,
,,,,,,,,,,,,,,,,4,9.1,9.7,10.3,10.9,0,0.5999999999999999,0.3499999999999999,0.25,2.05,10,match,36.05,328,350,371,393,0,9,9,9,9,0,,,,,,,2,0,2,0,0,45,45,14,,,,,,,,,,,,,,4,0.8222537999972701,4,0.5,0.30000000000000004,10.81288,return,1.2682282000314444,,,,,,,,,,,,,,,,,p320,22,female,up_down_width,2025-12-19_08h01.25.920,exp1,2023.1.0,59.99430056789012,
,,,,,,,,,,,,,,,,5,8.65,9.325,10,10.675,11.35,0.675,0.125,0.55,3.25,10,match,36.05,312,336,361,385,409,9,9,9,9,9,,,,,,,2,0,2,0,0,46,46,29,,,,,,,,,,,,,,4,0.8977624999824911,4,0.25,0.44999999999999996,16.21932,return,1.628902000025846,,,,,,,,,,,,,,,,,p320,22,female,up_down_width,2025-12-19_08h01.25.920,exp1,2023.1.0,59.99430056789012,
,,,,,,,,,,,,,,,,5,8.35,9.175,10,10.825,11.65,0.825,0.575,0.25,3.55,10,match,36.05,301,331,361,390,420,9,9,9,9,9,,,,,,,2,0,2,0,0,47,47,20,,,,,,,,,,,,,,4,0.5577528999419883,4,0.45,0.25000000000000006,9.01073,return,1.0619854000397027,,,,,,,,,,,,,,,,,p320,22,female,up_down_width,2025-12-19_08h01.25.920,exp1,2023.1.0,59.99430056789012,
,,,,,,,,,,,,,,,,3,8.2,10,11.8,0,0,1.8,1.25,0.55,4.15,10,match,36.05,296,361,425,0,0,9,9,9,0,0,,,,,,,2,0,2,0,0,48,48,47,,,,,,,,,,,,,,3,0.8560466000344604,3,0.45,0.9500000000000004,34.24078,return,1.4769043000414968,,,,,,,,,,,,,,,,,p320,22,female,up_down_width,2025-12-19_08h01.25.920,exp1,2023.1.0,59.99430056789012,
,,,,,,,,,,,,,,,,3,8.9,10,11.1,0,0,1.1,0.8500000000000001,0.25,2.45,10,initial,36.05,321,361,400,0,0,9,9,9,0,0,,,,,,,2,0,2,0,0,49,49,2,,,,,,,,,,,,,,3,0.9130300000542775,3,0.45,0.25000000000000006,9.01073,return,2.41223729995545,,,,,,,,,,,,,,,,,p320,22,female,up_down_width,2025-12-19_08h01.25.920,exp1,2023.1.0,59.99430056789012,
,,,,,,,,,,,,,,,,5,8.2,9.1,10,10.9,11.8,0.9,0.35,0.55,4.15,10,initial,36.05,296,328,361,393,425,9,9,9,9,9,,,,,,,2,0,2,0,0,50,50,46,,,,,,,,,,,,,,4,0.7183441000524908,4,0.45,0.6000000000000001,21.62576,return,0.6562518000137061,,,,,,,,,,,,,,,,,p320,22,female,up_down_width,2025-12-19_08h01.25.920,exp1,2023.1.0,59.99430056789012,
,,,,,,,,,,,,,,,,4,8.95,9.65,10.35,11.05,0,0.7,0.1499999999999999,0.55,2.65,10,initial,36.05,323,348,373,398,0,9,9,9,9,0,,,,,,,2,0,2,0,0,51,51,23,,,,,,,,,,,,,,3,0.6903122999938205,3,0.45,0.6000000000000001,21.62576,return,0.773929400020279,,,,,,,,,,,,,,,,,p320,22,female,up_down_width,2025-12-19_08h01.25.920,exp1,2023.1.0,59.99430056789012,
,,,,,,,,,,,,,,,,,,,,,,,,,,,,,,,,,,,,,,,,,,,,,2,0,2,0,,,,,,,,,,,,,,,,,,,,,,,,,,,,2499.9064291999675,2499.9064291999675,2499.9064291999675,,,,,,,,,,,,p320,22,female,up_down_width,2025-12-19_08h01.25.920,exp1,2023.1.0,59.99430056789012,
,,,,,,,,,,,,,,,,5,8.2,9.1,10,10.9,11.8,0.9,0.65,0.25,3.85,10,initial,36.05,296,328,361,393,425,9,9,9,9,9,,,,,,,3,0,3,0,0,0,0,48,,,,,,,,,,,,,,4,1.041014299960807,4,0.3,0.2,7.20859,return,0.6456682999851182,,,,,,,,,,,,,,,,,p320,22,female,up_down_width,2025-12-19_08h01.25.920,exp1,2023.1.0,59.99430056789012,
,,,,,,,,,,,,,,,,5,7.8,8.9,10,11.1,12.2,1.1,0.8500000000000001,0.25,4.65,10,initial,36.05,281,321,361,400,440,9,9,9,9,9,,,,,,,3,0,3,0,0,1,1,36,,,,,,,,,,,,,,5,0.7078056999016553,5,0.35,0.25,9.01073,return,0.5508911999640986,,,,,,,,,,,,,,,,,p320,22,female,up_down_width,2025-12-19_08h01.25.920,exp1,2023.1.0,59.99430056789012,
,,,,,,,,,,,,,,,,3,8.9,10,11.1,0,0,1.1,0.55,0.55,2.75,10,initial,36.05,321,361,400,0,0,9,9,9,0,0,,,,,,,3,0,3,0,0,2,2,0,,,,,,,,,,,,,,4,0.403588299988769,4,0.2,0.2,7.20859,return,0.9309616000391543,,,,,,,,,,,,,,,,,p320,22,female,up_down_width,2025-12-19_08h01.25.920,exp1,2023.1.0,59.99430056789012,
,,,,,,,,,,,,,,,,4,8.65,9.55,10.45,11.35,0,0.9,0.35,0.55,3.25,10,initial,36.05,312,344,377,409,0,9,9,9,9,0,,,,,,,3,0,3,0,0,3,3,28,,,,,,,,,,,,,,3,0.778099900111556,3,0.5,0.6000000000000001,21.62576,return,0.858459800016135,,,,,,,,,,,,,,,,,p320,22,female,up_down_width,2025-12-19_08h01.25.920,exp1,2023.1.0,59.99430056789012,
,,,,,,,,,,,,,,,,3,9.1,10,10.9,0,0,0.9,0.65,0.25,2.05,10,initial,36.05,328,361,393,0,0,9,9,9,0,0,,,,,,,3,0,3,0,0,4,4,13,,,,,,,,,,,,,,3,0.6096980998991057,3,0.4,0.25000000000000006,9.01073,return,1.240382199990563,,,,,,,,,,,,,,,,,p320,22,female,up_down_width,2025-12-19_08h01.25.920,exp1,2023.1.0,59.99430056789012,
,,,,,,,,,,,,,,,,5,8.6,9.3,10,10.7,11.4,0.7,0.1499999999999999,0.55,3.3499999999999996,10,initial,36.05,310,335,361,386,411,9,9,9,9,9,,,,,,,3,0,3,0,0,5,5,40,,,,,,,,,,,,,,3,0.47947309992741793,3,0.25,0.65,23.4279,return,2.2350584999658167,,,,,,,,,,,,,,,,,p320,22,female,up_down_width,2025-12-19_08h01.25.920,exp1,2023.1.0,59.99430056789012,
,,,,,,,,,,,,,,,,3,8.2,10,11.8,0,0,1.7999999999999998,1.4,0.4,4,10,match,36.05,296,361,425,0,0,9,9,9,0,0,,,,,,,3,0,3,0,0,6,6,51,,,,,,,,,,,,,,3,0.5150026000337675,3,0.55,0.55,19.82361,return,1.308179600047879,,,,,,,,,,,,,,,,,p320,22,female,up_down_width,2025-12-19_08h01.25.920,exp1,2023.1.0,59.99430056789012,
,,,,,,,,,,,,,,,,4,8.35,9.45,10.55,11.65,0,1.1,0.7000000000000001,0.4,3.7,10,initial,36.05,301,341,380,420,0,9,9,9,9,0,,,,,,,3,0,3,0,0,7,7,21,,,,,,,,,,,,,,4,0.6488706999225542,4,0.35,0.35,12.61502,return,0.6548905000090599,,,,,,,,,,,,,,,,,p320,22,female,up_down_width,2025-12-19_08h01.25.920,exp1,2023.1.0,59.99430056789012,
,,,,,,,,,,,,,,,,4,8.95,9.65,10.35,11.05,0,0.7,0.29999999999999993,0.4,2.5,10,initial,36.05,323,348,373,398,0,9,9,9,9,0,,,,,,,3,0,3,0,0,8,8,26,,,,,,,,,,,,,,3,1.240312699927017,3,0.3,0.3,10.81288,return,0.7411502000177279,,,,,,,,,,,,,,,,,p320,22,female,up_down_width,2025-12-19_08h01.25.920,exp1,2023.1.0,59.99430056789012,
,,,,,,,,,,,,,,,,4,8.35,9.45,10.55,11.65,0,1.1,0.55,0.55,3.8500000000000005,10,initial,36.05,301,341,380,420,0,9,9,9,9,0,,,,,,,3,0,3,0,0,9,9,17,,,,,,,,,,,,,,3,1.2805088999448344,3,0.3,0.39999999999999997,14.41717,return,1.6441460999194533,,,,,,,,,,,,,,,,,p320,22,female,up_down_width,2025-12-19_08h01.25.920,exp1,2023.1.0,59.99430056789012,
,,,,,,,,,,,,,,,,4,9.3,9.766666666666667,10.233333333333333,10.7,0,0.4666666666666667,0.06666666666666665,0.4,1.8,10,match,36.05,335,352,369,386,0,9,9,9,9,0,,,,,,,3,0,3,0,0,10,10,10,,,,,,,,,,,,,,4,0.7978812999790534,4,0.35,0.39999999999999997,14.41717,return,0.8289582000579685,,,,,,,,,,,,,,,,,p320,22,female,up_down_width,2025-12-19_08h01.25.920,exp1,2023.1.0,59.99430056789012,
,,,,,,,,,,,,,,,,4,8.35,9.45,10.55,11.65,0,1.1,0.8500000000000001,0.25,3.5500000000000003,10,initial,36.05,301,341,380,420,0,9,9,9,9,0,,,,,,,3,0,3,0,0,11,11,19,,,,,,,,,,,,,,3,0.6618034000275657,3,0.2,0.3,10.81288,return,0.8254370000213385,,,,,,,,,,,,,,,,,p320,22,female,up_down_width,2025-12-19_08h01.25.920,exp1,2023.1.0,59.99430056789012,
,,,,,,,,,,,,,,,,5,8.65,9.325,10,10.675,11.35,0.675,0.275,0.4,3.1,10,match,36.05,312,336,361,385,409,9,9,9,9,9,,,,,,,3,0,3,0,0,12,12,33,,,,,,,,,,,,,,4,0.7219269999768585,4,0.2,0.3,10.81288,return,0.819261199911125,,,,,,,,,,,,,,,,,p320,22,female,up_down_width,2025-12-19_08h01.25.920,exp1,2023.1.0,59.99430056789012,
,,,,,,,,,,,,,,,,5,8.95,9.475,10,10.525,11.05,0.525,0.125,0.4,2.5,10,match,36.05,323,342,361,379,398,9,9,9,9,9,,,,,,,3,0,3,0,0,13,13,27,,,,,,,,,,,,,,4,0.6347421000245959,4,0.45,0.35000000000000003,12.61502,return,1.2144220999907702,,,,,,,,,,,,,,,,,p320,22,female,up_down_width,2025-12-19_08h01.25.920,exp1,2023.1.0,59.99430056789012,
,,,,,,,,,,,,,,,,4,8.65,9.55,10.45,11.35,0,0.9,0.65,0.25,2.95,10,initial,36.05,312,344,377,409,0,9,9,9,9,0,,,,,,,3,0,3,0,0,14,14,30,,,,,,,,,,,,,,4,0.6029313000617549,4,0.2,0.25,9.01073,return,0.8658802999416366,,,,,,,,,,,,,,,,,p320,22,female,up_down_width,2025-12-19_08h01.25.920,exp1,2023.1.0,59.99430056789012,
,,,,,,,,,,,,,,,,5,8.2,9.1,10,10.9,11.8,0.9,0.35,0.55,4.15,10,initial,36.05,296,328,361,393,425,9,9,9,9,9,,,,,,,3,0,3,0,0,15,15,46,,,,,,,,,,,,,,4,0.9794968999922276,4,0.5,0.5,18.02146,return,0.5720166000537574,,,,,,,,,,,,,,,,,p320,22,female,up_down_width,2025-12-19_08h01.25.920,exp1,2023.1.0,59.99430056789012,
,,,,,,,,,,,,,,,,5,8.35,9.175,10,10.825,11.65,0.8250000000000001,0.275,0.55,3.85,10,match,36.05,301,331,361,390,420,9,9,9,9,9,,,,,,,3,0,3,0,0,16,16,18,,,,,,,,,,,,,,4,0.5389840999851003,4,0.3,0.39999999999999997,14.41717,return,1.092548199929297,,,,,,,,,,,,,,,,,p320,22,female,up_down_width,2025-12-19_08h01.25.920,exp1,2023.1.0,59.99430056789012,
,,,,,,,,,,,,,,,,5,8.6,9.3,10,10.7,11.4,0.7,0.44999999999999996,0.25,3.05,10,initial,36.05,310,335,361,386,411,9,9,9,9,9,,,,,,,3,0,3,0,0,17,17,42,,,,,,,,,,,,,,4,0.5376217000884935,4,0.45,0.35000000000000003,12.61502,return,0.7236143000191078,,,,,,,,,,,,,,,,,p320,22,female,up_down_width,2025-12-19_08h01.25.920,exp1,2023.1.0,59.99430056789012,
,,,,,,,,,,,,,,,,3,9.3,10,10.7,0,0,0.7,0.44999999999999996,0.25,1.65,10,initial,36.05,335,361,386,0,0,9,9,9,0,0,,,,,,,3,0,3,0,0,18,18,7,,,,,,,,,,,,,,3,0.39368950005155057,3,0.45,0.25000000000000006,9.01073,return,1.8160392000572756,,,,,,,,,,,,,,,,,p320,22,female,up_down_width,2025-12-19_08h01.25.920,exp1,2023.1.0,59.99430056789012,
,,,,,,,,,,,,,,,,4,8.9,9.633333333333333,10.366666666666667,11.1,0,0.7333333333333333,0.18333333333333326,0.55,2.75,10,match,36.05,321,347,374,400,0,9,9,9,9,0,,,,,,,3,0,3,0,0,19,19,1,,,,,,,,,,,,,,3,0.5663512999890372,3,0.55,0.6500000000000001,23.4279,return,0.5913775999797508,,,,,,,,,,,,,,,,,p320,22,female,up_down_width,2025-12-19_08h01.25.920,exp1,2023.1.0,59.99430056789012,
,,,,,,,,,,,,,,,,4,9.1,9.7,10.3,10.9,0,0.6000000000000001,0.20000000000000004,0.4,2.2,10,match,36.05,328,350,371,393,0,9,9,9,9,0,,,,,,,3,0,3,0,0,20,20,16,,,,,,,,,,,,,,4,0.4949772000545636,4,0.55,0.45,16.21932,return,0.9377452000044286,,,,,,,,,,,,,,,,,p320,22,female,up_down_width,2025-12-19_08h01.25.920,exp1,2023.1.0,59.99430056789012,
,,,,,,,,,,,,,,,,5,7.8,8.9,10,11.1,12.2,1.1,0.7000000000000001,0.4,4.800000000000001,10,initial,36.05,281,321,361,400,440,9,9,9,9,9,,,,,,,3,0,3,0,0,21,21,38,,,,,,,,,,,,,,4,0.5995339000364766,4,0.25,0.3,10.81288,return,0.975469300057739,,,,,,,,,,,,,,,,,p320,22,female,up_down_width,2025-12-19_08h01.25.920,exp1,2023.1.0,59.99430056789012,
,,,,,,,,,,,,,,,,4,9.3,9.766666666666667,10.233333333333333,10.7,0,0.4666666666666667,0.21666666666666665,0.25,1.65,10,match,36.05,335,352,369,386,0,9,9,9,9,0,,,,,,,3,0,3,0,0,22,22,8,,,,,,,,,,,,,,4,0.7882830000016838,4,0.4,0.30000000000000004,10.81288,return,1.4765594999771565,,,,,,,,,,,,,,,,,p320,22,female,up_down_width,2025-12-19_08h01.25.920,exp1,2023.1.0,59.99430056789012,
,,,,,,,,,,,,,,,,3,8.2,10,11.8,0,0,1.8,1.55,0.25,3.85,10,match,36.05,296,361,425,0,0,9,9,9,0,0,,,,,,,3,0,3,0,0,23,23,49,,,,,,,,,,,,,,3,0.4224919999251142,3,0.3,0.2,7.20859,return,0.9476467000786215,,,,,,,,,,,,,,,,,p320,22,female,up_down_width,2025-12-19_08h01.25.920,exp1,2023.1.0,59.99430056789012,
,,,,,,,,,,,,,,,,4,9.1,9.7,10.3,10.9,0,0.5999999999999999,0.3499999999999999,0.25,2.05,10,match,36.05,328,350,371,393,0,9,9,9,9,0,,,,,,,3,0,3,0,0,24,24,14,,,,,,,,,,,,,,4,1.7201775000430644,4,0.35,0.2,7.20859,return,1.057620199979283,,,,,,,,,,,,,,,,,p320,22,female,up_down_width,2025-12-19_08h01.25.920,exp1,2023.1.0,59.99430056789012,
,,,,,,,,,,,,,,,,4,8.65,9.55,10.45,11.35,0,0.9,0.5,0.4,3.1,10,initial,36.05,312,344,377,409,0,9,9,9,9,0,,,,,,,3,0,3,0,0,25,25,32,,,,,,,,,,,,,,4,1.3129558999789879,4,0.3,0.3,10.81288,return,0.6194963000016287,,,,,,,,,,,,,,,,,p320,22,female,up_down_width,2025-12-19_08h01.25.920,exp1,2023.1.0,59.99430056789012,
,,,,,,,,,,,,,,,,5,8.95,9.475,10,10.525,11.05,0.525,0.275,0.25,2.35,10,match,36.05,323,342,361,379,398,9,9,9,9,9,,,,,,,3,0,3,0,0,26,26,25,,,,,,,,,,,,,,4,4.771424300037324,4,0.45,0.25000000000000006,9.01073,return,1.8263584000524133,,,,,,,,,,,,,,,,,p320,22,female,up_down_width,2025-12-19_08h01.25.920,exp1,2023.1.0,59.99430056789012,
,,,,,,,,,,,,,,,,3,9.3,10,10.7,0,0,0.7,0.1499999999999999,0.55,1.95,10,initial,36.05,335,361,386,0,0,9,9,9,0,0,,,,,,,3,0,3,0,0,27,27,6,,,,,,,,,,,,,,3,1.0474853999912739,3,0.4,0.45,16.21932,return,2.7801166999852285,,,,,,,,,,,,,,,,,p320,22,female,up_down_width,2025-12-19_08h01.25.920,exp1,2023.1.0,59.99430056789012,
,,,,,,,,,,,,,,,,3,9.3,10,10.7,0,0,0.7,0.29999999999999993,0.4,1.8,10,initial,36.05,335,361,386,0,0,9,9,9,0,0,,,,,,,3,0,3,0,0,28,28,9,,,,,,,,,,,,,,3,1.001891600084491,3,0.55,0.6000000000000001,21.62576,return,0.7044143999228254,,,,,,,,,,,,,,,,,p320,22,female,up_down_width,2025-12-19_08h01.25.920,exp1,2023.1.0,59.99430056789012,
,,,,,,,,,,,,,,,,3,7.8,10,12.2,0,0,2.2,1.65,0.55,4.95,10,match,36.05,281,361,440,0,0,9,9,9,0,0,,,,,,,3,0,3,0,0,29,29,35,,,,,,,,,,,,,,4,0.994307899964042,4,0.3,0.5499999999999999,19.82361,return,1.0975808000657707,,,,,,,,,,,,,,,,,p320,22,female,up_down_width,2025-12-19_08h01.25.920,exp1,2023.1.0,59.99430056789012,
,,,,,,,,,,,,,,,,5,8.275,9.1375,10,10.8625,11.725,0.8625,0.6125,0.25,3.7,10,match,36.05,298,329,361,392,423,9,9,9,9,9,,,,,,,3,0,3,0,0,30,30,22,,,,,,,,,,,,,,3,0.623505900031887,3,0.5,0.20000000000000007,7.20859,return,1.6843367000110447,,,,,,,,,,,,,,,,,p320,22,female,up_down_width,2025-12-19_08h01.25.920,exp1,2023.1.0,59.99430056789012,
,,,,,,,,,,,,,,,,3,8.6,10,11.4,0,0,1.4,0.85,0.55,3.35,10,match,36.05,310,361,411,0,0,9,9,9,0,0,,,,,,,3,0,3,0,0,31,31,41,,,,,,,,,,,,,,3,0.9516288000158966,3,0.45,0.55,19.82361,return,0.5933504999848083,,,,,,,,,,,,,,,,,p320,22,female,up_down_width,2025-12-19_08h01.25.920,exp1,2023.1.0,59.99430056789012,
,,,,,,,,,,,,,,,,3,8.9,10,11.1,0,0,1.1,0.8500000000000001,0.25,2.45,10,initial,36.05,321,361,400,0,0,9,9,9,0,0,,,,,,,3,0,3,0,0,32,32,2,,,,,,,,,,,,,,3,0.43836849997751415,3,0.45,0.30000000000000004,10.81288,return,1.4602013999829069,,,,,,,,,,,,,,,,,p320,22,female,up_down_width,2025-12-19_08h01.25.920,exp1,2023.1.0,59.99430056789012,
,,,,,,,,,,,,,,,,4,8.95,9.65,10.35,11.05,0,0.7,0.1499999999999999,0.55,2.65,10,initial,36.05,323,348,373,398,0,9,9,9,9,0,,,,,,,3,0,3,0,0,33,33,23,,,,,,,,,,,,,,4,0.7064336000476032,4,0.3,0.65,23.4279,return,1.4613451999612153,,,,,,,,,,,,,,,,,p320,22,female,up_down_width,2025-12-19_08h01.25.920,exp1,2023.1.0,59.99430056789012,
,,,,,,,,,,,,,,,,4,9.1,9.7,10.3,10.9,0,0.6,0.04999999999999997,0.55,2.35,10,match,36.05,328,350,371,393,0,9,9,9,9,0,,,,,,,3,0,3,0,0,34,34,12,,,,,,,,,,,,,,3,0.9075409000506625,3,0.4,0.6500000000000001,23.4279,return,0.9343347999965772,,,,,,,,,,,,,,,,,p320,22,female,up_down_width,2025-12-19_08h01.25.920,exp1,2023.1.0,59.99430056789012,
,,,,,,,,,,,,,,,,5,8.65,9.325,10,10.675,11.35,0.675,0.125,0.55,3.25,10,match,36.05,312,336,361,385,409,9,9,9,9,9,,,,,,,3,0,3,0,0,35,35,29,,,,,,,,,,,,,,4,0.9990269000409171,4,0.3,0.5499999999999999,19.82361,return,1.502601399901323,,,,,,,,,,,,,,,,,p320,22,female,up_down_width,2025-12-19_08h01.25.920,exp1,2023.1.0,59.99430056789012,
,,,,,,,,,,,,,,,,3,8.2,10,11.8,0,0,1.8,1.25,0.55,4.15,10,match,36.05,296,361,425,0,0,9,9,9,0,0,,,,,,,3,0,3,0,0,36,36,47,,,,,,,,,,,,,,3,0.6995027000084519,3,0.55,0.7000000000000002,25.23005,return,0.9754926000023261,,,,,,,,,,,,,,,,,p320,22,female,up_down_width,2025-12-19_08h01.25.920,exp1,2023.1.0,59.99430056789012,
,,,,,,,,,,,,,,,,3,7.800000000000001,10,12.2,0,0,2.1999999999999997,1.7999999999999998,0.4,4.8,10,match,36.05,281,361,440,0,0,9,9,9,0,0,,,,,,,3,0,3,0,0,37,37,39,,,,,,,,,,,,,,3,1.1287574999732897,3,0.55,0.4,14.41717,return,0.8748721999581903,,,,,,,,,,,,,,,,,p320,22,female,up_down_width,2025-12-19_08h01.25.920,exp1,2023.1.0,59.99430056789012,
,,,,,,,,,,,,,,,,3,8.6,10,11.4,0,0,1.4,1.15,0.25,3.05,10,match,36.05,310,361,411,0,0,9,9,9,0,0,,,,,,,3,0,3,0,0,38,38,43,,,,,,,,,,,,,,3,0.504888299969025,3,0.3,0.25,9.01073,return,0.6924852000083774,,,,,,,,,,,,,,,,,p320,22,female,up_down_width,2025-12-19_08h01.25.920,exp1,2023.1.0,59.99430056789012,
,,,,,,,,,,,,,,,,3,8.525,10,11.475,0,0,1.475,1.225,0.25,3.2,10,match,36.05,307,361,414,0,0,9,9,9,0,0,,,,,,,3,0,3,0,0,39,39,45,,,,,,,,,,,,,,3,0.46865840000100434,3,0.3,0.2,7.20859,return,1.3777008999604732,,,,,,,,,,,,,,,,,p320,22,female,up_down_width,2025-12-19_08h01.25.920,exp1,2023.1.0,59.99430056789012,
,,,,,,,,,,,,,,,,4,8.9,9.633333333333333,10.366666666666667,11.1,0,0.7333333333333334,0.4833333333333334,0.25,2.45,10,match,36.05,321,347,374,400,0,9,9,9,9,0,,,,,,,3,0,3,0,0,40,40,3,,,,,,,,,,,,,,3,1.4023944000946358,3,0.25,0.2,7.20859,return,0.897869799984619,,,,,,,,,,,,,,,,,p320,22,female,up_down_width,2025-12-19_08h01.25.920,exp1,2023.1.0,59.99430056789012,
,,,,,,,,,,,,,,,,3,7.8,10,12.2,0,0,2.2,1.9500000000000002,0.25,4.65,10,match,36.05,281,361,440,0,0,9,9,9,0,0,,,,,,,3,0,3,0,0,41,41,37,,,,,,,,,,,,,,3,0.5351865000557154,3,0.3,0.3,10.81288,return,0.5434869000455365,,,,,,,,,,,,,,,,,p320,22,female,up_down_width,2025-12-19_08h01.25.920,exp1,2023.1.0,59.99430056789012,
,,,,,,,,,,,,,,,,5,8.35,9.175,10,10.825,11.65,0.825,0.575,0.25,3.55,10,match,36.05,301,331,361,390,420,9,9,9,9,9,,,,,,,3,0,3,0,0,42,42,20,,,,,,,,,,,,,,4,1.1976570999249816,4,0.4,0.30000000000000004,10.81288,return,1.1329878000542521,,,,,,,,,,,,,,,,,p320,22,female,up_down_width,2025-12-19_08h01.25.920,exp1,2023.1.0,59.99430056789012,
,,,,,,,,,,,,,,,,3,9.1,10,10.9,0,0,0.9,0.5,0.4,2.2,10,initial,36.05,328,361,393,0,0,9,9,9,0,0,,,,,,,3,0,3,0,0,43,43,15,,,,,,,,,,,,,,3,0.6373511999845505,3,0.25,0.35,12.61502,return,1.251096999971196,,,,,,,,,,,,,,,,,p320,22,female,up_down_width,2025-12-19_08h01.25.920,exp1,2023.1.0,59.99430056789012,
,,,,,,,,,,,,,,,,5,8.2,9.1,10,10.9,11.8,0.9,0.5,0.4,4,10,initial,36.05,296,328,361,393,425,9,9,9,9,9,,,,,,,3,0,3,0,0,44,44,50,,,,,,,,,,,,,,4,0.6695956001058221,4,0.2,0.35,12.61502,return,1.1371752000413835,,,,,,,,,,,,,,,,,p320,22,female,up_down_width,2025-12-19_08h01.25.920,exp1,2023.1.0,59.99430056789012,
,,,,,,,,,,,,,,,,4,8.95,9.65,10.35,11.05,0,0.7,0.44999999999999996,0.25,2.3499999999999996,10,initial,36.05,323,348,373,398,0,9,9,9,9,0,,,,,,,3,0,3,0,0,45,45,24,,,,,,,,,,,,,,4,0.5721655000234023,4,0.3,0.35,12.61502,return,0.9325087999459356,,,,,,,,,,,,,,,,,p320,22,female,up_down_width,2025-12-19_08h01.25.920,exp1,2023.1.0,59.99430056789012,
,,,,,,,,,,,,,,,,4,8.825,9.608333333333333,10.391666666666667,11.175,0,0.7833333333333333,0.5333333333333333,0.25,2.6,10,match,36.05,318,346,375,403,0,9,9,9,9,0,,,,,,,3,0,3,0,0,46,46,5,,,,,,,,,,,,,,4,0.6716229000594467,4,0.55,0.55,19.82361,return,0.33965739991981536,,,,,,,,,,,,,,,,,p320,22,female,up_down_width,2025-12-19_08h01.25.920,exp1,2023.1.0,59.99430056789012,
,,,,,,,,,,,,,,,,5,7.8,8.9,10,11.1,12.2,1.1,0.55,0.55,4.95,10,initial,36.05,281,321,361,400,440,9,9,9,9,9,,,,,,,3,0,3,0,0,47,47,34,,,,,,,,,,,,,,4,1.3350467999698594,4,0.55,0.6000000000000001,21.62576,return,0.8160623000003397,,,,,,,,,,,,,,,,,p320,22,female,up_down_width,2025-12-19_08h01.25.920,exp1,2023.1.0,59.99430056789012,
,,,,,,,,,,,,,,,,5,8.6,9.3,10,10.7,11.4,0.7,0.29999999999999993,0.4,3.1999999999999997,10,initial,36.05,310,335,361,386,411,9,9,9,9,9,,,,,,,3,0,3,0,0,48,48,44,,,,,,,,,,,,,,4,0.6155069000087678,4,0.25,0.39999999999999997,14.41717,return,1.358963399892673,,,,,,,,,,,,,,,,,p320,22,female,up_down_width,2025-12-19_08h01.25.920,exp1,2023.1.0,59.99430056789012,
,,,,,,,,,,,,,,,,3,8.9,10,11.1,0,0,1.1,0.7000000000000001,0.4,2.6000000000000005,10,initial,36.05,321,361,400,0,0,9,9,9,0,0,,,,,,,3,0,3,0,0,49,49,4,,,,,,,,,,,,,,3,0.5774565999163315,3,0.35,0.25,9.01073,return,0.7611201000399888,,,,,,,,,,,,,,,,,p320,22,female,up_down_width,2025-12-19_08h01.25.920,exp1,2023.1.0,59.99430056789012,
,,,,,,,,,,,,,,,,3,9.1,10,10.9,0,0,0.9,0.35,0.55,2.35,10,initial,36.05,328,361,393,0,0,9,9,9,0,0,,,,,,,3,0,3,0,0,50,50,11,,,,,,,,,,,,,,3,0.5455717999720946,3,0.35,0.65,23.4279,return,1.5948672998929396,,,,,,,,,,,,,,,,,p320,22,female,up_down_width,2025-12-19_08h01.25.920,exp1,2023.1.0,59.99430056789012,
,,,,,,,,,,,,,,,,5,8.65,9.325,10,10.675,11.35,0.675,0.42500000000000004,0.25,2.95,10,match,36.05,312,336,361,385,409,9,9,9,9,9,,,,,,,3,0,3,0,0,51,51,31,,,,,,,,,,,,,,4,0.8116530000697821,4,0.3,0.35,12.61502,return,0.9236302999779582,,,,,,,,,,,,,,,,,p320,22,female,up_down_width,2025-12-19_08h01.25.920,exp1,2023.1.0,59.99430056789012,
,,,,,,,,,,,,,,,,,,,,,,,,,,,,,,,,,,,,,,,,,,,,,3,0,3,0,,,,,,,,,,,,,,,,,,,,,,,,,,,,2689.139666400035,2689.139666400035,2689.139666400035,,,,,,,,,,,,p320,22,female,up_down_width,2025-12-19_08h01.25.920,exp1,2023.1.0,59.99430056789012,
,,,,,,,,,,,,,,,,5,8.275,9.1375,10,10.8625,11.725,0.8625,0.6125,0.25,3.7,10,match,36.05,298,329,361,392,423,9,9,9,9,9,,,,,,,4,0,4,0,0,0,0,22,,,,,,,,,,,,,,4,0.809889700030908,4,0.55,0.30000000000000004,10.81288,return,1.000886800000444,,,,,,,,,,,,,,,,,p320,22,female,up_down_width,2025-12-19_08h01.25.920,exp1,2023.1.0,59.99430056789012,
,,,,,,,,,,,,,,,,3,9.1,10,10.9,0,0,0.9,0.5,0.4,2.2,10,initial,36.05,328,361,393,0,0,9,9,9,0,0,,,,,,,4,0,4,0,0,1,1,15,,,,,,,,,,,,,,3,0.7306156000122428,3,0.4,0.55,19.82361,return,0.7965301000513136,,,,,,,,,,,,,,,,,p320,22,female,up_down_width,2025-12-19_08h01.25.920,exp1,2023.1.0,59.99430056789012,
,,,,,,,,,,,,,,,,3,8.2,10,11.8,0,0,1.7999999999999998,1.4,0.4,4,10,match,36.05,296,361,425,0,0,9,9,9,0,0,,,,,,,4,0,4,0,0,2,2,51,,,,,,,,,,,,,,3,0.7970243999734521,3,0.45,0.55,19.82361,return,0.6198396000545472,,,,,,,,,,,,,,,,,p320,22,female,up_down_width,2025-12-19_08h01.25.920,exp1,2023.1.0,59.99430056789012,
,,,,,,,,,,,,,,,,4,8.95,9.65,10.35,11.05,0,0.7,0.29999999999999993,0.4,2.5,10,initial,36.05,323,348,373,398,0,9,9,9,9,0,,,,,,,4,0,4,0,0,3,3,26,,,,,,,,,,,,,,4,0.3810364999808371,4,0.25,0.39999999999999997,14.41717,return,0.6678924999432638,,,,,,,,,,,,,,,,,p320,22,female,up_down_width,2025-12-19_08h01.25.920,exp1,2023.1.0,59.99430056789012,
,,,,,,,,,,,,,,,,5,8.6,9.3,10,10.7,11.4,0.7,0.29999999999999993,0.4,3.1999999999999997,10,initial,36.05,310,335,361,386,411,9,9,9,9,9,,,,,,,4,0,4,0,0,4,4,44,,,,,,,,,,,,,,4,0.4829341000877321,4,0.2,0.35,12.61502,return,0.5590721999760717,,,,,,,,,,,,,,,,,p320,22,female,up_down_width,2025-12-19_08h01.25.920,exp1,2023.1.0,59.99430056789012,
,,,,,,,,,,,,,,,,4,8.35,9.45,10.55,11.65,0,1.1,0.8500000000000001,0.25,3.5500000000000003,10,initial,36.05,301,341,380,420,0,9,9,9,9,0,,,,,,,4,0,4,0,0,5,5,19,,,,,,,,,,,,,,3,0.656946099945344,3,0.45,0.20000000000000007,7.20859,return,1.110557800042443,,,,,,,,,,,,,,,,,p320,22,female,up_down_width,2025-12-19_08h01.25.920,exp1,2023.1.0,59.99430056789012,
,,,,,,,,,,,,,,,,3,9.3,10,10.7,0,0,0.7,0.29999999999999993,0.4,1.8,10,initial,36.05,335,361,386,0,0,9,9,9,0,0,,,,,,,4,0,4,0,0,6,6,9,,,,,,,,,,,,,,3,0.5990386999910697,3,0.4,0.55,19.82361,return,0.6225197000894696,,,,,,,,,,,,,,,,,p320,22,female,up_down_width,2025-12-19_08h01.25.920,exp1,2023.1.0,59.99430056789012,
,,,,,,,,,,,,,,,,3,9.1,10,10.9,0,0,0.9,0.65,0.25,2.05,10,initial,36.05,328,361,393,0,0,9,9,9,0,0,,,,,,,4,0,4,0,0,7,7,13,,,,,,,,,,,,,,3,0.39046290004625916,3,0.3,0.15000000000000002,5.40644,return,0.6458340999670327,,,,,,,,,,,,,,,,,p320,22,female,up_down_width,2025-12-19_08h01.25.920,exp1,2023.1.0,59.99430056789012,
,,,,,,,,,,,,,,,,4,8.65,9.55,10.45,11.35,0,0.9,0.5,0.4,3.1,10,initial,36.05,312,344,377,409,0,9,9,9,9,0,,,,,,,4,0,4,0,0,8,8,32,,,,,,,,,,,,,,3,0.7224207000108436,3,0.5,0.45,16.21932,return,1.0136286000488326,,,,,,,,,,,,,,,,,p320,22,female,up_down_width,2025-12-19_08h01.25.920,exp1,2023.1.0,59.99430056789012,
,,,,,,,,,,,,,,,,3,8.2,10,11.8,0,0,1.8,1.55,0.25,3.85,10,match,36.05,296,361,425,0,0,9,9,9,0,0,,,,,,,4,0,4,0,0,9,9,49,,,,,,,,,,,,,,3,0.45296530006453395,3,0.45,0.35000000000000003,12.61502,return,0.5943804000271484,,,,,,,,,,,,,,,,,p320,22,female,up_down_width,2025-12-19_08h01.25.920,exp1,2023.1.0,59.99430056789012,
,,,,,,,,,,,,,,,,5,8.65,9.325,10,10.675,11.35,0.675,0.42500000000000004,0.25,2.95,10,match,36.05,312,336,361,385,409,9,9,9,9,9,,,,,,,4,0,4,0,0,10,10,31,,,,,,,,,,,,,,4,0.7085569000337273,4,0.45,0.35000000000000003,12.61502,return,0.6790727999759838,,,,,,,,,,,,,,,,,p320,22,female,up_down_width,2025-12-19_08h01.25.920,exp1,2023.1.0,59.99430056789012,
,,,,,,,,,,,,,,,,3,9.1,10,10.9,0,0,0.9,0.35,0.55,2.35,10,initial,36.05,328,361,393,0,0,9,9,9,0,0,,,,,,,4,0,4,0,0,11,11,11,,,,,,,,,,,,,,2,0.5936266999924555,2,0.4,0.55,19.82361,return,1.1621124999364838,,,,,,,,,,,,,,,,,p320,22,female,up_down_width,2025-12-19_08h01.25.920,exp1,2023.1.0,59.99430056789012,
,,,,,,,,,,,,,,,,4,9.3,9.766666666666667,10.233333333333333,10.7,0,0.4666666666666667,0.21666666666666665,0.25,1.65,10,match,36.05,335,352,369,386,0,9,9,9,9,0,,,,,,,4,0,4,0,0,12,12,8,,,,,,,,,,,,,,3,0.5402450000401586,3,0.45,0.30000000000000004,10.81288,return,0.8216054000658914,,,,,,,,,,,,,,,,,p320,22,female,up_down_width,2025-12-19_08h01.25.920,exp1,2023.1.0,59.99430056789012,
,,,,,,,,,,,,,,,,5,8.6,9.3,10,10.7,11.4,0.7,0.44999999999999996,0.25,3.05,10,initial,36.05,310,335,361,386,411,9,9,9,9,9,,,,,,,4,0,4,0,0,13,13,42,,,,,,,,,,,,,,4,0.5659225999843329,4,0.5,0.35000000000000003,12.61502,return,0.8141023999778554,,,,,,,,,,,,,,,,,p320,22,female,up_down_width,2025-12-19_08h01.25.920,exp1,2023.1.0,59.99430056789012,
,,,,,,,,,,,,,,,,5,7.8,8.9,10,11.1,12.2,1.1,0.8500000000000001,0.25,4.65,10,initial,36.05,281,321,361,400,440,9,9,9,9,9,,,,,,,4,0,4,0,0,14,14,36,,,,,,,,,,,,,,4,0.6188924999441952,4,0.3,0.25,9.01073,return,1.0412060000235215,,,,,,,,,,,,,,,,,p320,22,female,up_down_width,2025-12-19_08h01.25.920,exp1,2023.1.0,59.99430056789012,
,,,,,,,,,,,,,,,,3,7.800000000000001,10,12.2,0,0,2.1999999999999997,1.7999999999999998,0.4,4.8,10,match,36.05,281,361,440,0,0,9,9,9,0,0,,,,,,,4,0,4,0,0,15,15,39,,,,,,,,,,,,,,3,0.8247989999363199,3,0.25,0.49999999999999994,18.02146,return,0.8860546000069007,,,,,,,,,,,,,,,,,p320,22,female,up_down_width,2025-12-19_08h01.25.920,exp1,2023.1.0,59.99430056789012,
,,,,,,,,,,,,,,,,5,8.35,9.175,10,10.825,11.65,0.825,0.575,0.25,3.55,10,match,36.05,301,331,361,390,420,9,9,9,9,9,,,,,,,4,0,4,0,0,16,16,20,,,,,,,,,,,,,,4,0.7738613000838086,4,0.25,0.15000000000000002,5.40644,return,0.6782922999700531,,,,,,,,,,,,,,,,,p320,22,female,up_down_width,2025-12-19_08h01.25.920,exp1,2023.1.0,59.99430056789012,
,,,,,,,,,,,,,,,,5,8.95,9.475,10,10.525,11.05,0.525,0.275,0.25,2.35,10,match,36.05,323,342,361,379,398,9,9,9,9,9,,,,,,,4,0,4,0,0,17,17,25,,,,,,,,,,,,,,4,0.6997337000211701,4,0.25,0.2,7.20859,return,0.9107987999450415,,,,,,,,,,,,,,,,,p320,22,female,up_down_width,2025-12-19_08h01.25.920,exp1,2023.1.0,59.99430056789012,
,,,,,,,,,,,,,,,,3,8.9,10,11.1,0,0,1.1,0.55,0.55,2.75,10,initial,36.05,321,361,400,0,0,9,9,9,0,0,,,,,,,4,0,4,0,0,18,18,0,,,,,,,,,,,,,,3,0.6060867999913171,3,0.35,0.49999999999999994,18.02146,return,0.6130649000406265,,,,,,,,,,,,,,,,,p320,22,female,up_down_width,2025-12-19_08h01.25.920,exp1,2023.1.0,59.99430056789012,
,,,,,,,,,,,,,,,,4,8.9,9.633333333333333,10.366666666666667,11.1,0,0.7333333333333334,0.4833333333333334,0.25,2.45,10,match,36.05,321,347,374,400,0,9,9,9,9,0,,,,,,,4,0,4,0,0,19,19,3,,,,,,,,,,,,,,3,0.5216650000074878,3,0.55,0.25000000000000006,9.01073,return,1.187179600005038,,,,,,,,,,,,,,,,,p320,22,female,up_down_width,2025-12-19_08h01.25.920,exp1,2023.1.0,59.99430056789012,
,,,,,,,,,,,,,,,,5,7.8,8.9,10,11.1,12.2,1.1,0.7000000000000001,0.4,4.800000000000001,10,initial,36.05,281,321,361,400,440,9,9,9,9,9,,,,,,,4,0,4,0,0,20,20,38,,,,,,,,,,,,,,4,0.5601566999685019,4,0.45,0.45,16.21932,return,0.28126940003130585,,,,,,,,,,,,,,,,,p320,22,female,up_down_width,2025-12-19_08h01.25.920,exp1,2023.1.0,59.99430056789012,
,,,,,,,,,,,,,,,,4,8.95,9.65,10.35,11.05,0,0.7,0.1499999999999999,0.55,2.65,10,initial,36.05,323,348,373,398,0,9,9,9,9,0,,,,,,,4,0,4,0,0,21,21,23,,,,,,,,,,,,,,2,0.8232013999950141,2,0.55,0.7000000000000002,25.23005,return,0.6773488000035286,,,,,,,,,,,,,,,,,p320,22,female,up_down_width,2025-12-19_08h01.25.920,exp1,2023.1.0,59.99430056789012,
,,,,,,,,,,,,,,,,5,8.2,9.1,10,10.9,11.8,0.9,0.65,0.25,3.85,10,initial,36.05,296,328,361,393,425,9,9,9,9,9,,,,,,,4,0,4,0,0,22,22,48,,,,,,,,,,,,,,4,1.1788913999916986,4,0.25,0.39999999999999997,14.41717,return,1.3554048999212682,,,,,,,,,,,,,,,,,p320,22,female,up_down_width,2025-12-19_08h01.25.920,exp1,2023.1.0,59.99430056789012,
,,,,,,,,,,,,,,,,4,9.3,9.766666666666667,10.233333333333333,10.7,0,0.4666666666666667,0.06666666666666665,0.4,1.8,10,match,36.05,335,352,369,386,0,9,9,9,9,0,,,,,,,4,0,4,0,0,23,23,10,,,,,,,,,,,,,,3,0.6896176999434829,3,0.25,0.6,21.62576,return,1.7484181999461725,,,,,,,,,,,,,,,,,p320,22,female,up_down_width,2025-12-19_08h01.25.920,exp1,2023.1.0,59.99430056789012,
,,,,,,,,,,,,,,,,5,8.2,9.1,10,10.9,11.8,0.9,0.35,0.55,4.15,10,initial,36.05,296,328,361,393,425,9,9,9,9,9,,,,,,,4,0,4,0,0,24,24,46,,,,,,,,,,,,,,4,0.6883123000152409,4,0.55,0.6500000000000001,23.4279,return,1.1550030000507832,,,,,,,,,,,,,,,,,p320,22,female,up_down_width,2025-12-19_08h01.25.920,exp1,2023.1.0,59.99430056789012,
,,,,,,,,,,,,,,,,4,8.65,9.55,10.45,11.35,0,0.9,0.65,0.25,2.95,10,initial,36.05,312,344,377,409,0,9,9,9,9,0,,,,,,,4,0,4,0,0,25,25,30,,,,,,,,,,,,,,3,1.4148107999935746,3,0.25,0.15000000000000002,5.40644,return,0.6849964000284672,,,,,,,,,,,,,,,,,p320,22,female,up_down_width,2025-12-19_08h01.25.920,exp1,2023.1.0,59.99430056789012,
,,,,,,,,,,,,,,,,3,8.9,10,11.1,0,0,1.1,0.7000000000000001,0.4,2.6000000000000005,10,initial,36.05,321,361,400,0,0,9,9,9,0,0,,,,,,,4,0,4,0,0,26,26,4,,,,,,,,,,,,,,3,0.8825046001002192,3,0.3,0.44999999999999996,16.21932,return,0.6377788999816403,,,,,,,,,,,,,,,,,p320,22,female,up_down_width,2025-12-19_08h01.25.920,exp1,2023.1.0,59.99430056789012,
,,,,,,,,,,,,,,,,5,8.65,9.325,10,10.675,11.35,0.675,0.125,0.55,3.25,10,match,36.05,312,336,361,385,409,9,9,9,9,9,,,,,,,4,0,4,0,0,27,27,29,,,,,,,,,,,,,,3,0.6902112000389025,3,0.5,0.7500000000000002,27.0322,return,1.2206020000157878,,,,,,,,,,,,,,,,,p320,22,female,up_down_width,2025-12-19_08h01.25.920,exp1,2023.1.0,59.99430056789012,
,,,,,,,,,,,,,,,,3,8.6,10,11.4,0,0,1.4,0.85,0.55,3.35,10,match,36.05,310,361,411,0,0,9,9,9,0,0,,,,,,,4,0,4,0,0,28,28,41,,,,,,,,,,,,,,3,0.4103187998989597,3,0.45,0.45,16.21932,return,0.8256669000256807,,,,,,,,,,,,,,,,,p320,22,female,up_down_width,2025-12-19_08h01.25.920,exp1,2023.1.0,59.99430056789012,
,,,,,,,,,,,,,,,,3,8.9,10,11.1,0,0,1.1,0.8500000000000001,0.25,2.45,10,initial,36.05,321,361,400,0,0,9,9,9,0,0,,,,,,,4,0,4,0,0,29,29,2,,,,,,,,,,,,,,2,0.9238879999611527,2,0.25,0.2,7.20859,return,0.501191099989228,,,,,,,,,,,,,,,,,p320,22,female,up_down_width,2025-12-19_08h01.25.920,exp1,2023.1.0,59.99430056789012,
,,,,,,,,,,,,,,,,3,7.8,10,12.2,0,0,2.2,1.65,0.55,4.95,10,match,36.05,281,361,440,0,0,9,9,9,0,0,,,,,,,4,0,4,0,0,30,30,35,,,,,,,,,,,,,,3,0.5556063998956233,3,0.4,0.5,18.02146,return,1.1717328000813723,,,,,,,,,,,,,,,,,p320,22,female,up_down_width,2025-12-19_08h01.25.920,exp1,2023.1.0,59.99430056789012,
,,,,,,,,,,,,,,,,4,8.35,9.45,10.55,11.65,0,1.1,0.55,0.55,3.8500000000000005,10,initial,36.05,301,341,380,420,0,9,9,9,9,0,,,,,,,4,0,4,0,0,31,31,17,,,,,,,,,,,,,,3,0.6935342000797391,3,0.5,0.6000000000000001,21.62576,return,0.6492876999545842,,,,,,,,,,,,,,,,,p320,22,female,up_down_width,2025-12-19_08h01.25.920,exp1,2023.1.0,59.99430056789012,
,,,,,,,,,,,,,,,,3,8.6,10,11.4,0,0,1.4,1.15,0.25,3.05,10,match,36.05,310,361,411,0,0,9,9,9,0,0,,,,,,,4,0,4,0,0,32,32,43,,,,,,,,,,,,,,2,0.6253030999796465,2,0.25,0.2,7.20859,return,0.5342798000201583,,,,,,,,,,,,,,,,,p320,22,female,up_down_width,2025-12-19_08h01.25.920,exp1,2023.1.0,59.99430056789012,
,,,,,,,,,,,,,,,,4,8.65,9.55,10.45,11.35,0,0.9,0.35,0.55,3.25,10,initial,36.05,312,344,377,409,0,9,9,9,9,0,,,,,,,4,0,4,0,0,33,33,28,,,,,,,,,,,,,,3,0.6160005000419915,3,0.25,0.49999999999999994,18.02146,return,1.1022633000975475,,,,,,,,,,,,,,,,,p320,22,female,up_down_width,2025-12-19_08h01.25.920,exp1,2023.1.0,59.99430056789012,
,,,,,,,,,,,,,,,,4,8.825,9.608333333333333,10.391666666666667,11.175,0,0.7833333333333333,0.5333333333333333,0.25,2.6,10,match,36.05,318,346,375,403,0,9,9,9,9,0,,,,,,,4,0,4,0,0,34,34,5,,,,,,,,,,,,,,3,0.5968494999688119,3,0.55,0.35000000000000003,12.61502,return,1.644832200021483,,,,,,,,,,,,,,,,,p320,22,female,up_down_width,2025-12-19_08h01.25.920,exp1,2023.1.0,59.99430056789012,
,,,,,,,,,,,,,,,,5,8.95,9.475,10,10.525,11.05,0.525,0.125,0.4,2.5,10,match,36.05,323,342,361,379,398,9,9,9,9,9,,,,,,,4,0,4,0,0,35,35,27,,,,,,,,,,,,,,3,0.6524634000379592,3,0.5,0.55,19.82361,return,0.736675199936144,,,,,,,,,,,,,,,,,p320,22,female,up_down_width,2025-12-19_08h01.25.920,exp1,2023.1.0,59.99430056789012,
,,,,,,,,,,,,,,,,3,7.8,10,12.2,0,0,2.2,1.9500000000000002,0.25,4.65,10,match,36.05,281,361,440,0,0,9,9,9,0,0,,,,,,,4,0,4,0,0,36,36,37,,,,,,,,,,,,,,3,0.5596405999967828,3,0.55,0.30000000000000004,10.81288,return,1.9616162999300286,,,,,,,,,,,,,,,,,p320,22,female,up_down_width,2025-12-19_08h01.25.920,exp1,2023.1.0,59.99430056789012,
,,,,,,,,,,,,,,,,3,8.525,10,11.475,0,0,1.475,1.225,0.25,3.2,10,match,36.05,307,361,414,0,0,9,9,9,0,0,,,,,,,4,0,4,0,0,37,37,45,,,,,,,,,,,,,,3,0.6595490999752656,3,0.25,0.2,7.20859,return,0.8404591999715194,,,,,,,,,,,,,,,,,p320,22,female,up_down_width,2025-12-19_08h01.25.920,exp1,2023.1.0,59.99430056789012,
,,,,,,,,,,,,,,,,4,8.95,9.65,10.35,11.05,0,0.7,0.44999999999999996,0.25,2.3499999999999996,10,initial,36.05,323,348,373,398,0,9,9,9,9,0,,,,,,,4,0,4,0,0,38,38,24,,,,,,,,,,,,,,3,0.503208399983123,3,0.35,0.3,10.81288,return,1.569605900091119,,,,,,,,,,,,,,,,,p320,22,female,up_down_width,2025-12-19_08h01.25.920,exp1,2023.1.0,59.99430056789012,
,,,,,,,,,,,,,,,,4,9.1,9.7,10.3,10.9,0,0.5999999999999999,0.3499999999999999,0.25,2.05,10,match,36.05,328,350,371,393,0,9,9,9,9,0,,,,,,,4,0,4,0,0,39,39,14,,,,,,,,,,,,,,3,0.47367119998671114,3,0.55,0.25000000000000006,9.01073,return,1.3176497999811545,,,,,,,,,,,,,,,,,p320,22,female,up_down_width,2025-12-19_08h01.25.920,exp1,2023.1.0,59.99430056789012,
,,,,,,,,,,,,,,,,5,8.2,9.1,10,10.9,11.8,0.9,0.5,0.4,4,10,initial,36.05,296,328,361,393,425,9,9,9,9,9,,,,,,,4,0,4,0,0,40,40,50,,,,,,,,,,,,,,4,0.6755646000383422,4,0.25,0.25,9.01073,return,0.7421352000674233,,,,,,,,,,,,,,,,,p320,22,female,up_down_width,2025-12-19_08h01.25.920,exp1,2023.1.0,59.99430056789012,
,,,,,,,,,,,,,,,,4,8.9,9.633333333333333,10.366666666666667,11.1,0,0.7333333333333333,0.18333333333333326,0.55,2.75,10,match,36.05,321,347,374,400,0,9,9,9,9,0,,,,,,,4,0,4,0,0,41,41,1,,,,,,,,,,,,,,3,0.6206723999930546,3,0.25,0.5499999999999999,19.82361,return,1.3638228999916464,,,,,,,,,,,,,,,,,p320,22,female,up_down_width,2025-12-19_08h01.25.920,exp1,2023.1.0,59.99430056789012,
,,,,,,,,,,,,,,,,5,8.65,9.325,10,10.675,11.35,0.675,0.275,0.4,3.1,10,match,36.05,312,336,361,385,409,9,9,9,9,9,,,,,,,4,0,4,0,0,42,42,33,,,,,,,,,,,,,,4,0.6814967999234796,4,0.45,0.5,18.02146,return,0.6208540999796242,,,,,,,,,,,,,,,,,p320,22,female,up_down_width,2025-12-19_08h01.25.920,exp1,2023.1.0,59.99430056789012,
,,,,,,,,,,,,,,,,4,9.1,9.7,10.3,10.9,0,0.6,0.04999999999999997,0.55,2.35,10,match,36.05,328,350,371,393,0,9,9,9,9,0,,,,,,,4,0,4,0,0,43,43,12,,,,,,,,,,,,,,3,0.7163006999762729,3,0.5,0.9500000000000004,34.24078,return,1.9348967999685556,,,,,,,,,,,,,,,,,p320,22,female,up_down_width,2025-12-19_08h01.25.920,exp1,2023.1.0,59.99430056789012,
,,,,,,,,,,,,,,,,4,9.1,9.7,10.3,10.9,0,0.6000000000000001,0.20000000000000004,0.4,2.2,10,match,36.05,328,350,371,393,0,9,9,9,9,0,,,,,,,4,0,4,0,0,44,44,16,,,,,,,,,,,,,,4,0.9160340001108125,4,0.35,0.44999999999999996,16.21932,return,0.669608399970457,,,,,,,,,,,,,,,,,p320,22,female,up_down_width,2025-12-19_08h01.25.920,exp1,2023.1.0,59.99430056789012,
,,,,,,,,,,,,,,,,5,8.6,9.3,10,10.7,11.4,0.7,0.1499999999999999,0.55,3.3499999999999996,10,initial,36.05,310,335,361,386,411,9,9,9,9,9,,,,,,,4,0,4,0,0,45,45,40,,,,,,,,,,,,,,3,0.4771054000593722,3,0.45,0.5,18.02146,return,0.7287484999978915,,,,,,,,,,,,,,,,,p320,22,female,up_down_width,2025-12-19_08h01.25.920,exp1,2023.1.0,59.99430056789012,
,,,,,,,,,,,,,,,,3,9.3,10,10.7,0,0,0.7,0.1499999999999999,0.55,1.95,10,initial,36.05,335,361,386,0,0,9,9,9,0,0,,,,,,,4,0,4,0,0,46,46,6,,,,,,,,,,,,,,2,0.6921893999679014,2,0.25,0.6,21.62576,return,1.6395882999058813,,,,,,,,,,,,,,,,,p320,22,female,up_down_width,2025-12-19_08h01.25.920,exp1,2023.1.0,59.99430056789012,
,,,,,,,,,,,,,,,,5,8.35,9.175,10,10.825,11.65,0.8250000000000001,0.275,0.55,3.85,10,match,36.05,301,331,361,390,420,9,9,9,9,9,,,,,,,4,0,4,0,0,47,47,18,,,,,,,,,,,,,,5,1.3736949999583885,5,0.2,0.44999999999999996,16.21932,return,2.052375999977812,,,,,,,,,,,,,,,,,p320,22,female,up_down_width,2025-12-19_08h01.25.920,exp1,2023.1.0,59.99430056789012,
,,,,,,,,,,,,,,,,3,9.3,10,10.7,0,0,0.7,0.44999999999999996,0.25,1.65,10,initial,36.05,335,361,386,0,0,9,9,9,0,0,,,,,,,4,0,4,0,0,48,48,7,,,,,,,,,,,,,,2,1.2796606000047177,2,0.3,0.35,12.61502,return,0.508049099938944,,,,,,,,,,,,,,,,,p320,22,female,up_down_width,2025-12-19_08h01.25.920,exp1,2023.1.0,59.99430056789012,
,,,,,,,,,,,,,,,,5,7.8,8.9,10,11.1,12.2,1.1,0.55,0.55,4.95,10,initial,36.05,281,321,361,400,440,9,9,9,9,9,,,,,,,4,0,4,0,0,49,49,34,,,,,,,,,,,,,,5,0.8562924000434577,5,0.3,0.44999999999999996,16.21932,return,1.1402740000048652,,,,,,,,,,,,,,,,,p320,22,female,up_down_width,2025-12-19_08h01.25.920,exp1,2023.1.0,59.99430056789012,
,,,,,,,,,,,,,,,,3,8.2,10,11.8,0,0,1.8,1.25,0.55,4.15,10,match,36.05,296,361,425,0,0,9,9,9,0,0,,,,,,,4,0,4,0,0,50,50,47,,,,,,,,,,,,,,3,0.5163050000555813,3,0.45,0.5,18.02146,return,0.7023229000624269,,,,,,,,,,,,,,,,,p320,22,female,up_down_width,2025-12-19_08h01.25.920,exp1,2023.1.0,59.99430056789012,
,,,,,,,,,,,,,,,,4,8.35,9.45,10.55,11.65,0,1.1,0.7000000000000001,0.4,3.7,10,initial,36.05,301,341,380,420,0,9,9,9,9,0,,,,,,,4,0,4,0,0,51,51,21,,,,,,,,,,,,,,3,0.49050119996536523,3,0.55,0.35000000000000003,12.61502,return,1.573092699982226,,,,,,,,,,,,,,,,,p320,22,female,up_down_width,2025-12-19_08h01.25.920,exp1,2023.1.0,59.99430056789012,
,,,,,,,,,,,,,,,,,,,,,,,,,,,,,,,,,,,,,,,,,,,,,4,0,4,0,,,,,,,,,,,,,,,,,,,,,,,,,,,,2866.7395657000598,2866.7395657000598,2866.7395657000598,,,,,,,,,,,,p320,22,female,up_down_width,2025-12-19_08h01.25.920,exp1,2023.1.0,59.99430056789012,
,,,,,,,,,,,,,,,,5,8.65,9.325,10,10.675,11.35,0.675,0.42500000000000004,0.25,2.95,10,match,36.05,312,336,361,385,409,9,9,9,9,9,,,,,,,5,0,5,0,0,0,0,31,,,,,,,,,,,,,,4,0.8110664000269026,4,0.5,0.25000000000000006,9.01073,return,0.873152400017716,,,,,,,,,,,,,,,,,p320,22,female,up_down_width,2025-12-19_08h01.25.920,exp1,2023.1.0,59.99430056789012,
,,,,,,,,,,,,,,,,3,8.525,10,11.475,0,0,1.475,1.225,0.25,3.2,10,match,36.05,307,361,414,0,0,9,9,9,0,0,,,,,,,5,0,5,0,0,1,1,45,,,,,,,,,,,,,,2,0.7451717000221834,2,0.45,0.25000000000000006,9.01073,return,0.7302400999469683,,,,,,,,,,,,,,,,,p320,22,female,up_down_width,2025-12-19_08h01.25.920,exp1,2023.1.0,59.99430056789012,
,,,,,,,,,,,,,,,,5,8.6,9.3,10,10.7,11.4,0.7,0.29999999999999993,0.4,3.1999999999999997,10,initial,36.05,310,335,361,386,411,9,9,9,9,9,,,,,,,5,0,5,0,0,2,2,44,,,,,,,,,,,,,,4,1.2787695999722928,4,0.4,0.4,14.41717,return,0.6660796999931335,,,,,,,,,,,,,,,,,p320,22,female,up_down_width,2025-12-19_08h01.25.920,exp1,2023.1.0,59.99430056789012,
,,,,,,,,,,,,,,,,5,8.2,9.1,10,10.9,11.8,0.9,0.65,0.25,3.85,10,initial,36.05,296,328,361,393,425,9,9,9,9,9,,,,,,,5,0,5,0,0,3,3,48,,,,,,,,,,,,,,3,4.9450818001059815,3,0.4,0.20000000000000007,7.20859,return,1.0827090000966564,,,,,,,,,,,,,,,,,p320,22,female,up_down_width,2025-12-19_08h01.25.920,exp1,2023.1.0,59.99430056789012,
,,,,,,,,,,,,,,,,4,8.95,9.65,10.35,11.05,0,0.7,0.44999999999999996,0.25,2.3499999999999996,10,initial,36.05,323,348,373,398,0,9,9,9,9,0,,,,,,,5,0,5,0,0,4,4,24,,,,,,,,,,,,,,3,0.6361156000057235,3,0.35,0.44999999999999996,16.21932,return,1.2490241000195965,,,,,,,,,,,,,,,,,p320,22,female,up_down_width,2025-12-19_08h01.25.920,exp1,2023.1.0,59.99430056789012,
,,,,,,,,,,,,,,,,3,9.1,10,10.9,0,0,0.9,0.65,0.25,2.05,10,initial,36.05,328,361,393,0,0,9,9,9,0,0,,,,,,,5,0,5,0,0,5,5,13,,,,,,,,,,,,,,4,0.6277513999957591,4,0.25,0.3,10.81288,return,0.6975935999071226,,,,,,,,,,,,,,,,,p320,22,female,up_down_width,2025-12-19_08h01.25.920,exp1,2023.1.0,59.99430056789012,
,,,,,,,,,,,,,,,,3,7.8,10,12.2,0,0,2.2,1.9500000000000002,0.25,4.65,10,match,36.05,281,361,440,0,0,9,9,9,0,0,,,,,,,5,0,5,0,0,6,6,37,,,,,,,,,,,,,,4,0.4467004999751225,4,0.45,0.20000000000000007,7.20859,return,1.3231262000044808,,,,,,,,,,,,,,,,,p320,22,female,up_down_width,2025-12-19_08h01.25.920,exp1,2023.1.0,59.99430056789012,
,,,,,,,,,,,,,,,,4,8.35,9.45,10.55,11.65,0,1.1,0.8500000000000001,0.25,3.5500000000000003,10,initial,36.05,301,341,380,420,0,9,9,9,9,0,,,,,,,5,0,5,0,0,7,7,19,,,,,,,,,,,,,,4,0.6081174000864848,4,0.2,0.3,10.81288,return,0.9827564000152051,,,,,,,,,,,,,,,,,p320,22,female,up_down_width,2025-12-19_08h01.25.920,exp1,2023.1.0,59.99430056789012,
,,,,,,,,,,,,,,,,5,8.2,9.1,10,10.9,11.8,0.9,0.35,0.55,4.15,10,initial,36.05,296,328,361,393,425,9,9,9,9,9,,,,,,,5,0,5,0,0,8,8,46,,,,,,,,,,,,,,4,0.7648113999748603,4,0.25,0.3,10.81288,return,1.1977755000116304,,,,,,,,,,,,,,,,,p320,22,female,up_down_width,2025-12-19_08h01.25.920,exp1,2023.1.0,59.99430056789012,
,,,,,,,,,,,,,,,,3,8.9,10,11.1,0,0,1.1,0.7000000000000001,0.4,2.6000000000000005,10,initial,36.05,321,361,400,0,0,9,9,9,0,0,,,,,,,5,0,5,0,0,9,9,4,,,,,,,,,,,,,,2,0.5581972000654787,2,0.45,0.4,14.41717,return,0.759517899947241,,,,,,,,,,,,,,,,,p320,22,female,up_down_width,2025-12-19_08h01.25.920,exp1,2023.1.0,59.99430056789012,
,,,,,,,,,,,,,,,,4,8.65,9.55,10.45,11.35,0,0.9,0.35,0.55,3.25,10,initial,36.05,312,344,377,409,0,9,9,9,9,0,,,,,,,5,0,5,0,0,10,10,28,,,,,,,,,,,,,,3,1.237817700020969,3,0.55,0.55,19.82361,return,0.5470479000359774,,,,,,,,,,,,,,,,,p320,22,female,up_down_width,2025-12-19_08h01.25.920,exp1,2023.1.0,59.99430056789012,
,,,,,,,,,,,,,,,,4,8.65,9.55,10.45,11.35,0,0.9,0.5,0.4,3.1,10,initial,36.05,312,344,377,409,0,9,9,9,9,0,,,,,,,5,0,5,0,0,11,11,32,,,,,,,,,,,,,,3,0.7363880999619141,3,0.4,0.4,14.41717,return,0.3208887999644503,,,,,,,,,,,,,,,,,p320,22,female,up_down_width,2025-12-19_08h01.25.920,exp1,2023.1.0,59.99430056789012,
,,,,,,,,,,,,,,,,3,9.1,10,10.9,0,0,0.9,0.35,0.55,2.35,10,initial,36.05,328,361,393,0,0,9,9,9,0,0,,,,,,,5,0,5,0,0,12,12,11,,,,,,,,,,,,,,3,0.6089627000037581,3,0.3,0.39999999999999997,14.41717,return,0.9845241999719292,,,,,,,,,,,,,,,,,p320,22,female,up_down_width,2025-12-19_08h01.25.920,exp1,2023.1.0,59.99430056789012,
,,,,,,,,,,,,,,,,5,8.95,9.475,10,10.525,11.05,0.525,0.275,0.25,2.35,10,match,36.05,323,342,361,379,398,9,9,9,9,9,,,,,,,5,0,5,0,0,13,13,25,,,,,,,,,,,,,,4,0.5941970000276342,4,0.5,0.30000000000000004,10.81288,return,1.5608814000152051,,,,,,,,,,,,,,,,,p320,22,female,up_down_width,2025-12-19_08h01.25.920,exp1,2023.1.0,59.99430056789012,
,,,,,,,,,,,,,,,,4,9.1,9.7,10.3,10.9,0,0.6000000000000001,0.20000000000000004,0.4,2.2,10,match,36.05,328,350,371,393,0,9,9,9,9,0,,,,,,,5,0,5,0,0,14,14,16,,,,,,,,,,,,,,4,0.9644509000936523,4,0.4,0.25000000000000006,9.01073,return,1.6605116000864655,,,,,,,,,,,,,,,,,p320,22,female,up_down_width,2025-12-19_08h01.25.920,exp1,2023.1.0,59.99430056789012,
,,,,,,,,,,,,,,,,3,8.2,10,11.8,0,0,1.7999999999999998,1.4,0.4,4,10,match,36.05,296,361,425,0,0,9,9,9,0,0,,,,,,,5,0,5,0,0,15,15,51,,,,,,,,,,,,,,2,0.759654900059104,2,0.55,0.5,18.02146,return,1.4796935999765992,,,,,,,,,,,,,,,,,p320,22,female,up_down_width,2025-12-19_08h01.25.920,exp1,2023.1.0,59.99430056789012,
,,,,,,,,,,,,,,,,3,7.8,10,12.2,0,0,2.2,1.65,0.55,4.95,10,match,36.05,281,361,440,0,0,9,9,9,0,0,,,,,,,5,0,5,0,0,16,16,35,,,,,,,,,,,,,,3,0.44645579997450113,3,0.4,0.6000000000000001,21.62576,return,0.8437573000555858,,,,,,,,,,,,,,,,,p320,22,female,up_down_width,2025-12-19_08h01.25.920,exp1,2023.1.0,59.99430056789012,
,,,,,,,,,,,,,,,,4,8.65,9.55,10.45,11.35,0,0.9,0.65,0.25,2.95,10,initial,36.05,312,344,377,409,0,9,9,9,9,0,,,,,,,5,0,5,0,0,17,17,30,,,,,,,,,,,,,,3,0.3840073000174016,3,0.25,0.35,12.61502,return,1.023626400041394,,,,,,,,,,,,,,,,,p320,22,female,up_down_width,2025-12-19_08h01.25.920,exp1,2023.1.0,59.99430056789012,
,,,,,,,,,,,,,,,,4,9.3,9.766666666666667,10.233333333333333,10.7,0,0.4666666666666667,0.21666666666666665,0.25,1.65,10,match,36.05,335,352,369,386,0,9,9,9,9,0,,,,,,,5,0,5,0,0,18,18,8,,,,,,,,,,,,,,3,0.6084378999657929,3,0.55,0.25000000000000006,9.01073,return,1.5902405000524595,,,,,,,,,,,,,,,,,p320,22,female,up_down_width,2025-12-19_08h01.25.920,exp1,2023.1.0,59.99430056789012,
,,,,,,,,,,,,,,,,5,8.6,9.3,10,10.7,11.4,0.7,0.44999999999999996,0.25,3.05,10,initial,36.05,310,335,361,386,411,9,9,9,9,9,,,,,,,5,0,5,0,0,19,19,42,,,,,,,,,,,,,,4,0.5857682999921963,4,0.5,0.20000000000000007,7.20859,return,1.6009084000252187,,,,,,,,,,,,,,,,,p320,22,female,up_down_width,2025-12-19_08h01.25.920,exp1,2023.1.0,59.99430056789012,
,,,,,,,,,,,,,,,,3,8.6,10,11.4,0,0,1.4,0.85,0.55,3.35,10,match,36.05,310,361,411,0,0,9,9,9,0,0,,,,,,,5,0,5,0,0,20,20,41,,,,,,,,,,,,,,3,0.8340060000773519,3,0.35,0.44999999999999996,16.21932,return,0.7998154999222606,,,,,,,,,,,,,,,,,p320,22,female,up_down_width,2025-12-19_08h01.25.920,exp1,2023.1.0,59.99430056789012,
,,,,,,,,,,,,,,,,5,7.8,8.9,10,11.1,12.2,1.1,0.7000000000000001,0.4,4.800000000000001,10,initial,36.05,281,321,361,400,440,9,9,9,9,9,,,,,,,5,0,5,0,0,21,21,38,,,,,,,,,,,,,,4,0.5444126999936998,4,0.5,0.4,14.41717,return,0.9860606000293046,,,,,,,,,,,,,,,,,p320,22,female,up_down_width,2025-12-19_08h01.25.920,exp1,2023.1.0,59.99430056789012,
,,,,,,,,,,,,,,,,3,9.1,10,10.9,0,0,0.9,0.5,0.4,2.2,10,initial,36.05,328,361,393,0,0,9,9,9,0,0,,,,,,,5,0,5,0,0,22,22,15,,,,,,,,,,,,,,3,0.6300848999526352,3,0.3,0.39999999999999997,14.41717,return,0.9565007999772206,,,,,,,,,,,,,,,,,p320,22,female,up_down_width,2025-12-19_08h01.25.920,exp1,2023.1.0,59.99430056789012,
,,,,,,,,,,,,,,,,3,9.3,10,10.7,0,0,0.7,0.44999999999999996,0.25,1.65,10,initial,36.05,335,361,386,0,0,9,9,9,0,0,,,,,,,5,0,5,0,0,23,23,7,,,,,,,,,,,,,,2,0.3768750000745058,2,0.4,0.30000000000000004,10.81288,return,0.8720394000411034,,,,,,,,,,,,,,,,,p320,22,female,up_down_width,2025-12-19_08h01.25.920,exp1,2023.1.0,59.99430056789012,
,,,,,,,,,,,,,,,,5,8.65,9.325,10,10.675,11.35,0.675,0.275,0.4,3.1,10,match,36.05,312,336,361,385,409,9,9,9,9,9,,,,,,,5,0,5,0,0,24,24,33,,,,,,,,,,,,,,3,0.6945654000155628,3,0.45,0.55,19.82361,return,0.9057445999933407,,,,,,,,,,,,,,,,,p320,22,female,up_down_width,2025-12-19_08h01.25.920,exp1,2023.1.0,59.99430056789012,
