amount_p,posx1_p,posx2_p,posx3_p,posx4_p,posx5_p,center_to_center_p,edge_to_edge_p,w_p,stim_lengt_p,eccentricity_p,line1_p,line2_p,line3_p,line4_p,line5_p,amount,posx1,posx2,posx3,posx4,posx5,center_to_center,edge_to_edge,w,stim_length,eccentricity,trial_type,deg_to_pix_index,posx1_in_pix,posx2_in_pix,posx3_in_pix,posx4_in_pix,posx5_in_pix,line1,line2,line3,line4,line5,posx,setsize_cobdi,trials.thisRepN,trials.thisTrialN,trials.thisN,trials.thisIndex,blocks.thisRepN,blocks.thisTrialN,blocks.thisN,blocks.thisIndex,loop.thisRepN,loop.thisTrialN,loop.thisN,loop.thisIndex,first.thisRepN,first.thisTrialN,first.thisN,first.thisIndex,second.thisRepN,second.thisTrialN,second.thisN,second.thisIndex,thisRow.t,notes,key_resp_3.started,key_resp_3.keys,key_resp_3.rt,key_resp.keys,key_resp.rt,response,starting_width_deg,response_width_degree,response_width_pixel,next_5.keys,next_5.rt,key_resp_4.keys,key_resp_4.rt,text_3.started,text_4.started,key_resp_2.started,text_2.started,key_resp_2.keys,key_resp_2.rt,adjusting.started,next.keys,next.rt,text_control2.started,key_resp.started,key_resp.corr,text_bye.started,text_bye.stopped,participant,age,gender,resp_group,date,expName,psychopyVersion,frameRate,
,,,,,,,,,,,,,,,,,,,,,,,,,,,,,,,,,,,,,,,,,,,,,,,,,,,,,,,,,,,,,,,8672.894101300015,c,155.72201189998304,,,,,,,,,,,,,,,,,,,,,,,,,p321,22,female,up_down_width,2025-12-19_10h59.19.362,exp1,2023.1.0,60.01662460234598,
5,9,9.5,10,10.5,11,0.5,0.09999999999999998,0.4,2.4,10,9,9,9,9,9,,,,,,,,,,,,,,,,,,,,,,,,,,0,0,0,8,,,,,,,,,,,,,,,,,,,,,,4,1.410961400019005,4,0.5,0.4,14.41717,return,4.426101999997627,,,,,,,,,,,,,,,,,p321,22,female,up_down_width,2025-12-19_10h59.19.362,exp1,2023.1.0,60.01662460234598,
3,9,10,11,0,0,1,0.9,0.1,2.1,10,9,9,9,0,0,,,,,,,,,,,,,,,,,,,,,,,,,,0,1,1,1,,,,,,,,,,,,,,,,,,,,,,3,1.2913909999770112,3,0.35,0.10000000000000002,3.60429,return,3.143555799993919,,,,,,,,,,,,,,,,,p321,22,female,up_down_width,2025-12-19_10h59.19.362,exp1,2023.1.0,60.01662460234598,
5,9.25,9.625,10,10.375,10.75,0.375,0.125,0.25,1.75,10,9,9,9,9,9,,,,,,,,,,,,,,,,,,,,,,,,,,0,2,2,6,,,,,,,,,,,,,,,,,,,,,,4,1.0907663000107277,4,0.25,0.25,9.01073,return,1.669351499993354,,,,,,,,,,,,,,,,,p321,22,female,up_down_width,2025-12-19_10h59.19.362,exp1,2023.1.0,60.01662460234598,
4,8.65,9.55,10.45,11.35,0,0.9,0.5,0.4,3.1,10,9,9,9,9,0,,,,,,,,,,,,,,,,,,,,,,,,,,0,3,3,5,,,,,,,,,,,,,,,,,,,,,,4,1.0761843000072986,4,0.2,0.3,10.81288,return,2.5675740000151563,,,,,,,,,,,,,,,,,p321,22,female,up_down_width,2025-12-19_10h59.19.362,exp1,2023.1.0,60.01662460234598,
5,8.6,9.3,10,10.7,11.4,0.7,0.29999999999999993,0.4,3.1999999999999997,10,9,9,9,9,9,,,,,,,,,,,,,,,,,,,,,,,,,,0,4,4,7,,,,,,,,,,,,,,,,,,,,,,5,1.1824775999994017,5,0.2,0.35,12.61502,return,2.334478200005833,,,,,,,,,,,,,,,,,p321,22,female,up_down_width,2025-12-19_10h59.19.362,exp1,2023.1.0,60.01662460234598,
4,9.25,9.75,10.25,10.75,0,0.5,0.25,0.25,1.75,10,9,9,9,9,0,,,,,,,,,,,,,,,,,,,,,,,,,,0,5,5,4,,,,,,,,,,,,,,,,,,,,,,4,1.1246125000179745,4,0.5,0.35000000000000003,12.61502,return,2.759331100009149,,,,,,,,,,,,,,,,,p321,22,female,up_down_width,2025-12-19_10h59.19.362,exp1,2023.1.0,60.01662460234598,
3,8.2,10,11.8,0,0,1.7999999999999998,1.4,0.4,4,10,9,9,9,0,0,,,,,,,,,,,,,,,,,,,,,,,,,,0,6,6,2,,,,,,,,,,,,,,,,,,,,,,3,1.1891641999827698,3,0.2,0.39999999999999997,14.41717,return,4.005629099992802,,,,,,,,,,,,,,,,,p321,22,female,up_down_width,2025-12-19_10h59.19.362,exp1,2023.1.0,60.01662460234598,
3,9.5,10,10.5,0,0,0.5,0.4,0.1,1.1,10,9,9,9,0,0,,,,,,,,,,,,,,,,,,,,,,,,,,0,7,7,0,,,,,,,,,,,,,,,,,,,,,,3,1.0568815000005998,3,0.35,0.15000000000000002,5.40644,return,2.7264864000026137,,,,,,,,,,,,,,,,,p321,22,female,up_down_width,2025-12-19_10h59.19.362,exp1,2023.1.0,60.01662460234598,
4,9.5,9.833333333333334,10.166666666666666,10.5,0,0.33333333333333337,0.23333333333333336,0.1,1.1,10,9,9,9,9,0,,,,,,,,,,,,,,,,,,,,,,,,,,0,8,8,3,,,,,,,,,,,,,,,,,,,,,,4,1.1952553000010084,4,0.4,0.20000000000000007,7.20859,return,2.82788110000547,,,,,,,,,,,,,,,,,p321,22,female,up_down_width,2025-12-19_10h59.19.362,exp1,2023.1.0,60.01662460234598,
,,,,,,,,,,,,,,,,,,,,,,,,,,,,,,,,,,,,,,,,,,,,,,,,,,,,,,,,,,,,,,,,,,,,,,,,,,c,94.40904199998477,,,,,,,,,,,,,,,p321,22,female,up_down_width,2025-12-19_10h59.19.362,exp1,2023.1.0,60.01662460234598,
,,,,,,,,,,,,,,,,4,9.1,9.7,10.3,10.9,0,0.6000000000000001,0.20000000000000004,0.4,2.2,10,match,36.05,328,350,371,393,0,9,9,9,9,0,,,,,,,0,0,0,0,0,0,0,16,,,,,,,,,,,,,,3,1.0393195000069682,3,0.55,0.55,19.82361,return,0.8846157999942079,,,,,,,,,,,,,,,,,p321,22,female,up_down_width,2025-12-19_10h59.19.362,exp1,2023.1.0,60.01662460234598,
,,,,,,,,,,,,,,,,5,8.6,9.3,10,10.7,11.4,0.7,0.44999999999999996,0.25,3.05,10,initial,36.05,310,335,361,386,411,9,9,9,9,9,,,,,,,0,0,0,0,0,1,1,42,,,,,,,,,,,,,,4,1.1297916000185069,4,0.45,0.20000000000000007,7.20859,return,3.6435716999985743,,,,,,,,,,,,,,,,,p321,22,female,up_down_width,2025-12-19_10h59.19.362,exp1,2023.1.0,60.01662460234598,
,,,,,,,,,,,,,,,,4,8.95,9.65,10.35,11.05,0,0.7,0.29999999999999993,0.4,2.5,10,initial,36.05,323,348,373,398,0,9,9,9,9,0,,,,,,,0,0,0,0,0,2,2,26,,,,,,,,,,,,,,4,0.9453143999853637,4,0.25,0.44999999999999996,16.21932,return,2.538513999985298,,,,,,,,,,,,,,,,,p321,22,female,up_down_width,2025-12-19_10h59.19.362,exp1,2023.1.0,60.01662460234598,
,,,,,,,,,,,,,,,,3,8.9,10,11.1,0,0,1.1,0.7000000000000001,0.4,2.6000000000000005,10,initial,36.05,321,361,400,0,0,9,9,9,0,0,,,,,,,0,0,0,0,0,3,3,4,,,,,,,,,,,,,,3,0.9931896000052802,3,0.3,0.39999999999999997,14.41717,return,2.713357400003588,,,,,,,,,,,,,,,,,p321,22,female,up_down_width,2025-12-19_10h59.19.362,exp1,2023.1.0,60.01662460234598,
,,,,,,,,,,,,,,,,5,8.275,9.1375,10,10.8625,11.725,0.8625,0.6125,0.25,3.7,10,match,36.05,298,329,361,392,423,9,9,9,9,9,,,,,,,0,0,0,0,0,4,4,22,,,,,,,,,,,,,,6,1.2295574999880046,6,0.5,0.30000000000000004,10.81288,return,4.316170200007036,,,,,,,,,,,,,,,,,p321,22,female,up_down_width,2025-12-19_10h59.19.362,exp1,2023.1.0,60.01662460234598,
,,,,,,,,,,,,,,,,4,9.3,9.766666666666667,10.233333333333333,10.7,0,0.4666666666666667,0.06666666666666665,0.4,1.8,10,match,36.05,335,352,369,386,0,9,9,9,9,0,,,,,,,0,0,0,0,0,5,5,10,,,,,,,,,,,,,,3,1.6084439000114799,3,0.55,0.55,19.82361,return,1.1425048999954015,,,,,,,,,,,,,,,,,p321,22,female,up_down_width,2025-12-19_10h59.19.362,exp1,2023.1.0,60.01662460234598,
,,,,,,,,,,,,,,,,4,8.95,9.65,10.35,11.05,0,0.7,0.1499999999999999,0.55,2.65,10,initial,36.05,323,348,373,398,0,9,9,9,9,0,,,,,,,0,0,0,0,0,6,6,23,,,,,,,,,,,,,,4,1.1932807000121102,4,0.25,0.5499999999999999,19.82361,return,2.8727202999871224,,,,,,,,,,,,,,,,,p321,22,female,up_down_width,2025-12-19_10h59.19.362,exp1,2023.1.0,60.01662460234598,
,,,,,,,,,,,,,,,,3,8.525,10,11.475,0,0,1.475,1.225,0.25,3.2,10,match,36.05,307,361,414,0,0,9,9,9,0,0,,,,,,,0,0,0,0,0,7,7,45,,,,,,,,,,,,,,3,1.4399348000006285,3,0.45,0.25000000000000006,9.01073,return,1.8444446999928914,,,,,,,,,,,,,,,,,p321,22,female,up_down_width,2025-12-19_10h59.19.362,exp1,2023.1.0,60.01662460234598,
,,,,,,,,,,,,,,,,3,9.1,10,10.9,0,0,0.9,0.65,0.25,2.05,10,initial,36.05,328,361,393,0,0,9,9,9,0,0,,,,,,,0,0,0,0,0,8,8,13,,,,,,,,,,,,,,3,1.092236700002104,3,0.3,0.25,9.01073,return,1.5278751000005286,,,,,,,,,,,,,,,,,p321,22,female,up_down_width,2025-12-19_10h59.19.362,exp1,2023.1.0,60.01662460234598,
,,,,,,,,,,,,,,,,4,8.35,9.45,10.55,11.65,0,1.1,0.55,0.55,3.8500000000000005,10,initial,36.05,301,341,380,420,0,9,9,9,9,0,,,,,,,0,0,0,0,0,9,9,17,,,,,,,,,,,,,,4,0.9844739999971353,4,0.3,0.5499999999999999,19.82361,return,1.422879699995974,,,,,,,,,,,,,,,,,p321,22,female,up_down_width,2025-12-19_10h59.19.362,exp1,2023.1.0,60.01662460234598,
,,,,,,,,,,,,,,,,4,8.9,9.633333333333333,10.366666666666667,11.1,0,0.7333333333333334,0.4833333333333334,0.25,2.45,10,match,36.05,321,347,374,400,0,9,9,9,9,0,,,,,,,0,0,0,0,0,10,10,3,,,,,,,,,,,,,,4,0.9432007000141311,4,0.2,0.35,12.61502,return,2.568275400000857,,,,,,,,,,,,,,,,,p321,22,female,up_down_width,2025-12-19_10h59.19.362,exp1,2023.1.0,60.01662460234598,
,,,,,,,,,,,,,,,,4,8.35,9.45,10.55,11.65,0,1.1,0.7000000000000001,0.4,3.7,10,initial,36.05,301,341,380,420,0,9,9,9,9,0,,,,,,,0,0,0,0,0,11,11,21,,,,,,,,,,,,,,4,0.9787318999879062,4,0.35,0.35,12.61502,return,0.7784021999977995,,,,,,,,,,,,,,,,,p321,22,female,up_down_width,2025-12-19_10h59.19.362,exp1,2023.1.0,60.01662460234598,
,,,,,,,,,,,,,,,,4,9.3,9.766666666666667,10.233333333333333,10.7,0,0.4666666666666667,0.21666666666666665,0.25,1.65,10,match,36.05,335,352,369,386,0,9,9,9,9,0,,,,,,,0,0,0,0,0,12,12,8,,,,,,,,,,,,,,4,1.0833896999829449,4,0.35,0.35,12.61502,return,0.8644840999913868,,,,,,,,,,,,,,,,,p321,22,female,up_down_width,2025-12-19_10h59.19.362,exp1,2023.1.0,60.01662460234598,
,,,,,,,,,,,,,,,,5,8.95,9.475,10,10.525,11.05,0.525,0.125,0.4,2.5,10,match,36.05,323,342,361,379,398,9,9,9,9,9,,,,,,,0,0,0,0,0,13,13,27,,,,,,,,,,,,,,5,1.2854476000065915,5,0.25,0.44999999999999996,16.21932,return,2.1605671000143047,,,,,,,,,,,,,,,,,p321,22,female,up_down_width,2025-12-19_10h59.19.362,exp1,2023.1.0,60.01662460234598,
,,,,,,,,,,,,,,,,5,8.65,9.325,10,10.675,11.35,0.675,0.42500000000000004,0.25,2.95,10,match,36.05,312,336,361,385,409,9,9,9,9,9,,,,,,,0,0,0,0,0,14,14,31,,,,,,,,,,,,,,5,1.2264443000021856,5,0.25,0.25,9.01073,return,0.9679417000152171,,,,,,,,,,,,,,,,,p321,22,female,up_down_width,2025-12-19_10h59.19.362,exp1,2023.1.0,60.01662460234598,
,,,,,,,,,,,,,,,,5,8.6,9.3,10,10.7,11.4,0.7,0.1499999999999999,0.55,3.3499999999999996,10,initial,36.05,310,335,361,386,411,9,9,9,9,9,,,,,,,0,0,0,0,0,15,15,40,,,,,,,,,,,,,,5,1.3339708000130486,5,0.35,0.44999999999999996,16.21932,return,2.4793305000057444,,,,,,,,,,,,,,,,,p321,22,female,up_down_width,2025-12-19_10h59.19.362,exp1,2023.1.0,60.01662460234598,
,,,,,,,,,,,,,,,,5,7.8,8.9,10,11.1,12.2,1.1,0.8500000000000001,0.25,4.65,10,initial,36.05,281,321,361,400,440,9,9,9,9,9,,,,,,,0,0,0,0,0,16,16,36,,,,,,,,,,,,,,5,1.1398976999917068,5,0.25,0.25,9.01073,return,0.389886299992213,,,,,,,,,,,,,,,,,p321,22,female,up_down_width,2025-12-19_10h59.19.362,exp1,2023.1.0,60.01662460234598,
,,,,,,,,,,,,,,,,3,9.1,10,10.9,0,0,0.9,0.35,0.55,2.35,10,initial,36.05,328,361,393,0,0,9,9,9,0,0,,,,,,,0,0,0,0,0,17,17,11,,,,,,,,,,,,,,3,1.065986100002192,3,0.2,0.44999999999999996,16.21932,return,2.3342785999993794,,,,,,,,,,,,,,,,,p321,22,female,up_down_width,2025-12-19_10h59.19.362,exp1,2023.1.0,60.01662460234598,
,,,,,,,,,,,,,,,,3,7.8,10,12.2,0,0,2.2,1.9500000000000002,0.25,4.65,10,match,36.05,281,361,440,0,0,9,9,9,0,0,,,,,,,0,0,0,0,0,18,18,37,,,,,,,,,,,,,,3,1.0158638999855611,3,0.5,0.25000000000000006,9.01073,return,2.3493834999972023,,,,,,,,,,,,,,,,,p321,22,female,up_down_width,2025-12-19_10h59.19.362,exp1,2023.1.0,60.01662460234598,
,,,,,,,,,,,,,,,,3,8.2,10,11.8,0,0,1.8,1.25,0.55,4.15,10,match,36.05,296,361,425,0,0,9,9,9,0,0,,,,,,,0,0,0,0,0,19,19,47,,,,,,,,,,,,,,3,1.0256443999824114,3,0.25,0.49999999999999994,18.02146,return,3.1751268999942113,,,,,,,,,,,,,,,,,p321,22,female,up_down_width,2025-12-19_10h59.19.362,exp1,2023.1.0,60.01662460234598,
,,,,,,,,,,,,,,,,5,8.65,9.325,10,10.675,11.35,0.675,0.275,0.4,3.1,10,match,36.05,312,336,361,385,409,9,9,9,9,9,,,,,,,0,0,0,0,0,20,20,33,,,,,,,,,,,,,,5,1.0620128000155091,5,0.4,0.4,14.41717,return,0.5694714999990538,,,,,,,,,,,,,,,,,p321,22,female,up_down_width,2025-12-19_10h59.19.362,exp1,2023.1.0,60.01662460234598,
,,,,,,,,,,,,,,,,4,9.1,9.7,10.3,10.9,0,0.5999999999999999,0.3499999999999999,0.25,2.05,10,match,36.05,328,350,371,393,0,9,9,9,9,0,,,,,,,0,0,0,0,0,21,21,14,,,,,,,,,,,,,,4,1.2548253000131808,4,0.45,0.35000000000000003,12.61502,return,1.8425431000068784,,,,,,,,,,,,,,,,,p321,22,female,up_down_width,2025-12-19_10h59.19.362,exp1,2023.1.0,60.01662460234598,
,,,,,,,,,,,,,,,,5,8.2,9.1,10,10.9,11.8,0.9,0.35,0.55,4.15,10,initial,36.05,296,328,361,393,425,9,9,9,9,9,,,,,,,0,0,0,0,0,22,22,46,,,,,,,,,,,,,,4,1.0938412999967113,4,0.5,0.5,18.02146,return,0.6010967000038363,,,,,,,,,,,,,,,,,p321,22,female,up_down_width,2025-12-19_10h59.19.362,exp1,2023.1.0,60.01662460234598,
,,,,,,,,,,,,,,,,3,8.9,10,11.1,0,0,1.1,0.8500000000000001,0.25,2.45,10,initial,36.05,321,361,400,0,0,9,9,9,0,0,,,,,,,0,0,0,0,0,23,23,2,,,,,,,,,,,,,,3,1.4128505999979097,3,0.55,0.35000000000000003,12.61502,return,1.9160694000020158,,,,,,,,,,,,,,,,,p321,22,female,up_down_width,2025-12-19_10h59.19.362,exp1,2023.1.0,60.01662460234598,
,,,,,,,,,,,,,,,,4,9.1,9.7,10.3,10.9,0,0.6,0.04999999999999997,0.55,2.35,10,match,36.05,328,350,371,393,0,9,9,9,9,0,,,,,,,0,0,0,0,0,24,24,12,,,,,,,,,,,,,,3,1.5835296000004746,3,0.5,0.7500000000000002,27.0322,return,2.415757199982181,,,,,,,,,,,,,,,,,p321,22,female,up_down_width,2025-12-19_10h59.19.362,exp1,2023.1.0,60.01662460234598,
,,,,,,,,,,,,,,,,3,9.3,10,10.7,0,0,0.7,0.44999999999999996,0.25,1.65,10,initial,36.05,335,361,386,0,0,9,9,9,0,0,,,,,,,0,0,0,0,0,25,25,7,,,,,,,,,,,,,,3,1.2350685999845155,3,0.3,0.3,10.81288,return,0.5758781999757048,,,,,,,,,,,,,,,,,p321,22,female,up_down_width,2025-12-19_10h59.19.362,exp1,2023.1.0,60.01662460234598,
,,,,,,,,,,,,,,,,3,9.1,10,10.9,0,0,0.9,0.5,0.4,2.2,10,initial,36.05,328,361,393,0,0,9,9,9,0,0,,,,,,,0,0,0,0,0,26,26,15,,,,,,,,,,,,,,4,2.0604337000113446,4,0.35,0.35,12.61502,return,0.5359395999985281,,,,,,,,,,,,,,,,,p321,22,female,up_down_width,2025-12-19_10h59.19.362,exp1,2023.1.0,60.01662460234598,
,,,,,,,,,,,,,,,,4,8.65,9.55,10.45,11.35,0,0.9,0.5,0.4,3.1,10,initial,36.05,312,344,377,409,0,9,9,9,9,0,,,,,,,0,0,0,0,0,27,27,32,,,,,,,,,,,,,,4,1.0845349000010174,4,0.25,0.44999999999999996,16.21932,return,3.2797943000041414,,,,,,,,,,,,,,,,,p321,22,female,up_down_width,2025-12-19_10h59.19.362,exp1,2023.1.0,60.01662460234598,
,,,,,,,,,,,,,,,,5,8.65,9.325,10,10.675,11.35,0.675,0.125,0.55,3.25,10,match,36.05,312,336,361,385,409,9,9,9,9,9,,,,,,,0,0,0,0,0,28,28,29,,,,,,,,,,,,,,4,1.0118768000102136,4,0.4,0.55,19.82361,return,2.3612970000249334,,,,,,,,,,,,,,,,,p321,22,female,up_down_width,2025-12-19_10h59.19.362,exp1,2023.1.0,60.01662460234598,
,,,,,,,,,,,,,,,,4,8.35,9.45,10.55,11.65,0,1.1,0.8500000000000001,0.25,3.5500000000000003,10,initial,36.05,301,341,380,420,0,9,9,9,9,0,,,,,,,0,0,0,0,0,29,29,19,,,,,,,,,,,,,,4,1.2293449999997392,4,0.2,0.25,9.01073,return,1.4182498999871314,,,,,,,,,,,,,,,,,p321,22,female,up_down_width,2025-12-19_10h59.19.362,exp1,2023.1.0,60.01662460234598,
,,,,,,,,,,,,,,,,5,8.2,9.1,10,10.9,11.8,0.9,0.65,0.25,3.85,10,initial,36.05,296,328,361,393,425,9,9,9,9,9,,,,,,,0,0,0,0,0,30,30,48,,,,,,,,,,,,,,4,0.89932540000882,4,0.45,0.30000000000000004,10.81288,return,1.7259744000039063,,,,,,,,,,,,,,,,,p321,22,female,up_down_width,2025-12-19_10h59.19.362,exp1,2023.1.0,60.01662460234598,
,,,,,,,,,,,,,,,,5,8.95,9.475,10,10.525,11.05,0.525,0.275,0.25,2.35,10,match,36.05,323,342,361,379,398,9,9,9,9,9,,,,,,,0,0,0,0,0,31,31,25,,,,,,,,,,,,,,5,0.9413711999950465,5,0.25,0.25,9.01073,return,0.518528199987486,,,,,,,,,,,,,,,,,p321,22,female,up_down_width,2025-12-19_10h59.19.362,exp1,2023.1.0,60.01662460234598,
,,,,,,,,,,,,,,,,5,7.8,8.9,10,11.1,12.2,1.1,0.7000000000000001,0.4,4.800000000000001,10,initial,36.05,281,321,361,400,440,9,9,9,9,9,,,,,,,0,0,0,0,0,32,32,38,,,,,,,,,,,,,,5,0.9058251999958884,5,0.3,0.44999999999999996,16.21932,return,2.0679899000097066,,,,,,,,,,,,,,,,,p321,22,female,up_down_width,2025-12-19_10h59.19.362,exp1,2023.1.0,60.01662460234598,
,,,,,,,,,,,,,,,,3,9.3,10,10.7,0,0,0.7,0.29999999999999993,0.4,1.8,10,initial,36.05,335,361,386,0,0,9,9,9,0,0,,,,,,,0,0,0,0,0,33,33,9,,,,,,,,,,,,,,3,1.1258418999786954,3,0.2,0.39999999999999997,14.41717,return,2.727835600002436,,,,,,,,,,,,,,,,,p321,22,female,up_down_width,2025-12-19_10h59.19.362,exp1,2023.1.0,60.01662460234598,
,,,,,,,,,,,,,,,,3,8.6,10,11.4,0,0,1.4,0.85,0.55,3.35,10,match,36.05,310,361,411,0,0,9,9,9,0,0,,,,,,,0,0,0,0,0,34,34,41,,,,,,,,,,,,,,3,0.9079502999957185,3,0.55,0.6000000000000001,21.62576,return,1.1267493999912404,,,,,,,,,,,,,,,,,p321,22,female,up_down_width,2025-12-19_10h59.19.362,exp1,2023.1.0,60.01662460234598,
,,,,,,,,,,,,,,,,3,8.2,10,11.8,0,0,1.8,1.55,0.25,3.85,10,match,36.05,296,361,425,0,0,9,9,9,0,0,,,,,,,0,0,0,0,0,35,35,49,,,,,,,,,,,,,,3,1.1698402000183705,3,0.45,0.35000000000000003,12.61502,return,1.7145194000040647,,,,,,,,,,,,,,,,,p321,22,female,up_down_width,2025-12-19_10h59.19.362,exp1,2023.1.0,60.01662460234598,
,,,,,,,,,,,,,,,,3,8.2,10,11.8,0,0,1.7999999999999998,1.4,0.4,4,10,match,36.05,296,361,425,0,0,9,9,9,0,0,,,,,,,0,0,0,0,0,36,36,51,,,,,,,,,,,,,,3,1.0412348999816459,3,0.4,0.4,14.41717,return,0.7421699000115041,,,,,,,,,,,,,,,,,p321,22,female,up_down_width,2025-12-19_10h59.19.362,exp1,2023.1.0,60.01662460234598,
,,,,,,,,,,,,,,,,5,7.8,8.9,10,11.1,12.2,1.1,0.55,0.55,4.95,10,initial,36.05,281,321,361,400,440,9,9,9,9,9,,,,,,,0,0,0,0,0,37,37,34,,,,,,,,,,,,,,5,0.9882789999828674,5,0.5,0.5,18.02146,return,0.899419699999271,,,,,,,,,,,,,,,,,p321,22,female,up_down_width,2025-12-19_10h59.19.362,exp1,2023.1.0,60.01662460234598,
,,,,,,,,,,,,,,,,3,9.3,10,10.7,0,0,0.7,0.1499999999999999,0.55,1.95,10,initial,36.05,335,361,386,0,0,9,9,9,0,0,,,,,,,0,0,0,0,0,38,38,6,,,,,,,,,,,,,,3,0.9493928999872878,3,0.45,0.45,16.21932,return,0.9113650999788661,,,,,,,,,,,,,,,,,p321,22,female,up_down_width,2025-12-19_10h59.19.362,exp1,2023.1.0,60.01662460234598,
,,,,,,,,,,,,,,,,3,7.8,10,12.2,0,0,2.2,1.65,0.55,4.95,10,match,36.05,281,361,440,0,0,9,9,9,0,0,,,,,,,0,0,0,0,0,39,39,35,,,,,,,,,,,,,,3,0.9875052999996115,3,0.4,0.55,19.82361,return,2.2601789999753237,,,,,,,,,,,,,,,,,p321,22,female,up_down_width,2025-12-19_10h59.19.362,exp1,2023.1.0,60.01662460234598,
,,,,,,,,,,,,,,,,3,8.9,10,11.1,0,0,1.1,0.55,0.55,2.75,10,initial,36.05,321,361,400,0,0,9,9,9,0,0,,,,,,,0,0,0,0,0,40,40,0,,,,,,,,,,,,,,3,0.8472911000135355,3,0.45,0.55,19.82361,return,1.6292653999989852,,,,,,,,,,,,,,,,,p321,22,female,up_down_width,2025-12-19_10h59.19.362,exp1,2023.1.0,60.01662460234598,
,,,,,,,,,,,,,,,,5,8.6,9.3,10,10.7,11.4,0.7,0.29999999999999993,0.4,3.1999999999999997,10,initial,36.05,310,335,361,386,411,9,9,9,9,9,,,,,,,0,0,0,0,0,41,41,44,,,,,,,,,,,,,,4,0.93406810000306,4,0.2,0.44999999999999996,16.21932,return,2.1272259000106715,,,,,,,,,,,,,,,,,p321,22,female,up_down_width,2025-12-19_10h59.19.362,exp1,2023.1.0,60.01662460234598,
,,,,,,,,,,,,,,,,3,8.6,10,11.4,0,0,1.4,1.15,0.25,3.05,10,match,36.05,310,361,411,0,0,9,9,9,0,0,,,,,,,0,0,0,0,0,42,42,43,,,,,,,,,,,,,,3,1.4683401999936905,3,0.55,0.35000000000000003,12.61502,return,2.0650122999795713,,,,,,,,,,,,,,,,,p321,22,female,up_down_width,2025-12-19_10h59.19.362,exp1,2023.1.0,60.01662460234598,
,,,,,,,,,,,,,,,,5,8.2,9.1,10,10.9,11.8,0.9,0.5,0.4,4,10,initial,36.05,296,328,361,393,425,9,9,9,9,9,,,,,,,0,0,0,0,0,43,43,50,,,,,,,,,,,,,,4,0.8658247999846935,4,0.25,0.39999999999999997,14.41717,return,1.5654415000171866,,,,,,,,,,,,,,,,,p321,22,female,up_down_width,2025-12-19_10h59.19.362,exp1,2023.1.0,60.01662460234598,
,,,,,,,,,,,,,,,,4,8.65,9.55,10.45,11.35,0,0.9,0.35,0.55,3.25,10,initial,36.05,312,344,377,409,0,9,9,9,9,0,,,,,,,0,0,0,0,0,44,44,28,,,,,,,,,,,,,,4,0.9993523000157438,4,0.5,0.5,18.02146,return,0.6389395000005607,,,,,,,,,,,,,,,,,p321,22,female,up_down_width,2025-12-19_10h59.19.362,exp1,2023.1.0,60.01662460234598,
,,,,,,,,,,,,,,,,5,8.35,9.175,10,10.825,11.65,0.8250000000000001,0.275,0.55,3.85,10,match,36.05,301,331,361,390,420,9,9,9,9,9,,,,,,,0,0,0,0,0,45,45,18,,,,,,,,,,,,,,4,1.4254838000051677,4,0.4,0.5,18.02146,return,1.6874357000051532,,,,,,,,,,,,,,,,,p321,22,female,up_down_width,2025-12-19_10h59.19.362,exp1,2023.1.0,60.01662460234598,
,,,,,,,,,,,,,,,,4,8.95,9.65,10.35,11.05,0,0.7,0.44999999999999996,0.25,2.3499999999999996,10,initial,36.05,323,348,373,398,0,9,9,9,9,0,,,,,,,0,0,0,0,0,46,46,24,,,,,,,,,,,,,,4,0.8454139000095893,4,0.35,0.35,12.61502,return,0.48988330000429414,,,,,,,,,,,,,,,,,p321,22,female,up_down_width,2025-12-19_10h59.19.362,exp1,2023.1.0,60.01662460234598,
,,,,,,,,,,,,,,,,4,8.65,9.55,10.45,11.35,0,0.9,0.65,0.25,2.95,10,initial,36.05,312,344,377,409,0,9,9,9,9,0,,,,,,,0,0,0,0,0,47,47,30,,,,,,,,,,,,,,4,0.9156777999887709,4,0.55,0.30000000000000004,10.81288,return,2.4781997999816667,,,,,,,,,,,,,,,,,p321,22,female,up_down_width,2025-12-19_10h59.19.362,exp1,2023.1.0,60.01662460234598,
,,,,,,,,,,,,,,,,3,7.800000000000001,10,12.2,0,0,2.1999999999999997,1.7999999999999998,0.4,4.8,10,match,36.05,281,361,440,0,0,9,9,9,0,0,,,,,,,0,0,0,0,0,48,48,39,,,,,,,,,,,,,,3,0.9305369999783579,3,0.5,0.5,18.02146,return,0.46024169999873266,,,,,,,,,,,,,,,,,p321,22,female,up_down_width,2025-12-19_10h59.19.362,exp1,2023.1.0,60.01662460234598,
,,,,,,,,,,,,,,,,5,8.35,9.175,10,10.825,11.65,0.825,0.575,0.25,3.55,10,match,36.05,301,331,361,390,420,9,9,9,9,9,,,,,,,0,0,0,0,0,49,49,20,,,,,,,,,,,,,,4,0.865699100017082,4,0.45,0.30000000000000004,10.81288,return,1.8366874999774154,,,,,,,,,,,,,,,,,p321,22,female,up_down_width,2025-12-19_10h59.19.362,exp1,2023.1.0,60.01662460234598,
,,,,,,,,,,,,,,,,4,8.825,9.608333333333333,10.391666666666667,11.175,0,0.7833333333333333,0.5333333333333333,0.25,2.6,10,match,36.05,318,346,375,403,0,9,9,9,9,0,,,,,,,0,0,0,0,0,50,50,5,,,,,,,,,,,,,,3,0.9774226999725215,3,0.45,0.30000000000000004,10.81288,return,2.3286185000033583,,,,,,,,,,,,,,,,,p321,22,female,up_down_width,2025-12-19_10h59.19.362,exp1,2023.1.0,60.01662460234598,
,,,,,,,,,,,,,,,,4,8.9,9.633333333333333,10.366666666666667,11.1,0,0.7333333333333333,0.18333333333333326,0.55,2.75,10,match,36.05,321,347,374,400,0,9,9,9,9,0,,,,,,,0,0,0,0,0,51,51,1,,,,,,,,,,,,,,4,0.9727799999818671,4,0.2,0.5499999999999999,19.82361,return,3.2039356000022963,,,,,,,,,,,,,,,,,p321,22,female,up_down_width,2025-12-19_10h59.19.362,exp1,2023.1.0,60.01662460234598,
,,,,,,,,,,,,,,,,,,,,,,,,,,,,,,,,,,,,,,,,,,,,,0,0,0,0,,,,,,,,,,,,,,,,,,,,,,,,,,,,9214.3401496,9214.3401496,9214.3401496,,,,,,,,,,,,p321,22,female,up_down_width,2025-12-19_10h59.19.362,exp1,2023.1.0,60.01662460234598,
,,,,,,,,,,,,,,,,3,8.2,10,11.8,0,0,1.8,1.25,0.55,4.15,10,match,36.05,296,361,425,0,0,9,9,9,0,0,,,,,,,1,0,1,0,0,0,0,47,,,,,,,,,,,,,,3,1.024512700008927,3,0.4,0.4,14.41717,return,0.5192490000044927,,,,,,,,,,,,,,,,,p321,22,female,up_down_width,2025-12-19_10h59.19.362,exp1,2023.1.0,60.01662460234598,
,,,,,,,,,,,,,,,,4,8.35,9.45,10.55,11.65,0,1.1,0.8500000000000001,0.25,3.5500000000000003,10,initial,36.05,301,341,380,420,0,9,9,9,9,0,,,,,,,1,0,1,0,0,1,1,19,,,,,,,,,,,,,,5,0.8992762999841943,5,0.25,0.25,9.01073,return,0.4618406999798026,,,,,,,,,,,,,,,,,p321,22,female,up_down_width,2025-12-19_10h59.19.362,exp1,2023.1.0,60.01662460234598,
,,,,,,,,,,,,,,,,5,8.95,9.475,10,10.525,11.05,0.525,0.125,0.4,2.5,10,match,36.05,323,342,361,379,398,9,9,9,9,9,,,,,,,1,0,1,0,0,2,2,27,,,,,,,,,,,,,,4,1.2526827999972738,4,0.45,0.45,16.21932,return,0.5461213999951724,,,,,,,,,,,,,,,,,p321,22,female,up_down_width,2025-12-19_10h59.19.362,exp1,2023.1.0,60.01662460234598,
,,,,,,,,,,,,,,,,5,8.65,9.325,10,10.675,11.35,0.675,0.125,0.55,3.25,10,match,36.05,312,336,361,385,409,9,9,9,9,9,,,,,,,1,0,1,0,0,3,3,29,,,,,,,,,,,,,,5,1.2131685000204016,5,0.2,0.49999999999999994,18.02146,return,2.412084000010509,,,,,,,,,,,,,,,,,p321,22,female,up_down_width,2025-12-19_10h59.19.362,exp1,2023.1.0,60.01662460234598,
,,,,,,,,,,,,,,,,4,8.35,9.45,10.55,11.65,0,1.1,0.7000000000000001,0.4,3.7,10,initial,36.05,301,341,380,420,0,9,9,9,9,0,,,,,,,1,0,1,0,0,4,4,21,,,,,,,,,,,,,,4,1.0646678999764845,4,0.3,0.3,10.81288,return,0.6532841000007465,,,,,,,,,,,,,,,,,p321,22,female,up_down_width,2025-12-19_10h59.19.362,exp1,2023.1.0,60.01662460234598,
,,,,,,,,,,,,,,,,4,8.9,9.633333333333333,10.366666666666667,11.1,0,0.7333333333333333,0.18333333333333326,0.55,2.75,10,match,36.05,321,347,374,400,0,9,9,9,9,0,,,,,,,1,0,1,0,0,5,5,1,,,,,,,,,,,,,,4,0.5795134000072721,4,0.5,0.5,18.02146,return,0.6361933999869507,,,,,,,,,,,,,,,,,p321,22,female,up_down_width,2025-12-19_10h59.19.362,exp1,2023.1.0,60.01662460234598,
,,,,,,,,,,,,,,,,5,7.8,8.9,10,11.1,12.2,1.1,0.8500000000000001,0.25,4.65,10,initial,36.05,281,321,361,400,440,9,9,9,9,9,,,,,,,1,0,1,0,0,6,6,36,,,,,,,,,,,,,,5,1.1126223999890499,5,0.25,0.25,9.01073,return,0.5072133999783546,,,,,,,,,,,,,,,,,p321,22,female,up_down_width,2025-12-19_10h59.19.362,exp1,2023.1.0,60.01662460234598,
,,,,,,,,,,,,,,,,5,8.2,9.1,10,10.9,11.8,0.9,0.35,0.55,4.15,10,initial,36.05,296,328,361,393,425,9,9,9,9,9,,,,,,,1,0,1,0,0,7,7,46,,,,,,,,,,,,,,6,1.2518466000037733,6,0.55,0.55,19.82361,return,0.7683751999866217,,,,,,,,,,,,,,,,,p321,22,female,up_down_width,2025-12-19_10h59.19.362,exp1,2023.1.0,60.01662460234598,
,,,,,,,,,,,,,,,,3,9.1,10,10.9,0,0,0.9,0.65,0.25,2.05,10,initial,36.05,328,361,393,0,0,9,9,9,0,0,,,,,,,1,0,1,0,0,8,8,13,,,,,,,,,,,,,,4,0.9390838000108488,4,0.55,0.30000000000000004,10.81288,return,2.2927076000196394,,,,,,,,,,,,,,,,,p321,22,female,up_down_width,2025-12-19_10h59.19.362,exp1,2023.1.0,60.01662460234598,
,,,,,,,,,,,,,,,,4,8.95,9.65,10.35,11.05,0,0.7,0.44999999999999996,0.25,2.3499999999999996,10,initial,36.05,323,348,373,398,0,9,9,9,9,0,,,,,,,1,0,1,0,0,9,9,24,,,,,,,,,,,,,,4,0.6925593000196386,4,0.2,0.2,7.20859,return,0.6167208000260871,,,,,,,,,,,,,,,,,p321,22,female,up_down_width,2025-12-19_10h59.19.362,exp1,2023.1.0,60.01662460234598,
,,,,,,,,,,,,,,,,4,9.1,9.7,10.3,10.9,0,0.6,0.04999999999999997,0.55,2.35,10,match,36.05,328,350,371,393,0,9,9,9,9,0,,,,,,,1,0,1,0,0,10,10,12,,,,,,,,,,,,,,4,0.9058137999963947,4,0.25,0.5499999999999999,19.82361,return,4.995317499997327,,,,,,,,,,,,,,,,,p321,22,female,up_down_width,2025-12-19_10h59.19.362,exp1,2023.1.0,60.01662460234598,
,,,,,,,,,,,,,,,,5,8.2,9.1,10,10.9,11.8,0.9,0.5,0.4,4,10,initial,36.05,296,328,361,393,425,9,9,9,9,9,,,,,,,1,0,1,0,0,11,11,50,,,,,,,,,,,,,,4,0.9434936000034213,4,0.55,0.55,19.82361,return,0.5679614999971818,,,,,,,,,,,,,,,,,p321,22,female,up_down_width,2025-12-19_10h59.19.362,exp1,2023.1.0,60.01662460234598,
,,,,,,,,,,,,,,,,5,8.95,9.475,10,10.525,11.05,0.525,0.275,0.25,2.35,10,match,36.05,323,342,361,379,398,9,9,9,9,9,,,,,,,1,0,1,0,0,12,12,25,,,,,,,,,,,,,,5,0.8267840999760665,5,0.45,0.35000000000000003,12.61502,return,1.4175048000179231,,,,,,,,,,,,,,,,,p321,22,female,up_down_width,2025-12-19_10h59.19.362,exp1,2023.1.0,60.01662460234598,
,,,,,,,,,,,,,,,,3,9.3,10,10.7,0,0,0.7,0.1499999999999999,0.55,1.95,10,initial,36.05,335,361,386,0,0,9,9,9,0,0,,,,,,,1,0,1,0,0,13,13,6,,,,,,,,,,,,,,3,1.0344498000049498,3,0.4,0.4,14.41717,return,0.5437605000042822,,,,,,,,,,,,,,,,,p321,22,female,up_down_width,2025-12-19_10h59.19.362,exp1,2023.1.0,60.01662460234598,
,,,,,,,,,,,,,,,,3,7.8,10,12.2,0,0,2.2,1.65,0.55,4.95,10,match,36.05,281,361,440,0,0,9,9,9,0,0,,,,,,,1,0,1,0,0,14,14,35,,,,,,,,,,,,,,3,1.382274800009327,3,0.2,0.49999999999999994,18.02146,return,2.638700300012715,,,,,,,,,,,,,,,,,p321,22,female,up_down_width,2025-12-19_10h59.19.362,exp1,2023.1.0,60.01662460234598,
,,,,,,,,,,,,,,,,5,8.65,9.325,10,10.675,11.35,0.675,0.275,0.4,3.1,10,match,36.05,312,336,361,385,409,9,9,9,9,9,,,,,,,1,0,1,0,0,15,15,33,,,,,,,,,,,,,,5,1.0032735000131652,5,0.5,0.5,18.02146,return,0.5154391000105534,,,,,,,,,,,,,,,,,p321,22,female,up_down_width,2025-12-19_10h59.19.362,exp1,2023.1.0,60.01662460234598,
,,,,,,,,,,,,,,,,4,8.65,9.55,10.45,11.35,0,0.9,0.35,0.55,3.25,10,initial,36.05,312,344,377,409,0,9,9,9,9,0,,,,,,,1,0,1,0,0,16,16,28,,,,,,,,,,,,,,4,0.8374097000050824,4,0.5,0.5,18.02146,return,0.4993236000009347,,,,,,,,,,,,,,,,,p321,22,female,up_down_width,2025-12-19_10h59.19.362,exp1,2023.1.0,60.01662460234598,
,,,,,,,,,,,,,,,,3,9.3,10,10.7,0,0,0.7,0.29999999999999993,0.4,1.8,10,initial,36.05,335,361,386,0,0,9,9,9,0,0,,,,,,,1,0,1,0,0,17,17,9,,,,,,,,,,,,,,3,0.8861949999991339,3,0.35,0.35,12.61502,return,0.4325620000017807,,,,,,,,,,,,,,,,,p321,22,female,up_down_width,2025-12-19_10h59.19.362,exp1,2023.1.0,60.01662460234598,
,,,,,,,,,,,,,,,,5,8.2,9.1,10,10.9,11.8,0.9,0.65,0.25,3.85,10,initial,36.05,296,328,361,393,425,9,9,9,9,9,,,,,,,1,0,1,0,0,18,18,48,,,,,,,,,,,,,,4,0.8037966999982018,4,0.5,0.35000000000000003,12.61502,return,2.242613700014772,,,,,,,,,,,,,,,,,p321,22,female,up_down_width,2025-12-19_10h59.19.362,exp1,2023.1.0,60.01662460234598,
,,,,,,,,,,,,,,,,3,8.9,10,11.1,0,0,1.1,0.55,0.55,2.75,10,initial,36.05,321,361,400,0,0,9,9,9,0,0,,,,,,,1,0,1,0,0,19,19,0,,,,,,,,,,,,,,3,0.9380314000009093,3,0.25,0.49999999999999994,18.02146,return,1.730909600009909,,,,,,,,,,,,,,,,,p321,22,female,up_down_width,2025-12-19_10h59.19.362,exp1,2023.1.0,60.01662460234598,
,,,,,,,,,,,,,,,,3,8.9,10,11.1,0,0,1.1,0.7000000000000001,0.4,2.6000000000000005,10,initial,36.05,321,361,400,0,0,9,9,9,0,0,,,,,,,1,0,1,0,0,20,20,4,,,,,,,,,,,,,,3,0.7748094999988098,3,0.45,0.45,16.21932,return,0.7271495999884792,,,,,,,,,,,,,,,,,p321,22,female,up_down_width,2025-12-19_10h59.19.362,exp1,2023.1.0,60.01662460234598,
,,,,,,,,,,,,,,,,4,9.1,9.7,10.3,10.9,0,0.5999999999999999,0.3499999999999999,0.25,2.05,10,match,36.05,328,350,371,393,0,9,9,9,9,0,,,,,,,1,0,1,0,0,21,21,14,,,,,,,,,,,,,,4,0.7491542999923695,4,0.55,0.4,14.41717,return,1.9987529000209179,,,,,,,,,,,,,,,,,p321,22,female,up_down_width,2025-12-19_10h59.19.362,exp1,2023.1.0,60.01662460234598,
,,,,,,,,,,,,,,,,3,8.2,10,11.8,0,0,1.7999999999999998,1.4,0.4,4,10,match,36.05,296,361,425,0,0,9,9,9,0,0,,,,,,,1,0,1,0,0,22,22,51,,,,,,,,,,,,,,3,0.9992423000221606,3,0.3,0.35,12.61502,return,1.2300017999950796,,,,,,,,,,,,,,,,,p321,22,female,up_down_width,2025-12-19_10h59.19.362,exp1,2023.1.0,60.01662460234598,
,,,,,,,,,,,,,,,,4,8.95,9.65,10.35,11.05,0,0.7,0.1499999999999999,0.55,2.65,10,initial,36.05,323,348,373,398,0,9,9,9,9,0,,,,,,,1,0,1,0,0,23,23,23,,,,,,,,,,,,,,4,0.7786958999931812,4,0.55,0.55,19.82361,return,0.7299644000013359,,,,,,,,,,,,,,,,,p321,22,female,up_down_width,2025-12-19_10h59.19.362,exp1,2023.1.0,60.01662460234598,
,,,,,,,,,,,,,,,,3,7.800000000000001,10,12.2,0,0,2.1999999999999997,1.7999999999999998,0.4,4.8,10,match,36.05,281,361,440,0,0,9,9,9,0,0,,,,,,,1,0,1,0,0,24,24,39,,,,,,,,,,,,,,2,0.46552439997321926,2,0.2,0.44999999999999996,16.21932,return,2.3973971999948844,,,,,,,,,,,,,,,,,p321,22,female,up_down_width,2025-12-19_10h59.19.362,exp1,2023.1.0,60.01662460234598,
,,,,,,,,,,,,,,,,5,8.35,9.175,10,10.825,11.65,0.8250000000000001,0.275,0.55,3.85,10,match,36.05,301,331,361,390,420,9,9,9,9,9,,,,,,,1,0,1,0,0,25,25,18,,,,,,,,,,,,,,5,1.0471891000051983,5,0.2,0.49999999999999994,18.02146,return,2.3485173000080977,,,,,,,,,,,,,,,,,p321,22,female,up_down_width,2025-12-19_10h59.19.362,exp1,2023.1.0,60.01662460234598,
,,,,,,,,,,,,,,,,3,9.1,10,10.9,0,0,0.9,0.5,0.4,2.2,10,initial,36.05,328,361,393,0,0,9,9,9,0,0,,,,,,,1,0,1,0,0,26,26,15,,,,,,,,,,,,,,2,0.6621584999957122,2,0.45,0.55,19.82361,return,4.041250999987824,,,,,,,,,,,,,,,,,p321,22,female,up_down_width,2025-12-19_10h59.19.362,exp1,2023.1.0,60.01662460234598,
,,,,,,,,,,,,,,,,4,9.3,9.766666666666667,10.233333333333333,10.7,0,0.4666666666666667,0.06666666666666665,0.4,1.8,10,match,36.05,335,352,369,386,0,9,9,9,9,0,,,,,,,1,0,1,0,0,27,27,10,,,,,,,,,,,,,,4,1.4013267999980599,4,0.35,0.39999999999999997,14.41717,return,0.9288321000058204,,,,,,,,,,,,,,,,,p321,22,female,up_down_width,2025-12-19_10h59.19.362,exp1,2023.1.0,60.01662460234598,
,,,,,,,,,,,,,,,,3,8.6,10,11.4,0,0,1.4,0.85,0.55,3.35,10,match,36.05,310,361,411,0,0,9,9,9,0,0,,,,,,,1,0,1,0,0,28,28,41,,,,,,,,,,,,,,3,0.4080721999926027,3,0.2,0.49999999999999994,18.02146,return,1.9427338000095915,,,,,,,,,,,,,,,,,p321,22,female,up_down_width,2025-12-19_10h59.19.362,exp1,2023.1.0,60.01662460234598,
,,,,,,,,,,,,,,,,4,8.95,9.65,10.35,11.05,0,0.7,0.29999999999999993,0.4,2.5,10,initial,36.05,323,348,373,398,0,9,9,9,9,0,,,,,,,1,0,1,0,0,29,29,26,,,,,,,,,,,,,,4,0.6586805999977514,4,0.2,0.2,7.20859,return,0.7109827999956906,,,,,,,,,,,,,,,,,p321,22,female,up_down_width,2025-12-19_10h59.19.362,exp1,2023.1.0,60.01662460234598,
,,,,,,,,,,,,,,,,4,8.35,9.45,10.55,11.65,0,1.1,0.55,0.55,3.8500000000000005,10,initial,36.05,301,341,380,420,0,9,9,9,9,0,,,,,,,1,0,1,0,0,30,30,17,,,,,,,,,,,,,,4,0.9866566999990027,4,0.3,0.44999999999999996,16.21932,return,3.394583400018746,,,,,,,,,,,,,,,,,p321,22,female,up_down_width,2025-12-19_10h59.19.362,exp1,2023.1.0,60.01662460234598,
,,,,,,,,,,,,,,,,3,8.9,10,11.1,0,0,1.1,0.8500000000000001,0.25,2.45,10,initial,36.05,321,361,400,0,0,9,9,9,0,0,,,,,,,1,0,1,0,0,31,31,2,,,,,,,,,,,,,,3,0.5159169000107795,3,0.2,0.3,10.81288,return,1.0549388999934308,,,,,,,,,,,,,,,,,p321,22,female,up_down_width,2025-12-19_10h59.19.362,exp1,2023.1.0,60.01662460234598,
,,,,,,,,,,,,,,,,3,9.1,10,10.9,0,0,0.9,0.35,0.55,2.35,10,initial,36.05,328,361,393,0,0,9,9,9,0,0,,,,,,,1,0,1,0,0,32,32,11,,,,,,,,,,,,,,3,0.4973527000111062,3,0.2,0.49999999999999994,18.02146,return,2.2845300000044517,,,,,,,,,,,,,,,,,p321,22,female,up_down_width,2025-12-19_10h59.19.362,exp1,2023.1.0,60.01662460234598,
,,,,,,,,,,,,,,,,4,8.65,9.55,10.45,11.35,0,0.9,0.65,0.25,2.95,10,initial,36.05,312,344,377,409,0,9,9,9,9,0,,,,,,,1,0,1,0,0,33,33,30,,,,,,,,,,,,,,4,0.39939900001627393,4,0.45,0.25000000000000006,9.01073,return,1.4385249000042677,,,,,,,,,,,,,,,,,p321,22,female,up_down_width,2025-12-19_10h59.19.362,exp1,2023.1.0,60.01662460234598,
,,,,,,,,,,,,,,,,4,8.825,9.608333333333333,10.391666666666667,11.175,0,0.7833333333333333,0.5333333333333333,0.25,2.6,10,match,36.05,318,346,375,403,0,9,9,9,9,0,,,,,,,1,0,1,0,0,34,34,5,,,,,,,,,,,,,,4,0.711808199994266,4,0.3,0.2,7.20859,return,1.129914999997709,,,,,,,,,,,,,,,,,p321,22,female,up_down_width,2025-12-19_10h59.19.362,exp1,2023.1.0,60.01662460234598,
,,,,,,,,,,,,,,,,3,7.8,10,12.2,0,0,2.2,1.9500000000000002,0.25,4.65,10,match,36.05,281,361,440,0,0,9,9,9,0,0,,,,,,,1,0,1,0,0,35,35,37,,,,,,,,,,,,,,3,0.6138272999960463,3,0.45,0.20000000000000007,7.20859,return,1.5160800000012387,,,,,,,,,,,,,,,,,p321,22,female,up_down_width,2025-12-19_10h59.19.362,exp1,2023.1.0,60.01662460234598,
,,,,,,,,,,,,,,,,4,9.3,9.766666666666667,10.233333333333333,10.7,0,0.4666666666666667,0.21666666666666665,0.25,1.65,10,match,36.05,335,352,369,386,0,9,9,9,9,0,,,,,,,1,0,1,0,0,36,36,8,,,,,,,,,,,,,,4,0.518614600005094,4,0.2,0.3,10.81288,return,1.041160300024785,,,,,,,,,,,,,,,,,p321,22,female,up_down_width,2025-12-19_10h59.19.362,exp1,2023.1.0,60.01662460234598,
,,,,,,,,,,,,,,,,4,8.9,9.633333333333333,10.366666666666667,11.1,0,0.7333333333333334,0.4833333333333334,0.25,2.45,10,match,36.05,321,347,374,400,0,9,9,9,9,0,,,,,,,1,0,1,0,0,37,37,3,,,,,,,,,,,,,,4,0.5131154999835417,4,0.45,0.25000000000000006,9.01073,return,1.563116799981799,,,,,,,,,,,,,,,,,p321,22,female,up_down_width,2025-12-19_10h59.19.362,exp1,2023.1.0,60.01662460234598,
,,,,,,,,,,,,,,,,4,8.65,9.55,10.45,11.35,0,0.9,0.5,0.4,3.1,10,initial,36.05,312,344,377,409,0,9,9,9,9,0,,,,,,,1,0,1,0,0,38,38,32,,,,,,,,,,,,,,4,0.5104621000064071,4,0.3,0.44999999999999996,16.21932,return,1.449513300001854,,,,,,,,,,,,,,,,,p321,22,female,up_down_width,2025-12-19_10h59.19.362,exp1,2023.1.0,60.01662460234598,
,,,,,,,,,,,,,,,,5,8.6,9.3,10,10.7,11.4,0.7,0.44999999999999996,0.25,3.05,10,initial,36.05,310,335,361,386,411,9,9,9,9,9,,,,,,,1,0,1,0,0,39,39,42,,,,,,,,,,,,,,5,1.2066945999977179,5,0.25,0.3,10.81288,return,0.7568134999892209,,,,,,,,,,,,,,,,,p321,22,female,up_down_width,2025-12-19_10h59.19.362,exp1,2023.1.0,60.01662460234598,
,,,,,,,,,,,,,,,,5,8.6,9.3,10,10.7,11.4,0.7,0.1499999999999999,0.55,3.3499999999999996,10,initial,36.05,310,335,361,386,411,9,9,9,9,9,,,,,,,1,0,1,0,0,40,40,40,,,,,,,,,,,,,,5,0.5438673000026029,5,0.45,0.55,19.82361,return,0.9364797000016551,,,,,,,,,,,,,,,,,p321,22,female,up_down_width,2025-12-19_10h59.19.362,exp1,2023.1.0,60.01662460234598,
,,,,,,,,,,,,,,,,3,8.2,10,11.8,0,0,1.8,1.55,0.25,3.85,10,match,36.05,296,361,425,0,0,9,9,9,0,0,,,,,,,1,0,1,0,0,41,41,49,,,,,,,,,,,,,,3,0.5130005999817513,3,0.2,0.25,9.01073,return,1.7067854999913834,,,,,,,,,,,,,,,,,p321,22,female,up_down_width,2025-12-19_10h59.19.362,exp1,2023.1.0,60.01662460234598,
,,,,,,,,,,,,,,,,3,8.525,10,11.475,0,0,1.475,1.225,0.25,3.2,10,match,36.05,307,361,414,0,0,9,9,9,0,0,,,,,,,1,0,1,0,0,42,42,45,,,,,,,,,,,,,,3,0.49390169998514466,3,0.5,0.25000000000000006,9.01073,return,3.080678699974669,,,,,,,,,,,,,,,,,p321,22,female,up_down_width,2025-12-19_10h59.19.362,exp1,2023.1.0,60.01662460234598,
,,,,,,,,,,,,,,,,5,8.35,9.175,10,10.825,11.65,0.825,0.575,0.25,3.55,10,match,36.05,301,331,361,390,420,9,9,9,9,9,,,,,,,1,0,1,0,0,43,43,20,,,,,,,,,,,,,,4,0.9007601999910548,4,0.55,0.30000000000000004,10.81288,return,1.9826816999993753,,,,,,,,,,,,,,,,,p321,22,female,up_down_width,2025-12-19_10h59.19.362,exp1,2023.1.0,60.01662460234598,
,,,,,,,,,,,,,,,,3,9.3,10,10.7,0,0,0.7,0.44999999999999996,0.25,1.65,10,initial,36.05,335,361,386,0,0,9,9,9,0,0,,,,,,,1,0,1,0,0,44,44,7,,,,,,,,,,,,,,3,0.5901870999950916,3,0.35,0.2,7.20859,return,1.1730791000009049,,,,,,,,,,,,,,,,,p321,22,female,up_down_width,2025-12-19_10h59.19.362,exp1,2023.1.0,60.01662460234598,
,,,,,,,,,,,,,,,,4,9.1,9.7,10.3,10.9,0,0.6000000000000001,0.20000000000000004,0.4,2.2,10,match,36.05,328,350,371,393,0,9,9,9,9,0,,,,,,,1,0,1,0,0,45,45,16,,,,,,,,,,,,,,4,1.3149556999851484,4,0.4,0.4,14.41717,return,0.5415539000241552,,,,,,,,,,,,,,,,,p321,22,female,up_down_width,2025-12-19_10h59.19.362,exp1,2023.1.0,60.01662460234598,
,,,,,,,,,,,,,,,,5,8.275,9.1375,10,10.8625,11.725,0.8625,0.6125,0.25,3.7,10,match,36.05,298,329,361,392,423,9,9,9,9,9,,,,,,,1,0,1,0,0,46,46,22,,,,,,,,,,,,,,4,0.7048721000028308,4,0.5,0.25000000000000006,9.01073,return,2.2914166999980807,,,,,,,,,,,,,,,,,p321,22,female,up_down_width,2025-12-19_10h59.19.362,exp1,2023.1.0,60.01662460234598,
,,,,,,,,,,,,,,,,5,8.65,9.325,10,10.675,11.35,0.675,0.42500000000000004,0.25,2.95,10,match,36.05,312,336,361,385,409,9,9,9,9,9,,,,,,,1,0,1,0,0,47,47,31,,,,,,,,,,,,,,5,0.8360714000009466,5,0.3,0.2,7.20859,return,0.8982876999943983,,,,,,,,,,,,,,,,,p321,22,female,up_down_width,2025-12-19_10h59.19.362,exp1,2023.1.0,60.01662460234598,
,,,,,,,,,,,,,,,,5,7.8,8.9,10,11.1,12.2,1.1,0.7000000000000001,0.4,4.800000000000001,10,initial,36.05,281,321,361,400,440,9,9,9,9,9,,,,,,,1,0,1,0,0,48,48,38,,,,,,,,,,,,,,5,1.0027830000035465,5,0.3,0.39999999999999997,14.41717,return,1.2342675999971107,,,,,,,,,,,,,,,,,p321,22,female,up_down_width,2025-12-19_10h59.19.362,exp1,2023.1.0,60.01662460234598,
,,,,,,,,,,,,,,,,5,7.8,8.9,10,11.1,12.2,1.1,0.55,0.55,4.95,10,initial,36.05,281,321,361,400,440,9,9,9,9,9,,,,,,,1,0,1,0,0,49,49,34,,,,,,,,,,,,,,5,1.1016610999940895,5,0.35,0.39999999999999997,14.41717,return,0.8971499000035692,,,,,,,,,,,,,,,,,p321,22,female,up_down_width,2025-12-19_10h59.19.362,exp1,2023.1.0,60.01662460234598,
,,,,,,,,,,,,,,,,3,8.6,10,11.4,0,0,1.4,1.15,0.25,3.05,10,match,36.05,310,361,411,0,0,9,9,9,0,0,,,,,,,1,0,1,0,0,50,50,43,,,,,,,,,,,,,,3,0.5698485000175424,3,0.55,0.25000000000000006,9.01073,return,2.7852420000126585,,,,,,,,,,,,,,,,,p321,22,female,up_down_width,2025-12-19_10h59.19.362,exp1,2023.1.0,60.01662460234598,
,,,,,,,,,,,,,,,,5,8.6,9.3,10,10.7,11.4,0.7,0.29999999999999993,0.4,3.1999999999999997,10,initial,36.05,310,335,361,386,411,9,9,9,9,9,,,,,,,1,0,1,0,0,51,51,44,,,,,,,,,,,,,,5,0.8840644999872893,5,0.5,0.5,18.02146,return,1.134514700010186,,,,,,,,,,,,,,,,,p321,22,female,up_down_width,2025-12-19_10h59.19.362,exp1,2023.1.0,60.01662460234598,
,,,,,,,,,,,,,,,,,,,,,,,,,,,,,,,,,,,,,,,,,,,,,1,0,1,0,,,,,,,,,,,,,,,,,,,,,,,,,,,,9431.206558900012,9431.206558900012,9431.206558900012,,,,,,,,,,,,p321,22,female,up_down_width,2025-12-19_10h59.19.362,exp1,2023.1.0,60.01662460234598,
,,,,,,,,,,,,,,,,5,8.275,9.1375,10,10.8625,11.725,0.8625,0.6125,0.25,3.7,10,match,36.05,298,329,361,392,423,9,9,9,9,9,,,,,,,2,0,2,0,0,0,0,22,,,,,,,,,,,,,,5,1.072765699995216,5,0.5,0.25000000000000006,9.01073,return,1.8289268999942578,,,,,,,,,,,,,,,,,p321,22,female,up_down_width,2025-12-19_10h59.19.362,exp1,2023.1.0,60.01662460234598,
,,,,,,,,,,,,,,,,4,8.9,9.633333333333333,10.366666666666667,11.1,0,0.7333333333333334,0.4833333333333334,0.25,2.45,10,match,36.05,321,347,374,400,0,9,9,9,9,0,,,,,,,2,0,2,0,0,1,1,3,,,,,,,,,,,,,,4,1.1015778000000864,4,0.2,0.2,7.20859,return,0.5757967999961693,,,,,,,,,,,,,,,,,p321,22,female,up_down_width,2025-12-19_10h59.19.362,exp1,2023.1.0,60.01662460234598,
,,,,,,,,,,,,,,,,4,8.95,9.65,10.35,11.05,0,0.7,0.29999999999999993,0.4,2.5,10,initial,36.05,323,348,373,398,0,9,9,9,9,0,,,,,,,2,0,2,0,0,2,2,26,,,,,,,,,,,,,,3,1.0403962999989744,3,0.35,0.35,12.61502,return,0.42088000001967885,,,,,,,,,,,,,,,,,p321,22,female,up_down_width,2025-12-19_10h59.19.362,exp1,2023.1.0,60.01662460234598,
,,,,,,,,,,,,,,,,3,7.800000000000001,10,12.2,0,0,2.1999999999999997,1.7999999999999998,0.4,4.8,10,match,36.05,281,361,440,0,0,9,9,9,0,0,,,,,,,2,0,2,0,0,3,3,39,,,,,,,,,,,,,,3,0.5971966999932192,3,0.25,0.49999999999999994,18.02146,return,2.25138039997546,,,,,,,,,,,,,,,,,p321,22,female,up_down_width,2025-12-19_10h59.19.362,exp1,2023.1.0,60.01662460234598,
,,,,,,,,,,,,,,,,3,8.2,10,11.8,0,0,1.8,1.55,0.25,3.85,10,match,36.05,296,361,425,0,0,9,9,9,0,0,,,,,,,2,0,2,0,0,4,4,49,,,,,,,,,,,,,,3,0.5052297000074759,3,0.2,0.2,7.20859,return,0.6121303999971133,,,,,,,,,,,,,,,,,p321,22,female,up_down_width,2025-12-19_10h59.19.362,exp1,2023.1.0,60.01662460234598,
,,,,,,,,,,,,,,,,5,8.2,9.1,10,10.9,11.8,0.9,0.5,0.4,4,10,initial,36.05,296,328,361,393,425,9,9,9,9,9,,,,,,,2,0,2,0,0,5,5,50,,,,,,,,,,,,,,5,0.8347152000060305,5,0.35,0.35,12.61502,return,0.6883901999972295,,,,,,,,,,,,,,,,,p321,22,female,up_down_width,2025-12-19_10h59.19.362,exp1,2023.1.0,60.01662460234598,
,,,,,,,,,,,,,,,,3,9.1,10,10.9,0,0,0.9,0.65,0.25,2.05,10,initial,36.05,328,361,393,0,0,9,9,9,0,0,,,,,,,2,0,2,0,0,6,6,13,,,,,,,,,,,,,,2,1.329435099993134,2,0.3,0.3,10.81288,return,0.5553465999837499,,,,,,,,,,,,,,,,,p321,22,female,up_down_width,2025-12-19_10h59.19.362,exp1,2023.1.0,60.01662460234598,
,,,,,,,,,,,,,,,,3,8.9,10,11.1,0,0,1.1,0.7000000000000001,0.4,2.6000000000000005,10,initial,36.05,321,361,400,0,0,9,9,9,0,0,,,,,,,2,0,2,0,0,7,7,4,,,,,,,,,,,,,,3,0.599805900012143,3,0.35,0.44999999999999996,16.21932,return,1.0240747000207193,,,,,,,,,,,,,,,,,p321,22,female,up_down_width,2025-12-19_10h59.19.362,exp1,2023.1.0,60.01662460234598,
,,,,,,,,,,,,,,,,5,8.35,9.175,10,10.825,11.65,0.8250000000000001,0.275,0.55,3.85,10,match,36.05,301,331,361,390,420,9,9,9,9,9,,,,,,,2,0,2,0,0,8,8,18,,,,,,,,,,,,,,4,0.951198899972951,4,0.3,0.39999999999999997,14.41717,return,0.9441727999947034,,,,,,,,,,,,,,,,,p321,22,female,up_down_width,2025-12-19_10h59.19.362,exp1,2023.1.0,60.01662460234598,
,,,,,,,,,,,,,,,,4,8.95,9.65,10.35,11.05,0,0.7,0.1499999999999999,0.55,2.65,10,initial,36.05,323,348,373,398,0,9,9,9,9,0,,,,,,,2,0,2,0,0,9,9,23,,,,,,,,,,,,,,4,0.7632472999976017,4,0.55,0.55,19.82361,return,0.5889618000073824,,,,,,,,,,,,,,,,,p321,22,female,up_down_width,2025-12-19_10h59.19.362,exp1,2023.1.0,60.01662460234598,
,,,,,,,,,,,,,,,,5,8.95,9.475,10,10.525,11.05,0.525,0.125,0.4,2.5,10,match,36.05,323,342,361,379,398,9,9,9,9,9,,,,,,,2,0,2,0,0,10,10,27,,,,,,,,,,,,,,4,0.6325046999845654,4,0.5,0.5,18.02146,return,0.6862596999853849,,,,,,,,,,,,,,,,,p321,22,female,up_down_width,2025-12-19_10h59.19.362,exp1,2023.1.0,60.01662460234598,
,,,,,,,,,,,,,,,,3,8.2,10,11.8,0,0,1.8,1.25,0.55,4.15,10,match,36.05,296,361,425,0,0,9,9,9,0,0,,,,,,,2,0,2,0,0,11,11,47,,,,,,,,,,,,,,3,0.6490269999776501,3,0.45,0.7000000000000002,25.23005,return,1.405492799996864,,,,,,,,,,,,,,,,,p321,22,female,up_down_width,2025-12-19_10h59.19.362,exp1,2023.1.0,60.01662460234598,
,,,,,,,,,,,,,,,,5,8.6,9.3,10,10.7,11.4,0.7,0.1499999999999999,0.55,3.3499999999999996,10,initial,36.05,310,335,361,386,411,9,9,9,9,9,,,,,,,2,0,2,0,0,12,12,40,,,,,,,,,,,,,,4,0.8995622000074945,4,0.3,0.49999999999999994,18.02146,return,1.3421959999832325,,,,,,,,,,,,,,,,,p321,22,female,up_down_width,2025-12-19_10h59.19.362,exp1,2023.1.0,60.01662460234598,
,,,,,,,,,,,,,,,,4,8.9,9.633333333333333,10.366666666666667,11.1,0,0.7333333333333333,0.18333333333333326,0.55,2.75,10,match,36.05,321,347,374,400,0,9,9,9,9,0,,,,,,,2,0,2,0,0,13,13,1,,,,,,,,,,,,,,3,0.6612388000066858,3,0.2,0.65,23.4279,return,2.521742000011727,,,,,,,,,,,,,,,,,p321,22,female,up_down_width,2025-12-19_10h59.19.362,exp1,2023.1.0,60.01662460234598,
,,,,,,,,,,,,,,,,5,7.8,8.9,10,11.1,12.2,1.1,0.7000000000000001,0.4,4.800000000000001,10,initial,36.05,281,321,361,400,440,9,9,9,9,9,,,,,,,2,0,2,0,0,14,14,38,,,,,,,,,,,,,,5,1.2286790999933146,5,0.45,0.5,18.02146,return,1.4989548999874387,,,,,,,,,,,,,,,,,p321,22,female,up_down_width,2025-12-19_10h59.19.362,exp1,2023.1.0,60.01662460234598,
,,,,,,,,,,,,,,,,4,9.1,9.7,10.3,10.9,0,0.6000000000000001,0.20000000000000004,0.4,2.2,10,match,36.05,328,350,371,393,0,9,9,9,9,0,,,,,,,2,0,2,0,0,15,15,16,,,,,,,,,,,,,,3,0.9075582000077702,3,0.55,0.55,19.82361,return,0.4054683999856934,,,,,,,,,,,,,,,,,p321,22,female,up_down_width,2025-12-19_10h59.19.362,exp1,2023.1.0,60.01662460234598,
,,,,,,,,,,,,,,,,4,8.95,9.65,10.35,11.05,0,0.7,0.44999999999999996,0.25,2.3499999999999996,10,initial,36.05,323,348,373,398,0,9,9,9,9,0,,,,,,,2,0,2,0,0,16,16,24,,,,,,,,,,,,,,4,0.8706496999948286,4,0.25,0.25,9.01073,return,0.626911100000143,,,,,,,,,,,,,,,,,p321,22,female,up_down_width,2025-12-19_10h59.19.362,exp1,2023.1.0,60.01662460234598,
,,,,,,,,,,,,,,,,3,8.2,10,11.8,0,0,1.7999999999999998,1.4,0.4,4,10,match,36.05,296,361,425,0,0,9,9,9,0,0,,,,,,,2,0,2,0,0,17,17,51,,,,,,,,,,,,,,3,0.5440494000213221,3,0.3,0.3,10.81288,return,0.6984917999943718,,,,,,,,,,,,,,,,,p321,22,female,up_down_width,2025-12-19_10h59.19.362,exp1,2023.1.0,60.01662460234598,
,,,,,,,,,,,,,,,,4,9.3,9.766666666666667,10.233333333333333,10.7,0,0.4666666666666667,0.21666666666666665,0.25,1.65,10,match,36.05,335,352,369,386,0,9,9,9,9,0,,,,,,,2,0,2,0,0,18,18,8,,,,,,,,,,,,,,3,0.8011696999892592,3,0.5,0.30000000000000004,10.81288,return,2.319979099993361,,,,,,,,,,,,,,,,,p321,22,female,up_down_width,2025-12-19_10h59.19.362,exp1,2023.1.0,60.01662460234598,
,,,,,,,,,,,,,,,,4,9.1,9.7,10.3,10.9,0,0.5999999999999999,0.3499999999999999,0.25,2.05,10,match,36.05,328,350,371,393,0,9,9,9,9,0,,,,,,,2,0,2,0,0,19,19,14,,,,,,,,,,,,,,4,0.9328333000012208,4,0.25,0.25,9.01073,return,0.5099232000065967,,,,,,,,,,,,,,,,,p321,22,female,up_down_width,2025-12-19_10h59.19.362,exp1,2023.1.0,60.01662460234598,
,,,,,,,,,,,,,,,,4,8.35,9.45,10.55,11.65,0,1.1,0.55,0.55,3.8500000000000005,10,initial,36.05,301,341,380,420,0,9,9,9,9,0,,,,,,,2,0,2,0,0,20,20,17,,,,,,,,,,,,,,4,0.5931685999967158,4,0.4,0.4,14.41717,return,0.6162646999873687,,,,,,,,,,,,,,,,,p321,22,female,up_down_width,2025-12-19_10h59.19.362,exp1,2023.1.0,60.01662460234598,
,,,,,,,,,,,,,,,,5,8.65,9.325,10,10.675,11.35,0.675,0.42500000000000004,0.25,2.95,10,match,36.05,312,336,361,385,409,9,9,9,9,9,,,,,,,2,0,2,0,0,21,21,31,,,,,,,,,,,,,,5,0.8548780999844894,5,0.55,0.35000000000000003,12.61502,return,1.8116034000122454,,,,,,,,,,,,,,,,,p321,22,female,up_down_width,2025-12-19_10h59.19.362,exp1,2023.1.0,60.01662460234598,
,,,,,,,,,,,,,,,,4,8.35,9.45,10.55,11.65,0,1.1,0.8500000000000001,0.25,3.5500000000000003,10,initial,36.05,301,341,380,420,0,9,9,9,9,0,,,,,,,2,0,2,0,0,22,22,19,,,,,,,,,,,,,,4,0.9140805000206456,4,0.2,0.2,7.20859,return,0.49357249998138286,,,,,,,,,,,,,,,,,p321,22,female,up_down_width,2025-12-19_10h59.19.362,exp1,2023.1.0,60.01662460234598,
,,,,,,,,,,,,,,,,4,8.65,9.55,10.45,11.35,0,0.9,0.65,0.25,2.95,10,initial,36.05,312,344,377,409,0,9,9,9,9,0,,,,,,,2,0,2,0,0,23,23,30,,,,,,,,,,,,,,4,0.8609990999975707,4,0.55,0.20000000000000007,7.20859,return,3.1454950000043027,,,,,,,,,,,,,,,,,p321,22,female,up_down_width,2025-12-19_10h59.19.362,exp1,2023.1.0,60.01662460234598,
,,,,,,,,,,,,,,,,3,8.525,10,11.475,0,0,1.475,1.225,0.25,3.2,10,match,36.05,307,361,414,0,0,9,9,9,0,0,,,,,,,2,0,2,0,0,24,24,45,,,,,,,,,,,,,,3,0.549036199983675,3,0.55,0.25000000000000006,9.01073,return,1.8366531000065152,,,,,,,,,,,,,,,,,p321,22,female,up_down_width,2025-12-19_10h59.19.362,exp1,2023.1.0,60.01662460234598,
,,,,,,,,,,,,,,,,3,8.6,10,11.4,0,0,1.4,1.15,0.25,3.05,10,match,36.05,310,361,411,0,0,9,9,9,0,0,,,,,,,2,0,2,0,0,25,25,43,,,,,,,,,,,,,,3,0.5990722000133246,3,0.2,0.2,7.20859,return,2.1102040999976452,,,,,,,,,,,,,,,,,p321,22,female,up_down_width,2025-12-19_10h59.19.362,exp1,2023.1.0,60.01662460234598,
,,,,,,,,,,,,,,,,4,8.65,9.55,10.45,11.35,0,0.9,0.5,0.4,3.1,10,initial,36.05,312,344,377,409,0,9,9,9,9,0,,,,,,,2,0,2,0,0,26,26,32,,,,,,,,,,,,,,4,0.6826800999988336,4,0.4,0.4,14.41717,return,0.5113447999756318,,,,,,,,,,,,,,,,,p321,22,female,up_down_width,2025-12-19_10h59.19.362,exp1,2023.1.0,60.01662460234598,
,,,,,,,,,,,,,,,,5,8.95,9.475,10,10.525,11.05,0.525,0.275,0.25,2.35,10,match,36.05,323,342,361,379,398,9,9,9,9,9,,,,,,,2,0,2,0,0,27,27,25,,,,,,,,,,,,,,5,0.9876404000096954,5,0.55,0.35000000000000003,12.61502,return,2.2739900999877136,,,,,,,,,,,,,,,,,p321,22,female,up_down_width,2025-12-19_10h59.19.362,exp1,2023.1.0,60.01662460234598,
,,,,,,,,,,,,,,,,4,9.1,9.7,10.3,10.9,0,0.6,0.04999999999999997,0.55,2.35,10,match,36.05,328,350,371,393,0,9,9,9,9,0,,,,,,,2,0,2,0,0,28,28,12,,,,,,,,,,,,,,4,0.6351472999958787,4,0.35,0.5499999999999999,19.82361,return,1.9040826999989804,,,,,,,,,,,,,,,,,p321,22,female,up_down_width,2025-12-19_10h59.19.362,exp1,2023.1.0,60.01662460234598,
,,,,,,,,,,,,,,,,3,8.9,10,11.1,0,0,1.1,0.55,0.55,2.75,10,initial,36.05,321,361,400,0,0,9,9,9,0,0,,,,,,,2,0,2,0,0,29,29,0,,,,,,,,,,,,,,3,0.513450800004648,3,0.2,0.5499999999999999,19.82361,return,2.364232699997956,,,,,,,,,,,,,,,,,p321,22,female,up_down_width,2025-12-19_10h59.19.362,exp1,2023.1.0,60.01662460234598,
,,,,,,,,,,,,,,,,3,9.1,10,10.9,0,0,0.9,0.35,0.55,2.35,10,initial,36.05,328,361,393,0,0,9,9,9,0,0,,,,,,,2,0,2,0,0,30,30,11,,,,,,,,,,,,,,3,0.4901931000058539,3,0.45,0.6000000000000001,21.62576,return,1.7821310000144877,,,,,,,,,,,,,,,,,p321,22,female,up_down_width,2025-12-19_10h59.19.362,exp1,2023.1.0,60.01662460234598,
,,,,,,,,,,,,,,,,3,7.8,10,12.2,0,0,2.2,1.9500000000000002,0.25,4.65,10,match,36.05,281,361,440,0,0,9,9,9,0,0,,,,,,,2,0,2,0,0,31,31,37,,,,,,,,,,,,,,3,0.4116106999863405,3,0.55,0.35000000000000003,12.61502,return,1.6584784000006039,,,,,,,,,,,,,,,,,p321,22,female,up_down_width,2025-12-19_10h59.19.362,exp1,2023.1.0,60.01662460234598,
,,,,,,,,,,,,,,,,3,9.3,10,10.7,0,0,0.7,0.1499999999999999,0.55,1.95,10,initial,36.05,335,361,386,0,0,9,9,9,0,0,,,,,,,2,0,2,0,0,32,32,6,,,,,,,,,,,,,,3,1.5825402999762446,3,0.4,0.6000000000000001,21.62576,return,2.47945690000779,,,,,,,,,,,,,,,,,p321,22,female,up_down_width,2025-12-19_10h59.19.362,exp1,2023.1.0,60.01662460234598,
,,,,,,,,,,,,,,,,5,8.65,9.325,10,10.675,11.35,0.675,0.125,0.55,3.25,10,match,36.05,312,336,361,385,409,9,9,9,9,9,,,,,,,2,0,2,0,0,33,33,29,,,,,,,,,,,,,,4,0.8089790999947581,4,0.35,0.6,21.62576,return,2.1680644000007305,,,,,,,,,,,,,,,,,p321,22,female,up_down_width,2025-12-19_10h59.19.362,exp1,2023.1.0,60.01662460234598,
,,,,,,,,,,,,,,,,5,8.6,9.3,10,10.7,11.4,0.7,0.29999999999999993,0.4,3.1999999999999997,10,initial,36.05,310,335,361,386,411,9,9,9,9,9,,,,,,,2,0,2,0,0,34,34,44,,,,,,,,,,,,,,4,0.6979874999960884,4,0.25,0.49999999999999994,18.02146,return,1.804417800012743,,,,,,,,,,,,,,,,,p321,22,female,up_down_width,2025-12-19_10h59.19.362,exp1,2023.1.0,60.01662460234598,
,,,,,,,,,,,,,,,,5,7.8,8.9,10,11.1,12.2,1.1,0.55,0.55,4.95,10,initial,36.05,281,321,361,400,440,9,9,9,9,9,,,,,,,2,0,2,0,0,35,35,34,,,,,,,,,,,,,,5,0.8330154999857768,5,0.4,0.55,19.82361,return,1.312072500004433,,,,,,,,,,,,,,,,,p321,22,female,up_down_width,2025-12-19_10h59.19.362,exp1,2023.1.0,60.01662460234598,
,,,,,,,,,,,,,,,,4,8.825,9.608333333333333,10.391666666666667,11.175,0,0.7833333333333333,0.5333333333333333,0.25,2.6,10,match,36.05,318,346,375,403,0,9,9,9,9,0,,,,,,,2,0,2,0,0,36,36,5,,,,,,,,,,,,,,4,0.7065790999913588,4,0.2,0.3,10.81288,return,1.0613261999969836,,,,,,,,,,,,,,,,,p321,22,female,up_down_width,2025-12-19_10h59.19.362,exp1,2023.1.0,60.01662460234598,
,,,,,,,,,,,,,,,,4,8.65,9.55,10.45,11.35,0,0.9,0.35,0.55,3.25,10,initial,36.05,312,344,377,409,0,9,9,9,9,0,,,,,,,2,0,2,0,0,37,37,28,,,,,,,,,,,,,,4,0.5400177999981679,4,0.4,0.55,19.82361,return,1.1560397999710403,,,,,,,,,,,,,,,,,p321,22,female,up_down_width,2025-12-19_10h59.19.362,exp1,2023.1.0,60.01662460234598,
,,,,,,,,,,,,,,,,5,7.8,8.9,10,11.1,12.2,1.1,0.8500000000000001,0.25,4.65,10,initial,36.05,281,321,361,400,440,9,9,9,9,9,,,,,,,2,0,2,0,0,38,38,36,,,,,,,,,,,,,,5,0.7011131999897771,5,0.45,0.25000000000000006,9.01073,return,1.6808880999742541,,,,,,,,,,,,,,,,,p321,22,female,up_down_width,2025-12-19_10h59.19.362,exp1,2023.1.0,60.01662460234598,
,,,,,,,,,,,,,,,,3,9.3,10,10.7,0,0,0.7,0.29999999999999993,0.4,1.8,10,initial,36.05,335,361,386,0,0,9,9,9,0,0,,,,,,,2,0,2,0,0,39,39,9,,,,,,,,,,,,,,3,0.6341302999935579,3,0.55,0.55,19.82361,return,0.4318732999963686,,,,,,,,,,,,,,,,,p321,22,female,up_down_width,2025-12-19_10h59.19.362,exp1,2023.1.0,60.01662460234598,
,,,,,,,,,,,,,,,,3,9.3,10,10.7,0,0,0.7,0.44999999999999996,0.25,1.65,10,initial,36.05,335,361,386,0,0,9,9,9,0,0,,,,,,,2,0,2,0,0,40,40,7,,,,,,,,,,,,,,3,0.559955299977446,3,0.4,0.25000000000000006,9.01073,return,1.7677865999867208,,,,,,,,,,,,,,,,,p321,22,female,up_down_width,2025-12-19_10h59.19.362,exp1,2023.1.0,60.01662460234598,
,,,,,,,,,,,,,,,,3,8.6,10,11.4,0,0,1.4,0.85,0.55,3.35,10,match,36.05,310,361,411,0,0,9,9,9,0,0,,,,,,,2,0,2,0,0,41,41,41,,,,,,,,,,,,,,3,0.5522946999990381,3,0.3,0.5499999999999999,19.82361,return,1.7460375999798998,,,,,,,,,,,,,,,,,p321,22,female,up_down_width,2025-12-19_10h59.19.362,exp1,2023.1.0,60.01662460234598,
,,,,,,,,,,,,,,,,3,9.1,10,10.9,0,0,0.9,0.5,0.4,2.2,10,initial,36.05,328,361,393,0,0,9,9,9,0,0,,,,,,,2,0,2,0,0,42,42,15,,,,,,,,,,,,,,3,0.3993833000131417,3,0.5,0.4,14.41717,return,0.9893308999889996,,,,,,,,,,,,,,,,,p321,22,female,up_down_width,2025-12-19_10h59.19.362,exp1,2023.1.0,60.01662460234598,
,,,,,,,,,,,,,,,,3,8.9,10,11.1,0,0,1.1,0.8500000000000001,0.25,2.45,10,initial,36.05,321,361,400,0,0,9,9,9,0,0,,,,,,,2,0,2,0,0,43,43,2,,,,,,,,,,,,,,3,0.37147519999416545,3,0.2,0.2,7.20859,return,1.7316848000045866,,,,,,,,,,,,,,,,,p321,22,female,up_down_width,2025-12-19_10h59.19.362,exp1,2023.1.0,60.01662460234598,
,,,,,,,,,,,,,,,,4,8.35,9.45,10.55,11.65,0,1.1,0.7000000000000001,0.4,3.7,10,initial,36.05,301,341,380,420,0,9,9,9,9,0,,,,,,,2,0,2,0,0,44,44,21,,,,,,,,,,,,,,4,0.7099885999923572,4,0.4,0.4,14.41717,return,1.7364338999905158,,,,,,,,,,,,,,,,,p321,22,female,up_down_width,2025-12-19_10h59.19.362,exp1,2023.1.0,60.01662460234598,
,,,,,,,,,,,,,,,,3,7.8,10,12.2,0,0,2.2,1.65,0.55,4.95,10,match,36.05,281,361,440,0,0,9,9,9,0,0,,,,,,,2,0,2,0,0,45,45,35,,,,,,,,,,,,,,3,0.5821715000201948,3,0.55,0.55,19.82361,return,0.7656139000027906,,,,,,,,,,,,,,,,,p321,22,female,up_down_width,2025-12-19_10h59.19.362,exp1,2023.1.0,60.01662460234598,
,,,,,,,,,,,,,,,,4,9.3,9.766666666666667,10.233333333333333,10.7,0,0.4666666666666667,0.06666666666666665,0.4,1.8,10,match,36.05,335,352,369,386,0,9,9,9,9,0,,,,,,,2,0,2,0,0,46,46,10,,,,,,,,,,,,,,3,1.1489203000091948,3,0.35,0.44999999999999996,16.21932,return,1.7578166000021156,,,,,,,,,,,,,,,,,p321,22,female,up_down_width,2025-12-19_10h59.19.362,exp1,2023.1.0,60.01662460234598,
,,,,,,,,,,,,,,,,5,8.2,9.1,10,10.9,11.8,0.9,0.35,0.55,4.15,10,initial,36.05,296,328,361,393,425,9,9,9,9,9,,,,,,,2,0,2,0,0,47,47,46,,,,,,,,,,,,,,5,1.3679882000142243,5,0.5,0.5,18.02146,return,0.7362057999998797,,,,,,,,,,,,,,,,,p321,22,female,up_down_width,2025-12-19_10h59.19.362,exp1,2023.1.0,60.01662460234598,
,,,,,,,,,,,,,,,,5,8.6,9.3,10,10.7,11.4,0.7,0.44999999999999996,0.25,3.05,10,initial,36.05,310,335,361,386,411,9,9,9,9,9,,,,,,,2,0,2,0,0,48,48,42,,,,,,,,,,,,,,5,0.7160203999956138,5,0.4,0.20000000000000007,7.20859,return,1.2624200000136625,,,,,,,,,,,,,,,,,p321,22,female,up_down_width,2025-12-19_10h59.19.362,exp1,2023.1.0,60.01662460234598,
,,,,,,,,,,,,,,,,5,8.35,9.175,10,10.825,11.65,0.825,0.575,0.25,3.55,10,match,36.05,301,331,361,390,420,9,9,9,9,9,,,,,,,2,0,2,0,0,49,49,20,,,,,,,,,,,,,,5,1.16569699998945,5,0.5,0.35000000000000003,12.61502,return,1.6138568999886047,,,,,,,,,,,,,,,,,p321,22,female,up_down_width,2025-12-19_10h59.19.362,exp1,2023.1.0,60.01662460234598,
,,,,,,,,,,,,,,,,5,8.2,9.1,10,10.9,11.8,0.9,0.65,0.25,3.85,10,initial,36.05,296,328,361,393,425,9,9,9,9,9,,,,,,,2,0,2,0,0,50,50,48,,,,,,,,,,,,,,6,1.3017835000064224,6,0.5,0.20000000000000007,7.20859,return,1.8730490999878384,,,,,,,,,,,,,,,,,p321,22,female,up_down_width,2025-12-19_10h59.19.362,exp1,2023.1.0,60.01662460234598,
,,,,,,,,,,,,,,,,5,8.65,9.325,10,10.675,11.35,0.675,0.275,0.4,3.1,10,match,36.05,312,336,361,385,409,9,9,9,9,9,,,,,,,2,0,2,0,0,51,51,33,,,,,,,,,,,,,,5,0.7185706000018399,5,0.2,0.35,12.61502,return,1.360467399994377,,,,,,,,,,,,,,,,,p321,22,female,up_down_width,2025-12-19_10h59.19.362,exp1,2023.1.0,60.01662460234598,
,,,,,,,,,,,,,,,,,,,,,,,,,,,,,,,,,,,,,,,,,,,,,2,0,2,0,,,,,,,,,,,,,,,,,,,,,,,,,,,,9631.389785700012,9631.389785700012,9631.389785700012,,,,,,,,,,,,p321,22,female,up_down_width,2025-12-19_10h59.19.362,exp1,2023.1.0,60.01662460234598,
,,,,,,,,,,,,,,,,5,8.65,9.325,10,10.675,11.35,0.675,0.125,0.55,3.25,10,match,36.05,312,336,361,385,409,9,9,9,9,9,,,,,,,3,0,3,0,0,0,0,29,,,,,,,,,,,,,,5,0.5775682000094093,5,0.45,0.55,19.82361,return,1.0007102999952622,,,,,,,,,,,,,,,,,p321,22,female,up_down_width,2025-12-19_10h59.19.362,exp1,2023.1.0,60.01662460234598,
,,,,,,,,,,,,,,,,5,8.95,9.475,10,10.525,11.05,0.525,0.125,0.4,2.5,10,match,36.05,323,342,361,379,398,9,9,9,9,9,,,,,,,3,0,3,0,0,1,1,27,,,,,,,,,,,,,,5,0.7286071999988053,5,0.2,0.35,12.61502,return,1.3387995999946725,,,,,,,,,,,,,,,,,p321,22,female,up_down_width,2025-12-19_10h59.19.362,exp1,2023.1.0,60.01662460234598,
,,,,,,,,,,,,,,,,5,8.275,9.1375,10,10.8625,11.725,0.8625,0.6125,0.25,3.7,10,match,36.05,298,329,361,392,423,9,9,9,9,9,,,,,,,3,0,3,0,0,2,2,22,,,,,,,,,,,,,,5,0.44018449998111464,5,0.5,0.30000000000000004,10.81288,return,1.6695854999998119,,,,,,,,,,,,,,,,,p321,22,female,up_down_width,2025-12-19_10h59.19.362,exp1,2023.1.0,60.01662460234598,
,,,,,,,,,,,,,,,,3,8.2,10,11.8,0,0,1.8,1.25,0.55,4.15,10,match,36.05,296,361,425,0,0,9,9,9,0,0,,,,,,,3,0,3,0,0,3,3,47,,,,,,,,,,,,,,3,0.55888940001023,3,0.2,0.44999999999999996,16.21932,return,1.7827647000085562,,,,,,,,,,,,,,,,,p321,22,female,up_down_width,2025-12-19_10h59.19.362,exp1,2023.1.0,60.01662460234598,
,,,,,,,,,,,,,,,,3,9.3,10,10.7,0,0,0.7,0.44999999999999996,0.25,1.65,10,initial,36.05,335,361,386,0,0,9,9,9,0,0,,,,,,,3,0,3,0,0,4,4,7,,,,,,,,,,,,,,3,0.5027977999998257,3,0.2,0.2,7.20859,return,0.7218783000134863,,,,,,,,,,,,,,,,,p321,22,female,up_down_width,2025-12-19_10h59.19.362,exp1,2023.1.0,60.01662460234598,
,,,,,,,,,,,,,,,,5,7.8,8.9,10,11.1,12.2,1.1,0.8500000000000001,0.25,4.65,10,initial,36.05,281,321,361,400,440,9,9,9,9,9,,,,,,,3,0,3,0,0,5,5,36,,,,,,,,,,,,,,5,0.6145083000010345,5,0.25,0.25,9.01073,return,1.6768100000044797,,,,,,,,,,,,,,,,,p321,22,female,up_down_width,2025-12-19_10h59.19.362,exp1,2023.1.0,60.01662460234598,
,,,,,,,,,,,,,,,,5,8.95,9.475,10,10.525,11.05,0.525,0.275,0.25,2.35,10,match,36.05,323,342,361,379,398,9,9,9,9,9,,,,,,,3,0,3,0,0,6,6,25,,,,,,,,,,,,,,5,0.46670600000652485,5,0.2,0.2,7.20859,return,0.591913599986583,,,,,,,,,,,,,,,,,p321,22,female,up_down_width,2025-12-19_10h59.19.362,exp1,2023.1.0,60.01662460234598,
,,,,,,,,,,,,,,,,5,8.35,9.175,10,10.825,11.65,0.825,0.575,0.25,3.55,10,match,36.05,301,331,361,390,420,9,9,9,9,9,,,,,,,3,0,3,0,0,7,7,20,,,,,,,,,,,,,,5,0.5389168999972753,5,0.5,0.25000000000000006,9.01073,return,1.8286172000225633,,,,,,,,,,,,,,,,,p321,22,female,up_down_width,2025-12-19_10h59.19.362,exp1,2023.1.0,60.01662460234598,
,,,,,,,,,,,,,,,,5,8.2,9.1,10,10.9,11.8,0.9,0.5,0.4,4,10,initial,36.05,296,328,361,393,425,9,9,9,9,9,,,,,,,3,0,3,0,0,8,8,50,,,,,,,,,,,,,,5,0.446317399997497,5,0.4,0.45,16.21932,return,1.7234786999761127,,,,,,,,,,,,,,,,,p321,22,female,up_down_width,2025-12-19_10h59.19.362,exp1,2023.1.0,60.01662460234598,
,,,,,,,,,,,,,,,,3,8.9,10,11.1,0,0,1.1,0.55,0.55,2.75,10,initial,36.05,321,361,400,0,0,9,9,9,0,0,,,,,,,3,0,3,0,0,9,9,0,,,,,,,,,,,,,,3,0.4798886999778915,3,0.3,0.49999999999999994,18.02146,return,1.691892500006361,,,,,,,,,,,,,,,,,p321,22,female,up_down_width,2025-12-19_10h59.19.362,exp1,2023.1.0,60.01662460234598,
,,,,,,,,,,,,,,,,5,8.6,9.3,10,10.7,11.4,0.7,0.29999999999999993,0.4,3.1999999999999997,10,initial,36.05,310,335,361,386,411,9,9,9,9,9,,,,,,,3,0,3,0,0,10,10,44,,,,,,,,,,,,,,5,0.7473088999977335,5,0.35,0.35,12.61502,return,0.5882432000071276,,,,,,,,,,,,,,,,,p321,22,female,up_down_width,2025-12-19_10h59.19.362,exp1,2023.1.0,60.01662460234598,
,,,,,,,,,,,,,,,,3,8.6,10,11.4,0,0,1.4,0.85,0.55,3.35,10,match,36.05,310,361,411,0,0,9,9,9,0,0,,,,,,,3,0,3,0,0,11,11,41,,,,,,,,,,,,,,3,0.46961719999671914,3,0.35,0.44999999999999996,16.21932,return,2.3847721999918576,,,,,,,,,,,,,,,,,p321,22,female,up_down_width,2025-12-19_10h59.19.362,exp1,2023.1.0,60.01662460234598,
,,,,,,,,,,,,,,,,4,9.3,9.766666666666667,10.233333333333333,10.7,0,0.4666666666666667,0.06666666666666665,0.4,1.8,10,match,36.05,335,352,369,386,0,9,9,9,9,0,,,,,,,3,0,3,0,0,12,12,10,,,,,,,,,,,,,,3,0.6242107000143733,3,0.3,0.44999999999999996,16.21932,return,1.1891497000178788,,,,,,,,,,,,,,,,,p321,22,female,up_down_width,2025-12-19_10h59.19.362,exp1,2023.1.0,60.01662460234598,
,,,,,,,,,,,,,,,,3,7.8,10,12.2,0,0,2.2,1.9500000000000002,0.25,4.65,10,match,36.05,281,361,440,0,0,9,9,9,0,0,,,,,,,3,0,3,0,0,13,13,37,,,,,,,,,,,,,,3,0.4390320999955293,3,0.2,0.2,7.20859,return,0.6122688000032213,,,,,,,,,,,,,,,,,p321,22,female,up_down_width,2025-12-19_10h59.19.362,exp1,2023.1.0,60.01662460234598,
,,,,,,,,,,,,,,,,4,8.95,9.65,10.35,11.05,0,0.7,0.44999999999999996,0.25,2.3499999999999996,10,initial,36.05,323,348,373,398,0,9,9,9,9,0,,,,,,,3,0,3,0,0,14,14,24,,,,,,,,,,,,,,4,0.9633904999936931,4,0.5,0.30000000000000004,10.81288,return,2.8746956999821123,,,,,,,,,,,,,,,,,p321,22,female,up_down_width,2025-12-19_10h59.19.362,exp1,2023.1.0,60.01662460234598,
,,,,,,,,,,,,,,,,4,9.1,9.7,10.3,10.9,0,0.6,0.04999999999999997,0.55,2.35,10,match,36.05,328,350,371,393,0,9,9,9,9,0,,,,,,,3,0,3,0,0,15,15,12,,,,,,,,,,,,,,3,0.4901366000121925,3,0.55,0.55,19.82361,return,0.7080617999890819,,,,,,,,,,,,,,,,,p321,22,female,up_down_width,2025-12-19_10h59.19.362,exp1,2023.1.0,60.01662460234598,
,,,,,,,,,,,,,,,,3,8.9,10,11.1,0,0,1.1,0.8500000000000001,0.25,2.45,10,initial,36.05,321,361,400,0,0,9,9,9,0,0,,,,,,,3,0,3,0,0,16,16,2,,,,,,,,,,,,,,3,0.46264509999309666,3,0.2,0.2,7.20859,return,0.6352783999755047,,,,,,,,,,,,,,,,,p321,22,female,up_down_width,2025-12-19_10h59.19.362,exp1,2023.1.0,60.01662460234598,
,,,,,,,,,,,,,,,,4,8.35,9.45,10.55,11.65,0,1.1,0.7000000000000001,0.4,3.7,10,initial,36.05,301,341,380,420,0,9,9,9,9,0,,,,,,,3,0,3,0,0,17,17,21,,,,,,,,,,,,,,4,0.533310500002699,4,0.2,0.39999999999999997,14.41717,return,1.9675630000128876,,,,,,,,,,,,,,,,,p321,22,female,up_down_width,2025-12-19_10h59.19.362,exp1,2023.1.0,60.01662460234598,
,,,,,,,,,,,,,,,,5,8.6,9.3,10,10.7,11.4,0.7,0.44999999999999996,0.25,3.05,10,initial,36.05,310,335,361,386,411,9,9,9,9,9,,,,,,,3,0,3,0,0,18,18,42,,,,,,,,,,,,,,4,0.6070521000074223,4,0.5,0.30000000000000004,10.81288,return,1.9414656000153627,,,,,,,,,,,,,,,,,p321,22,female,up_down_width,2025-12-19_10h59.19.362,exp1,2023.1.0,60.01662460234598,
,,,,,,,,,,,,,,,,3,9.1,10,10.9,0,0,0.9,0.5,0.4,2.2,10,initial,36.05,328,361,393,0,0,9,9,9,0,0,,,,,,,3,0,3,0,0,19,19,15,,,,,,,,,,,,,,3,0.6726482999802101,3,0.55,0.55,19.82361,return,0.5488262999861035,,,,,,,,,,,,,,,,,p321,22,female,up_down_width,2025-12-19_10h59.19.362,exp1,2023.1.0,60.01662460234598,
,,,,,,,,,,,,,,,,5,8.65,9.325,10,10.675,11.35,0.675,0.275,0.4,3.1,10,match,36.05,312,336,361,385,409,9,9,9,9,9,,,,,,,3,0,3,0,0,20,20,33,,,,,,,,,,,,,,3,1.014161700004479,3,0.45,0.4,14.41717,return,0.9085765999916475,,,,,,,,,,,,,,,,,p321,22,female,up_down_width,2025-12-19_10h59.19.362,exp1,2023.1.0,60.01662460234598,
,,,,,,,,,,,,,,,,5,8.35,9.175,10,10.825,11.65,0.8250000000000001,0.275,0.55,3.85,10,match,36.05,301,331,361,390,420,9,9,9,9,9,,,,,,,3,0,3,0,0,21,21,18,,,,,,,,,,,,,,5,1.5051254999998491,5,0.45,0.45,16.21932,return,0.6921185000101104,,,,,,,,,,,,,,,,,p321,22,female,up_down_width,2025-12-19_10h59.19.362,exp1,2023.1.0,60.01662460234598,
,,,,,,,,,,,,,,,,4,8.65,9.55,10.45,11.35,0,0.9,0.35,0.55,3.25,10,initial,36.05,312,344,377,409,0,9,9,9,9,0,,,,,,,3,0,3,0,0,22,22,28,,,,,,,,,,,,,,4,0.6726892000006046,4,0.55,0.55,19.82361,return,0.5641785000043456,,,,,,,,,,,,,,,,,p321,22,female,up_down_width,2025-12-19_10h59.19.362,exp1,2023.1.0,60.01662460234598,
,,,,,,,,,,,,,,,,3,8.9,10,11.1,0,0,1.1,0.7000000000000001,0.4,2.6000000000000005,10,initial,36.05,321,361,400,0,0,9,9,9,0,0,,,,,,,3,0,3,0,0,23,23,4,,,,,,,,,,,,,,3,0.6082231000182219,3,0.55,0.55,19.82361,return,0.4856146000092849,,,,,,,,,,,,,,,,,p321,22,female,up_down_width,2025-12-19_10h59.19.362,exp1,2023.1.0,60.01662460234598,
,,,,,,,,,,,,,,,,4,8.9,9.633333333333333,10.366666666666667,11.1,0,0.7333333333333334,0.4833333333333334,0.25,2.45,10,match,36.05,321,347,374,400,0,9,9,9,9,0,,,,,,,3,0,3,0,0,24,24,3,,,,,,,,,,,,,,4,0.5663023999950383,4,0.5,0.35000000000000003,12.61502,return,1.5659722999844234,,,,,,,,,,,,,,,,,p321,22,female,up_down_width,2025-12-19_10h59.19.362,exp1,2023.1.0,60.01662460234598,
,,,,,,,,,,,,,,,,4,8.825,9.608333333333333,10.391666666666667,11.175,0,0.7833333333333333,0.5333333333333333,0.25,2.6,10,match,36.05,318,346,375,403,0,9,9,9,9,0,,,,,,,3,0,3,0,0,25,25,5,,,,,,,,,,,,,,4,0.5672598999808542,4,0.2,0.2,7.20859,return,0.5748038000019733,,,,,,,,,,,,,,,,,p321,22,female,up_down_width,2025-12-19_10h59.19.362,exp1,2023.1.0,60.01662460234598,
,,,,,,,,,,,,,,,,5,8.6,9.3,10,10.7,11.4,0.7,0.1499999999999999,0.55,3.3499999999999996,10,initial,36.05,310,335,361,386,411,9,9,9,9,9,,,,,,,3,0,3,0,0,26,26,40,,,,,,,,,,,,,,4,0.5614548000157811,4,0.2,0.2,7.20859,return,0.3448136000079103,,,,,,,,,,,,,,,,,p321,22,female,up_down_width,2025-12-19_10h59.19.362,exp1,2023.1.0,60.01662460234598,
,,,,,,,,,,,,,,,,4,9.1,9.7,10.3,10.9,0,0.6000000000000001,0.20000000000000004,0.4,2.2,10,match,36.05,328,350,371,393,0,9,9,9,9,0,,,,,,,3,0,3,0,0,27,27,16,,,,,,,,,,,,,,3,0.7227913999813609,3,0.55,0.55,19.82361,return,0.5495248999795876,,,,,,,,,,,,,,,,,p321,22,female,up_down_width,2025-12-19_10h59.19.362,exp1,2023.1.0,60.01662460234598,
,,,,,,,,,,,,,,,,3,9.1,10,10.9,0,0,0.9,0.65,0.25,2.05,10,initial,36.05,328,361,393,0,0,9,9,9,0,0,,,,,,,3,0,3,0,0,28,28,13,,,,,,,,,,,,,,3,0.4966216000029817,3,0.35,0.2,7.20859,return,1.435140199988382,,,,,,,,,,,,,,,,,p321,22,female,up_down_width,2025-12-19_10h59.19.362,exp1,2023.1.0,60.01662460234598,
,,,,,,,,,,,,,,,,4,8.65,9.55,10.45,11.35,0,0.9,0.5,0.4,3.1,10,initial,36.05,312,344,377,409,0,9,9,9,9,0,,,,,,,3,0,3,0,0,29,29,32,,,,,,,,,,,,,,4,0.5492316000163555,4,0.4,0.4,14.41717,return,0.4459025000105612,,,,,,,,,,,,,,,,,p321,22,female,up_down_width,2025-12-19_10h59.19.362,exp1,2023.1.0,60.01662460234598,
,,,,,,,,,,,,,,,,3,9.3,10,10.7,0,0,0.7,0.29999999999999993,0.4,1.8,10,initial,36.05,335,361,386,0,0,9,9,9,0,0,,,,,,,3,0,3,0,0,30,30,9,,,,,,,,,,,,,,3,0.5119970999949146,3,0.55,0.45,16.21932,return,1.3381080999970436,,,,,,,,,,,,,,,,,p321,22,female,up_down_width,2025-12-19_10h59.19.362,exp1,2023.1.0,60.01662460234598,
,,,,,,,,,,,,,,,,3,9.1,10,10.9,0,0,0.9,0.35,0.55,2.35,10,initial,36.05,328,361,393,0,0,9,9,9,0,0,,,,,,,3,0,3,0,0,31,31,11,,,,,,,,,,,,,,3,0.6892838999920059,3,0.4,0.55,19.82361,return,1.3658823000150733,,,,,,,,,,,,,,,,,p321,22,female,up_down_width,2025-12-19_10h59.19.362,exp1,2023.1.0,60.01662460234598,
,,,,,,,,,,,,,,,,4,8.65,9.55,10.45,11.35,0,0.9,0.65,0.25,2.95,10,initial,36.05,312,344,377,409,0,9,9,9,9,0,,,,,,,3,0,3,0,0,32,32,30,,,,,,,,,,,,,,4,0.8658706999849528,4,0.35,0.2,7.20859,return,1.3257827000052202,,,,,,,,,,,,,,,,,p321,22,female,up_down_width,2025-12-19_10h59.19.362,exp1,2023.1.0,60.01662460234598,
,,,,,,,,,,,,,,,,3,8.525,10,11.475,0,0,1.475,1.225,0.25,3.2,10,match,36.05,307,361,414,0,0,9,9,9,0,0,,,,,,,3,0,3,0,0,33,33,45,,,,,,,,,,,,,,3,0.5380001000012271,3,0.35,0.15000000000000002,5.40644,return,1.5879561000037938,,,,,,,,,,,,,,,,,p321,22,female,up_down_width,2025-12-19_10h59.19.362,exp1,2023.1.0,60.01662460234598,
,,,,,,,,,,,,,,,,3,8.2,10,11.8,0,0,1.8,1.55,0.25,3.85,10,match,36.05,296,361,425,0,0,9,9,9,0,0,,,,,,,3,0,3,0,0,34,34,49,,,,,,,,,,,,,,3,0.5029256000125315,3,0.55,0.20000000000000007,7.20859,return,2.0012096000136808,,,,,,,,,,,,,,,,,p321,22,female,up_down_width,2025-12-19_10h59.19.362,exp1,2023.1.0,60.01662460234598,
,,,,,,,,,,,,,,,,3,9.3,10,10.7,0,0,0.7,0.1499999999999999,0.55,1.95,10,initial,36.05,335,361,386,0,0,9,9,9,0,0,,,,,,,3,0,3,0,0,35,35,6,,,,,,,,,,,,,,3,0.5010642999841366,3,0.45,0.6000000000000001,21.62576,return,1.759190699987812,,,,,,,,,,,,,,,,,p321,22,female,up_down_width,2025-12-19_10h59.19.362,exp1,2023.1.0,60.01662460234598,
,,,,,,,,,,,,,,,,5,8.65,9.325,10,10.675,11.35,0.675,0.42500000000000004,0.25,2.95,10,match,36.05,312,336,361,385,409,9,9,9,9,9,,,,,,,3,0,3,0,0,36,36,31,,,,,,,,,,,,,,4,0.7683104999887291,4,0.2,0.2,7.20859,return,0.9274391000217292,,,,,,,,,,,,,,,,,p321,22,female,up_down_width,2025-12-19_10h59.19.362,exp1,2023.1.0,60.01662460234598,
,,,,,,,,,,,,,,,,4,9.1,9.7,10.3,10.9,0,0.5999999999999999,0.3499999999999999,0.25,2.05,10,match,36.05,328,350,371,393,0,9,9,9,9,0,,,,,,,3,0,3,0,0,37,37,14,,,,,,,,,,,,,,4,0.7275587000185624,4,0.5,0.25000000000000006,9.01073,return,2.345528700010618,,,,,,,,,,,,,,,,,p321,22,female,up_down_width,2025-12-19_10h59.19.362,exp1,2023.1.0,60.01662460234598,
,,,,,,,,,,,,,,,,3,8.2,10,11.8,0,0,1.7999999999999998,1.4,0.4,4,10,match,36.05,296,361,425,0,0,9,9,9,0,0,,,,,,,3,0,3,0,0,38,38,51,,,,,,,,,,,,,,3,0.4527898000087589,3,0.4,0.4,14.41717,return,0.9300460999947973,,,,,,,,,,,,,,,,,p321,22,female,up_down_width,2025-12-19_10h59.19.362,exp1,2023.1.0,60.01662460234598,
,,,,,,,,,,,,,,,,4,8.35,9.45,10.55,11.65,0,1.1,0.8500000000000001,0.25,3.5500000000000003,10,initial,36.05,301,341,380,420,0,9,9,9,9,0,,,,,,,3,0,3,0,0,39,39,19,,,,,,,,,,,,,,4,0.7991629000171088,4,0.5,0.30000000000000004,10.81288,return,1.308833900024183,,,,,,,,,,,,,,,,,p321,22,female,up_down_width,2025-12-19_10h59.19.362,exp1,2023.1.0,60.01662460234598,
,,,,,,,,,,,,,,,,4,8.95,9.65,10.35,11.05,0,0.7,0.29999999999999993,0.4,2.5,10,initial,36.05,323,348,373,398,0,9,9,9,9,0,,,,,,,3,0,3,0,0,40,40,26,,,,,,,,,,,,,,4,0.9016216999734752,4,0.25,0.44999999999999996,16.21932,return,2.240816300007282,,,,,,,,,,,,,,,,,p321,22,female,up_down_width,2025-12-19_10h59.19.362,exp1,2023.1.0,60.01662460234598,
,,,,,,,,,,,,,,,,4,8.9,9.633333333333333,10.366666666666667,11.1,0,0.7333333333333333,0.18333333333333326,0.55,2.75,10,match,36.05,321,347,374,400,0,9,9,9,9,0,,,,,,,3,0,3,0,0,41,41,1,,,,,,,,,,,,,,4,0.5194727999914903,4,0.4,0.5,18.02146,return,1.2022717999934684,,,,,,,,,,,,,,,,,p321,22,female,up_down_width,2025-12-19_10h59.19.362,exp1,2023.1.0,60.01662460234598,
,,,,,,,,,,,,,,,,4,8.95,9.65,10.35,11.05,0,0.7,0.1499999999999999,0.55,2.65,10,initial,36.05,323,348,373,398,0,9,9,9,9,0,,,,,,,3,0,3,0,0,42,42,23,,,,,,,,,,,,,,4,0.6453187000006437,4,0.35,0.35,12.61502,return,0.29849089999333955,,,,,,,,,,,,,,,,,p321,22,female,up_down_width,2025-12-19_10h59.19.362,exp1,2023.1.0,60.01662460234598,
,,,,,,,,,,,,,,,,5,7.8,8.9,10,11.1,12.2,1.1,0.7000000000000001,0.4,4.800000000000001,10,initial,36.05,281,321,361,400,440,9,9,9,9,9,,,,,,,3,0,3,0,0,43,43,38,,,,,,,,,,,,,,5,1.1601666000206023,5,0.25,0.39999999999999997,14.41717,return,1.7034370000183117,,,,,,,,,,,,,,,,,p321,22,female,up_down_width,2025-12-19_10h59.19.362,exp1,2023.1.0,60.01662460234598,
,,,,,,,,,,,,,,,,5,8.2,9.1,10,10.9,11.8,0.9,0.35,0.55,4.15,10,initial,36.05,296,328,361,393,425,9,9,9,9,9,,,,,,,3,0,3,0,0,44,44,46,,,,,,,,,,,,,,5,0.541487300011795,5,0.5,0.5,18.02146,return,0.7748970999964513,,,,,,,,,,,,,,,,,p321,22,female,up_down_width,2025-12-19_10h59.19.362,exp1,2023.1.0,60.01662460234598,
,,,,,,,,,,,,,,,,5,7.8,8.9,10,11.1,12.2,1.1,0.55,0.55,4.95,10,initial,36.05,281,321,361,400,440,9,9,9,9,9,,,,,,,3,0,3,0,0,45,45,34,,,,,,,,,,,,,,6,1.2258875999832526,6,0.2,0.2,7.20859,return,0.3448766999936197,,,,,,,,,,,,,,,,,p321,22,female,up_down_width,2025-12-19_10h59.19.362,exp1,2023.1.0,60.01662460234598,
,,,,,,,,,,,,,,,,4,8.35,9.45,10.55,11.65,0,1.1,0.55,0.55,3.8500000000000005,10,initial,36.05,301,341,380,420,0,9,9,9,9,0,,,,,,,3,0,3,0,0,46,46,17,,,,,,,,,,,,,,4,1.6433843999984674,4,0.35,0.35,12.61502,return,0.6652888999960851,,,,,,,,,,,,,,,,,p321,22,female,up_down_width,2025-12-19_10h59.19.362,exp1,2023.1.0,60.01662460234598,
,,,,,,,,,,,,,,,,4,9.3,9.766666666666667,10.233333333333333,10.7,0,0.4666666666666667,0.21666666666666665,0.25,1.65,10,match,36.05,335,352,369,386,0,9,9,9,9,0,,,,,,,3,0,3,0,0,47,47,8,,,,,,,,,,,,,,4,0.8174540999752935,4,0.2,0.3,10.81288,return,1.4227143000171054,,,,,,,,,,,,,,,,,p321,22,female,up_down_width,2025-12-19_10h59.19.362,exp1,2023.1.0,60.01662460234598,
,,,,,,,,,,,,,,,,3,8.6,10,11.4,0,0,1.4,1.15,0.25,3.05,10,match,36.05,310,361,411,0,0,9,9,9,0,0,,,,,,,3,0,3,0,0,48,48,43,,,,,,,,,,,,,,3,0.4774740999855567,3,0.4,0.20000000000000007,7.20859,return,1.6742693000123836,,,,,,,,,,,,,,,,,p321,22,female,up_down_width,2025-12-19_10h59.19.362,exp1,2023.1.0,60.01662460234598,
,,,,,,,,,,,,,,,,3,7.800000000000001,10,12.2,0,0,2.1999999999999997,1.7999999999999998,0.4,4.8,10,match,36.05,281,361,440,0,0,9,9,9,0,0,,,,,,,3,0,3,0,0,49,49,39,,,,,,,,,,,,,,3,0.4795418999856338,3,0.3,0.44999999999999996,16.21932,return,1.1321867000078782,,,,,,,,,,,,,,,,,p321,22,female,up_down_width,2025-12-19_10h59.19.362,exp1,2023.1.0,60.01662460234598,
,,,,,,,,,,,,,,,,5,8.2,9.1,10,10.9,11.8,0.9,0.65,0.25,3.85,10,initial,36.05,296,328,361,393,425,9,9,9,9,9,,,,,,,3,0,3,0,0,50,50,48,,,,,,,,,,,,,,5,1.5349282999814022,5,0.55,0.30000000000000004,10.81288,return,2.1927252000023145,,,,,,,,,,,,,,,,,p321,22,female,up_down_width,2025-12-19_10h59.19.362,exp1,2023.1.0,60.01662460234598,
,,,,,,,,,,,,,,,,3,7.8,10,12.2,0,0,2.2,1.65,0.55,4.95,10,match,36.05,281,361,440,0,0,9,9,9,0,0,,,,,,,3,0,3,0,0,51,51,35,,,,,,,,,,,,,,3,0.47023030000855215,3,0.35,0.6,21.62576,return,1.4260422999795992,,,,,,,,,,,,,,,,,p321,22,female,up_down_width,2025-12-19_10h59.19.362,exp1,2023.1.0,60.01662460234598,
,,,,,,,,,,,,,,,,,,,,,,,,,,,,,,,,,,,,,,,,,,,,,3,0,3,0,,,,,,,,,,,,,,,,,,,,,,,,,,,,9822.622882399999,9822.622882399999,9822.622882399999,,,,,,,,,,,,p321,22,female,up_down_width,2025-12-19_10h59.19.362,exp1,2023.1.0,60.01662460234598,
,,,,,,,,,,,,,,,,5,8.2,9.1,10,10.9,11.8,0.9,0.35,0.55,4.15,10,initial,36.05,296,328,361,393,425,9,9,9,9,9,,,,,,,4,0,4,0,0,0,0,46,,,,,,,,,,,,,,4,0.9683198999846354,4,0.55,0.55,19.82361,return,0.5293736000021454,,,,,,,,,,,,,,,,,p321,22,female,up_down_width,2025-12-19_10h59.19.362,exp1,2023.1.0,60.01662460234598,
,,,,,,,,,,,,,,,,4,8.95,9.65,10.35,11.05,0,0.7,0.29999999999999993,0.4,2.5,10,initial,36.05,323,348,373,398,0,9,9,9,9,0,,,,,,,4,0,4,0,0,1,1,26,,,,,,,,,,,,,,3,0.6069189000118058,3,0.5,0.5,18.02146,return,0.5808089999773074,,,,,,,,,,,,,,,,,p321,22,female,up_down_width,2025-12-19_10h59.19.362,exp1,2023.1.0,60.01662460234598,
,,,,,,,,,,,,,,,,4,8.95,9.65,10.35,11.05,0,0.7,0.1499999999999999,0.55,2.65,10,initial,36.05,323,348,373,398,0,9,9,9,9,0,,,,,,,4,0,4,0,0,2,2,23,,,,,,,,,,,,,,3,0.7275181000004523,3,0.4,0.5,18.02146,return,1.4341822999995202,,,,,,,,,,,,,,,,,p321,22,female,up_down_width,2025-12-19_10h59.19.362,exp1,2023.1.0,60.01662460234598,
,,,,,,,,,,,,,,,,4,8.35,9.45,10.55,11.65,0,1.1,0.55,0.55,3.8500000000000005,10,initial,36.05,301,341,380,420,0,9,9,9,9,0,,,,,,,4,0,4,0,0,3,3,17,,,,,,,,,,,,,,4,0.530758800014155,4,0.5,0.6000000000000001,21.62576,return,1.020768999995198,,,,,,,,,,,,,,,,,p321,22,female,up_down_width,2025-12-19_10h59.19.362,exp1,2023.1.0,60.01662460234598,
,,,,,,,,,,,,,,,,5,7.8,8.9,10,11.1,12.2,1.1,0.8500000000000001,0.25,4.65,10,initial,36.05,281,321,361,400,440,9,9,9,9,9,,,,,,,4,0,4,0,0,4,4,36,,,,,,,,,,,,,,6,1.4990198999876156,6,0.5,0.25000000000000006,9.01073,return,1.7745203000085894,,,,,,,,,,,,,,,,,p321,22,female,up_down_width,2025-12-19_10h59.19.362,exp1,2023.1.0,60.01662460234598,
,,,,,,,,,,,,,,,,3,7.8,10,12.2,0,0,2.2,1.9500000000000002,0.25,4.65,10,match,36.05,281,361,440,0,0,9,9,9,0,0,,,,,,,4,0,4,0,0,5,5,37,,,,,,,,,,,,,,3,0.46537849999731407,3,0.55,0.30000000000000004,10.81288,return,1.4852288999827579,,,,,,,,,,,,,,,,,p321,22,female,up_down_width,2025-12-19_10h59.19.362,exp1,2023.1.0,60.01662460234598,
,,,,,,,,,,,,,,,,5,8.65,9.325,10,10.675,11.35,0.675,0.125,0.55,3.25,10,match,36.05,312,336,361,385,409,9,9,9,9,9,,,,,,,4,0,4,0,0,6,6,29,,,,,,,,,,,,,,4,1.0028701999981422,4,0.45,0.6000000000000001,21.62576,return,1.1368381999782287,,,,,,,,,,,,,,,,,p321,22,female,up_down_width,2025-12-19_10h59.19.362,exp1,2023.1.0,60.01662460234598,
,,,,,,,,,,,,,,,,5,8.65,9.325,10,10.675,11.35,0.675,0.42500000000000004,0.25,2.95,10,match,36.05,312,336,361,385,409,9,9,9,9,9,,,,,,,4,0,4,0,0,7,7,31,,,,,,,,,,,,,,5,1.173558199981926,5,0.25,0.25,9.01073,return,0.5969816999859177,,,,,,,,,,,,,,,,,p321,22,female,up_down_width,2025-12-19_10h59.19.362,exp1,2023.1.0,60.01662460234598,
,,,,,,,,,,,,,,,,3,8.6,10,11.4,0,0,1.4,0.85,0.55,3.35,10,match,36.05,310,361,411,0,0,9,9,9,0,0,,,,,,,4,0,4,0,0,8,8,41,,,,,,,,,,,,,,3,0.48604499999783,3,0.25,0.49999999999999994,18.02146,return,2.017581299995072,,,,,,,,,,,,,,,,,p321,22,female,up_down_width,2025-12-19_10h59.19.362,exp1,2023.1.0,60.01662460234598,
,,,,,,,,,,,,,,,,3,9.3,10,10.7,0,0,0.7,0.1499999999999999,0.55,1.95,10,initial,36.05,335,361,386,0,0,9,9,9,0,0,,,,,,,4,0,4,0,0,9,9,6,,,,,,,,,,,,,,3,0.5006781999836676,3,0.4,0.55,19.82361,return,1.4860610000032466,,,,,,,,,,,,,,,,,p321,22,female,up_down_width,2025-12-19_10h59.19.362,exp1,2023.1.0,60.01662460234598,
,,,,,,,,,,,,,,,,3,8.9,10,11.1,0,0,1.1,0.8500000000000001,0.25,2.45,10,initial,36.05,321,361,400,0,0,9,9,9,0,0,,,,,,,4,0,4,0,0,10,10,2,,,,,,,,,,,,,,3,0.44418550000409596,3,0.55,0.30000000000000004,10.81288,return,1.5939297000004444,,,,,,,,,,,,,,,,,p321,22,female,up_down_width,2025-12-19_10h59.19.362,exp1,2023.1.0,60.01662460234598,
,,,,,,,,,,,,,,,,4,8.825,9.608333333333333,10.391666666666667,11.175,0,0.7833333333333333,0.5333333333333333,0.25,2.6,10,match,36.05,318,346,375,403,0,9,9,9,9,0,,,,,,,4,0,4,0,0,11,11,5,,,,,,,,,,,,,,4,1.1749479999998584,4,0.35,0.25,9.01073,return,1.2219637999951374,,,,,,,,,,,,,,,,,p321,22,female,up_down_width,2025-12-19_10h59.19.362,exp1,2023.1.0,60.01662460234598,
,,,,,,,,,,,,,,,,3,8.9,10,11.1,0,0,1.1,0.7000000000000001,0.4,2.6000000000000005,10,initial,36.05,321,361,400,0,0,9,9,9,0,0,,,,,,,4,0,4,0,0,12,12,4,,,,,,,,,,,,,,3,0.4568921999889426,3,0.35,0.35,12.61502,return,0.5009486000053585,,,,,,,,,,,,,,,,,p321,22,female,up_down_width,2025-12-19_10h59.19.362,exp1,2023.1.0,60.01662460234598,
,,,,,,,,,,,,,,,,5,8.2,9.1,10,10.9,11.8,0.9,0.5,0.4,4,10,initial,36.05,296,328,361,393,425,9,9,9,9,9,,,,,,,4,0,4,0,0,13,13,50,,,,,,,,,,,,,,6,0.970822400006,6,0.4,0.4,14.41717,return,0.8031251000065822,,,,,,,,,,,,,,,,,p321,22,female,up_down_width,2025-12-19_10h59.19.362,exp1,2023.1.0,60.01662460234598,
,,,,,,,,,,,,,,,,3,7.8,10,12.2,0,0,2.2,1.65,0.55,4.95,10,match,36.05,281,361,440,0,0,9,9,9,0,0,,,,,,,4,0,4,0,0,14,14,35,,,,,,,,,,,,,,3,0.4894009999989066,3,0.55,0.55,19.82361,return,0.2921193999936804,,,,,,,,,,,,,,,,,p321,22,female,up_down_width,2025-12-19_10h59.19.362,exp1,2023.1.0,60.01662460234598,
,,,,,,,,,,,,,,,,3,8.2,10,11.8,0,0,1.7999999999999998,1.4,0.4,4,10,match,36.05,296,361,425,0,0,9,9,9,0,0,,,,,,,4,0,4,0,0,15,15,51,,,,,,,,,,,,,,3,0.7262619000102859,3,0.5,0.5,18.02146,return,0.42482589997234754,,,,,,,,,,,,,,,,,p321,22,female,up_down_width,2025-12-19_10h59.19.362,exp1,2023.1.0,60.01662460234598,
,,,,,,,,,,,,,,,,5,8.35,9.175,10,10.825,11.65,0.825,0.575,0.25,3.55,10,match,36.05,301,331,361,390,420,9,9,9,9,9,,,,,,,4,0,4,0,0,16,16,20,,,,,,,,,,,,,,5,0.8239596999774221,5,0.3,0.3,10.81288,return,0.5984402000030968,,,,,,,,,,,,,,,,,p321,22,female,up_down_width,2025-12-19_10h59.19.362,exp1,2023.1.0,60.01662460234598,
,,,,,,,,,,,,,,,,5,8.6,9.3,10,10.7,11.4,0.7,0.29999999999999993,0.4,3.1999999999999997,10,initial,36.05,310,335,361,386,411,9,9,9,9,9,,,,,,,4,0,4,0,0,17,17,44,,,,,,,,,,,,,,5,0.8496071000117809,5,0.3,0.44999999999999996,16.21932,return,3.2947584000066854,,,,,,,,,,,,,,,,,p321,22,female,up_down_width,2025-12-19_10h59.19.362,exp1,2023.1.0,60.01662460234598,
,,,,,,,,,,,,,,,,4,8.35,9.45,10.55,11.65,0,1.1,0.7000000000000001,0.4,3.7,10,initial,36.05,301,341,380,420,0,9,9,9,9,0,,,,,,,4,0,4,0,0,18,18,21,,,,,,,,,,,,,,4,0.8677723000000697,4,0.3,0.39999999999999997,14.41717,return,1.2792791000101715,,,,,,,,,,,,,,,,,p321,22,female,up_down_width,2025-12-19_10h59.19.362,exp1,2023.1.0,60.01662460234598,
,,,,,,,,,,,,,,,,4,9.3,9.766666666666667,10.233333333333333,10.7,0,0.4666666666666667,0.06666666666666665,0.4,1.8,10,match,36.05,335,352,369,386,0,9,9,9,9,0,,,,,,,4,0,4,0,0,19,19,10,,,,,,,,,,,,,,3,0.9068453999934718,3,0.3,0.44999999999999996,16.21932,return,1.0441871999937575,,,,,,,,,,,,,,,,,p321,22,female,up_down_width,2025-12-19_10h59.19.362,exp1,2023.1.0,60.01662460234598,
,,,,,,,,,,,,,,,,5,8.65,9.325,10,10.675,11.35,0.675,0.275,0.4,3.1,10,match,36.05,312,336,361,385,409,9,9,9,9,9,,,,,,,4,0,4,0,0,20,20,33,,,,,,,,,,,,,,4,1.0108534000173677,4,0.3,0.39999999999999997,14.41717,return,1.1135752999980468,,,,,,,,,,,,,,,,,p321,22,female,up_down_width,2025-12-19_10h59.19.362,exp1,2023.1.0,60.01662460234598,
,,,,,,,,,,,,,,,,5,8.6,9.3,10,10.7,11.4,0.7,0.44999999999999996,0.25,3.05,10,initial,36.05,310,335,361,386,411,9,9,9,9,9,,,,,,,4,0,4,0,0,21,21,42,,,,,,,,,,,,,,5,0.9978902000002563,5,0.3,0.25,9.01073,return,0.812098300026264,,,,,,,,,,,,,,,,,p321,22,female,up_down_width,2025-12-19_10h59.19.362,exp1,2023.1.0,60.01662460234598,
,,,,,,,,,,,,,,,,4,8.9,9.633333333333333,10.366666666666667,11.1,0,0.7333333333333333,0.18333333333333326,0.55,2.75,10,match,36.05,321,347,374,400,0,9,9,9,9,0,,,,,,,4,0,4,0,0,22,22,1,,,,,,,,,,,,,,4,0.7656700000225101,4,0.35,0.44999999999999996,16.21932,return,1.0221781999862287,,,,,,,,,,,,,,,,,p321,22,female,up_down_width,2025-12-19_10h59.19.362,exp1,2023.1.0,60.01662460234598,
,,,,,,,,,,,,,,,,3,9.1,10,10.9,0,0,0.9,0.65,0.25,2.05,10,initial,36.05,328,361,393,0,0,9,9,9,0,0,,,,,,,4,0,4,0,0,23,23,13,,,,,,,,,,,,,,3,0.4694978999905288,3,0.25,0.25,9.01073,return,0.6585352000256535,,,,,,,,,,,,,,,,,p321,22,female,up_down_width,2025-12-19_10h59.19.362,exp1,2023.1.0,60.01662460234598,
,,,,,,,,,,,,,,,,3,8.525,10,11.475,0,0,1.475,1.225,0.25,3.2,10,match,36.05,307,361,414,0,0,9,9,9,0,0,,,,,,,4,0,4,0,0,24,24,45,,,,,,,,,,,,,,3,0.46543800001381896,3,0.35,0.2,7.20859,return,1.4060959999915212,,,,,,,,,,,,,,,,,p321,22,female,up_down_width,2025-12-19_10h59.19.362,exp1,2023.1.0,60.01662460234598,
,,,,,,,,,,,,,,,,5,8.95,9.475,10,10.525,11.05,0.525,0.125,0.4,2.5,10,match,36.05,323,342,361,379,398,9,9,9,9,9,,,,,,,4,0,4,0,0,25,25,27,,,,,,,,,,,,,,5,0.8601294000109192,5,0.45,0.45,16.21932,return,0.7127342999738175,,,,,,,,,,,,,,,,,p321,22,female,up_down_width,2025-12-19_10h59.19.362,exp1,2023.1.0,60.01662460234598,
,,,,,,,,,,,,,,,,3,7.800000000000001,10,12.2,0,0,2.1999999999999997,1.7999999999999998,0.4,4.8,10,match,36.05,281,361,440,0,0,9,9,9,0,0,,,,,,,4,0,4,0,0,26,26,39,,,,,,,,,,,,,,3,0.4962893000047188,3,0.2,0.35,12.61502,return,1.6106217999767978,,,,,,,,,,,,,,,,,p321,22,female,up_down_width,2025-12-19_10h59.19.362,exp1,2023.1.0,60.01662460234598,
,,,,,,,,,,,,,,,,5,8.35,9.175,10,10.825,11.65,0.8250000000000001,0.275,0.55,3.85,10,match,36.05,301,331,361,390,420,9,9,9,9,9,,,,,,,4,0,4,0,0,27,27,18,,,,,,,,,,,,,,5,0.6601441999955568,5,0.3,0.44999999999999996,16.21932,return,1.5594097999855876,,,,,,,,,,,,,,,,,p321,22,female,up_down_width,2025-12-19_10h59.19.362,exp1,2023.1.0,60.01662460234598,
,,,,,,,,,,,,,,,,4,8.35,9.45,10.55,11.65,0,1.1,0.8500000000000001,0.25,3.5500000000000003,10,initial,36.05,301,341,380,420,0,9,9,9,9,0,,,,,,,4,0,4,0,0,28,28,19,,,,,,,,,,,,,,4,1.0729809000040404,4,0.45,0.30000000000000004,10.81288,return,1.397197899990715,,,,,,,,,,,,,,,,,p321,22,female,up_down_width,2025-12-19_10h59.19.362,exp1,2023.1.0,60.01662460234598,
,,,,,,,,,,,,,,,,3,9.3,10,10.7,0,0,0.7,0.29999999999999993,0.4,1.8,10,initial,36.05,335,361,386,0,0,9,9,9,0,0,,,,,,,4,0,4,0,0,29,29,9,,,,,,,,,,,,,,3,0.5735149999964051,3,0.25,0.35,12.61502,return,0.9019816999789327,,,,,,,,,,,,,,,,,p321,22,female,up_down_width,2025-12-19_10h59.19.362,exp1,2023.1.0,60.01662460234598,
,,,,,,,,,,,,,,,,5,8.275,9.1375,10,10.8625,11.725,0.8625,0.6125,0.25,3.7,10,match,36.05,298,329,361,392,423,9,9,9,9,9,,,,,,,4,0,4,0,0,30,30,22,,,,,,,,,,,,,,5,1.2094097000081092,5,0.5,0.30000000000000004,10.81288,return,1.7348755999992136,,,,,,,,,,,,,,,,,p321,22,female,up_down_width,2025-12-19_10h59.19.362,exp1,2023.1.0,60.01662460234598,
,,,,,,,,,,,,,,,,4,8.65,9.55,10.45,11.35,0,0.9,0.5,0.4,3.1,10,initial,36.05,312,344,377,409,0,9,9,9,9,0,,,,,,,4,0,4,0,0,31,31,32,,,,,,,,,,,,,,4,0.8441643000114709,4,0.3,0.35,12.61502,return,0.872082700021565,,,,,,,,,,,,,,,,,p321,22,female,up_down_width,2025-12-19_10h59.19.362,exp1,2023.1.0,60.01662460234598,
,,,,,,,,,,,,,,,,4,8.65,9.55,10.45,11.35,0,0.9,0.65,0.25,2.95,10,initial,36.05,312,344,377,409,0,9,9,9,9,0,,,,,,,4,0,4,0,0,32,32,30,,,,,,,,,,,,,,4,0.8675038999936078,4,0.2,0.2,7.20859,return,0.5905919999931939,,,,,,,,,,,,,,,,,p321,22,female,up_down_width,2025-12-19_10h59.19.362,exp1,2023.1.0,60.01662460234598,
,,,,,,,,,,,,,,,,4,9.1,9.7,10.3,10.9,0,0.5999999999999999,0.3499999999999999,0.25,2.05,10,match,36.05,328,350,371,393,0,9,9,9,9,0,,,,,,,4,0,4,0,0,33,33,14,,,,,,,,,,,,,,4,0.7921946000133175,4,0.45,0.25000000000000006,9.01073,return,1.6562613999994937,,,,,,,,,,,,,,,,,p321,22,female,up_down_width,2025-12-19_10h59.19.362,exp1,2023.1.0,60.01662460234598,
,,,,,,,,,,,,,,,,5,7.8,8.9,10,11.1,12.2,1.1,0.7000000000000001,0.4,4.800000000000001,10,initial,36.05,281,321,361,400,440,9,9,9,9,9,,,,,,,4,0,4,0,0,34,34,38,,,,,,,,,,,,,,5,0.8728631999983918,5,0.35,0.35,12.61502,return,0.5491143999970518,,,,,,,,,,,,,,,,,p321,22,female,up_down_width,2025-12-19_10h59.19.362,exp1,2023.1.0,60.01662460234598,
,,,,,,,,,,,,,,,,4,8.9,9.633333333333333,10.366666666666667,11.1,0,0.7333333333333334,0.4833333333333334,0.25,2.45,10,match,36.05,321,347,374,400,0,9,9,9,9,0,,,,,,,4,0,4,0,0,35,35,3,,,,,,,,,,,,,,4,0.7628392999758944,4,0.2,0.2,7.20859,return,0.7963734999939334,,,,,,,,,,,,,,,,,p321,22,female,up_down_width,2025-12-19_10h59.19.362,exp1,2023.1.0,60.01662460234598,
,,,,,,,,,,,,,,,,3,9.1,10,10.9,0,0,0.9,0.5,0.4,2.2,10,initial,36.05,328,361,393,0,0,9,9,9,0,0,,,,,,,4,0,4,0,0,36,36,15,,,,,,,,,,,,,,3,0.793305600003805,3,0.55,0.35000000000000003,12.61502,return,2.232986199989682,,,,,,,,,,,,,,,,,p321,22,female,up_down_width,2025-12-19_10h59.19.362,exp1,2023.1.0,60.01662460234598,
,,,,,,,,,,,,,,,,4,8.95,9.65,10.35,11.05,0,0.7,0.44999999999999996,0.25,2.3499999999999996,10,initial,36.05,323,348,373,398,0,9,9,9,9,0,,,,,,,4,0,4,0,0,37,37,24,,,,,,,,,,,,,,4,0.7177922999835573,4,0.35,0.35,12.61502,return,0.44763049998437054,,,,,,,,,,,,,,,,,p321,22,female,up_down_width,2025-12-19_10h59.19.362,exp1,2023.1.0,60.01662460234598,
,,,,,,,,,,,,,,,,4,9.1,9.7,10.3,10.9,0,0.6000000000000001,0.20000000000000004,0.4,2.2,10,match,36.05,328,350,371,393,0,9,9,9,9,0,,,,,,,4,0,4,0,0,38,38,16,,,,,,,,,,,,,,4,0.5341217000095639,4,0.35,0.35,12.61502,return,0.41602589999092743,,,,,,,,,,,,,,,,,p321,22,female,up_down_width,2025-12-19_10h59.19.362,exp1,2023.1.0,60.01662460234598,
,,,,,,,,,,,,,,,,4,9.1,9.7,10.3,10.9,0,0.6,0.04999999999999997,0.55,2.35,10,match,36.05,328,350,371,393,0,9,9,9,9,0,,,,,,,4,0,4,0,0,39,39,12,,,,,,,,,,,,,,3,0.6902063000015914,3,0.35,0.35,12.61502,return,0.37292120000347495,,,,,,,,,,,,,,,,,p321,22,female,up_down_width,2025-12-19_10h59.19.362,exp1,2023.1.0,60.01662460234598,
,,,,,,,,,,,,,,,,3,8.2,10,11.8,0,0,1.8,1.55,0.25,3.85,10,match,36.05,296,361,425,0,0,9,9,9,0,0,,,,,,,4,0,4,0,0,40,40,49,,,,,,,,,,,,,,3,0.8881927999900654,3,0.35,0.25,9.01073,return,1.2500926000066102,,,,,,,,,,,,,,,,,p321,22,female,up_down_width,2025-12-19_10h59.19.362,exp1,2023.1.0,60.01662460234598,
,,,,,,,,,,,,,,,,4,8.65,9.55,10.45,11.35,0,0.9,0.35,0.55,3.25,10,initial,36.05,312,344,377,409,0,9,9,9,9,0,,,,,,,4,0,4,0,0,41,41,28,,,,,,,,,,,,,,4,0.6177853000117466,4,0.3,0.44999999999999996,16.21932,return,1.7594133999955375,,,,,,,,,,,,,,,,,p321,22,female,up_down_width,2025-12-19_10h59.19.362,exp1,2023.1.0,60.01662460234598,
,,,,,,,,,,,,,,,,3,8.2,10,11.8,0,0,1.8,1.25,0.55,4.15,10,match,36.05,296,361,425,0,0,9,9,9,0,0,,,,,,,4,0,4,0,0,42,42,47,,,,,,,,,,,,,,3,0.5549016000004485,3,0.2,0.44999999999999996,16.21932,return,1.8601529999868944,,,,,,,,,,,,,,,,,p321,22,female,up_down_width,2025-12-19_10h59.19.362,exp1,2023.1.0,60.01662460234598,
,,,,,,,,,,,,,,,,4,9.3,9.766666666666667,10.233333333333333,10.7,0,0.4666666666666667,0.21666666666666665,0.25,1.65,10,match,36.05,335,352,369,386,0,9,9,9,9,0,,,,,,,4,0,4,0,0,43,43,8,,,,,,,,,,,,,,3,0.5925099999876693,3,0.5,0.5,18.02146,return,0.3428496999840718,,,,,,,,,,,,,,,,,p321,22,female,up_down_width,2025-12-19_10h59.19.362,exp1,2023.1.0,60.01662460234598,
,,,,,,,,,,,,,,,,3,9.3,10,10.7,0,0,0.7,0.44999999999999996,0.25,1.65,10,initial,36.05,335,361,386,0,0,9,9,9,0,0,,,,,,,4,0,4,0,0,44,44,7,,,,,,,,,,,,,,3,0.4767393000074662,3,0.5,0.30000000000000004,10.81288,return,1.4489029999822378,,,,,,,,,,,,,,,,,p321,22,female,up_down_width,2025-12-19_10h59.19.362,exp1,2023.1.0,60.01662460234598,
,,,,,,,,,,,,,,,,5,7.8,8.9,10,11.1,12.2,1.1,0.55,0.55,4.95,10,initial,36.05,281,321,361,400,440,9,9,9,9,9,,,,,,,4,0,4,0,0,45,45,34,,,,,,,,,,,,,,5,1.079537200013874,5,0.4,0.5,18.02146,return,1.467906200006837,,,,,,,,,,,,,,,,,p321,22,female,up_down_width,2025-12-19_10h59.19.362,exp1,2023.1.0,60.01662460234598,
,,,,,,,,,,,,,,,,5,8.95,9.475,10,10.525,11.05,0.525,0.275,0.25,2.35,10,match,36.05,323,342,361,379,398,9,9,9,9,9,,,,,,,4,0,4,0,0,46,46,25,,,,,,,,,,,,,,5,0.6937610999739263,5,0.4,0.30000000000000004,10.81288,return,0.8727504999842495,,,,,,,,,,,,,,,,,p321,22,female,up_down_width,2025-12-19_10h59.19.362,exp1,2023.1.0,60.01662460234598,
,,,,,,,,,,,,,,,,3,9.1,10,10.9,0,0,0.9,0.35,0.55,2.35,10,initial,36.05,328,361,393,0,0,9,9,9,0,0,,,,,,,4,0,4,0,0,47,47,11,,,,,,,,,,,,,,3,0.7266157999983989,3,0.25,0.39999999999999997,14.41717,return,1.7367302000056952,,,,,,,,,,,,,,,,,p321,22,female,up_down_width,2025-12-19_10h59.19.362,exp1,2023.1.0,60.01662460234598,
,,,,,,,,,,,,,,,,3,8.6,10,11.4,0,0,1.4,1.15,0.25,3.05,10,match,36.05,310,361,411,0,0,9,9,9,0,0,,,,,,,4,0,4,0,0,48,48,43,,,,,,,,,,,,,,3,0.4060600000084378,3,0.2,0.25,9.01073,return,1.6517992000153754,,,,,,,,,,,,,,,,,p321,22,female,up_down_width,2025-12-19_10h59.19.362,exp1,2023.1.0,60.01662460234598,
,,,,,,,,,,,,,,,,5,8.2,9.1,10,10.9,11.8,0.9,0.65,0.25,3.85,10,initial,36.05,296,328,361,393,425,9,9,9,9,9,,,,,,,4,0,4,0,0,49,49,48,,,,,,,,,,,,,,5,0.7127832999976818,5,0.25,0.25,9.01073,return,0.7636394000146538,,,,,,,,,,,,,,,,,p321,22,female,up_down_width,2025-12-19_10h59.19.362,exp1,2023.1.0,60.01662460234598,
,,,,,,,,,,,,,,,,5,8.6,9.3,10,10.7,11.4,0.7,0.1499999999999999,0.55,3.3499999999999996,10,initial,36.05,310,335,361,386,411,9,9,9,9,9,,,,,,,4,0,4,0,0,50,50,40,,,,,,,,,,,,,,5,0.6249614999978803,5,0.5,0.5,18.02146,return,0.5654423999949358,,,,,,,,,,,,,,,,,p321,22,female,up_down_width,2025-12-19_10h59.19.362,exp1,2023.1.0,60.01662460234598,
,,,,,,,,,,,,,,,,3,8.9,10,11.1,0,0,1.1,0.55,0.55,2.75,10,initial,36.05,321,361,400,0,0,9,9,9,0,0,,,,,,,4,0,4,0,0,51,51,0,,,,,,,,,,,,,,3,0.7901778999948874,3,0.2,0.39999999999999997,14.41717,return,1.653406299999915,,,,,,,,,,,,,,,,,p321,22,female,up_down_width,2025-12-19_10h59.19.362,exp1,2023.1.0,60.01662460234598,
,,,,,,,,,,,,,,,,,,,,,,,,,,,,,,,,,,,,,,,,,,,,,4,0,4,0,,,,,,,,,,,,,,,,,,,,,,,,,,,,10017.556031999993,10017.556031999993,10017.556031999993,,,,,,,,,,,,p321,22,female,up_down_width,2025-12-19_10h59.19.362,exp1,2023.1.0,60.01662460234598,
,,,,,,,,,,,,,,,,3,9.1,10,10.9,0,0,0.9,0.65,0.25,2.05,10,initial,36.05,328,361,393,0,0,9,9,9,0,0,,,,,,,5,0,5,0,0,0,0,13,,,,,,,,,,,,,,3,0.5324068000190891,3,0.4,0.30000000000000004,10.81288,return,0.7825153000012506,,,,,,,,,,,,,,,,,p321,22,female,up_down_width,2025-12-19_10h59.19.362,exp1,2023.1.0,60.01662460234598,
,,,,,,,,,,,,,,,,4,8.9,9.633333333333333,10.366666666666667,11.1,0,0.7333333333333334,0.4833333333333334,0.25,2.45,10,match,36.05,321,347,374,400,0,9,9,9,9,0,,,,,,,5,0,5,0,0,1,1,3,,,,,,,,,,,,,,3,0.49805369999376126,3,0.55,0.25000000000000006,9.01073,return,2.252222899987828,,,,,,,,,,,,,,,,,p321,22,female,up_down_width,2025-12-19_10h59.19.362,exp1,2023.1.0,60.01662460234598,
,,,,,,,,,,,,,,,,3,8.6,10,11.4,0,0,1.4,0.85,0.55,3.35,10,match,36.05,310,361,411,0,0,9,9,9,0,0,,,,,,,5,0,5,0,0,2,2,41,,,,,,,,,,,,,,3,0.4850837000121828,3,0.4,0.5,18.02146,return,0.9927885000070091,,,,,,,,,,,,,,,,,p321,22,female,up_down_width,2025-12-19_10h59.19.362,exp1,2023.1.0,60.01662460234598,
,,,,,,,,,,,,,,,,5,8.95,9.475,10,10.525,11.05,0.525,0.125,0.4,2.5,10,match,36.05,323,342,361,379,398,9,9,9,9,9,,,,,,,5,0,5,0,0,3,3,27,,,,,,,,,,,,,,5,0.5765687999955844,5,0.3,0.49999999999999994,18.02146,return,1.528840900020441,,,,,,,,,,,,,,,,,p321,22,female,up_down_width,2025-12-19_10h59.19.362,exp1,2023.1.0,60.01662460234598,
,,,,,,,,,,,,,,,,4,9.3,9.766666666666667,10.233333333333333,10.7,0,0.4666666666666667,0.06666666666666665,0.4,1.8,10,match,36.05,335,352,369,386,0,9,9,9,9,0,,,,,,,5,0,5,0,0,4,4,10,,,,,,,,,,,,,,4,0.610803899995517,4,0.55,0.55,19.82361,return,0.5368524999939837,,,,,,,,,,,,,,,,,p321,22,female,up_down_width,2025-12-19_10h59.19.362,exp1,2023.1.0,60.01662460234598,
,,,,,,,,,,,,,,,,3,8.9,10,11.1,0,0,1.1,0.8500000000000001,0.25,2.45,10,initial,36.05,321,361,400,0,0,9,9,9,0,0,,,,,,,5,0,5,0,0,5,5,2,,,,,,,,,,,,,,3,0.4646995000075549,3,0.2,0.2,7.20859,return,0.5408814999973401,,,,,,,,,,,,,,,,,p321,22,female,up_down_width,2025-12-19_10h59.19.362,exp1,2023.1.0,60.01662460234598,
,,,,,,,,,,,,,,,,3,9.3,10,10.7,0,0,0.7,0.44999999999999996,0.25,1.65,10,initial,36.05,335,361,386,0,0,9,9,9,0,0,,,,,,,5,0,5,0,0,6,6,7,,,,,,,,,,,,,,3,0.4580242999945767,3,0.2,0.3,10.81288,return,1.0794097000034526,,,,,,,,,,,,,,,,,p321,22,female,up_down_width,2025-12-19_10h59.19.362,exp1,2023.1.0,60.01662460234598,
,,,,,,,,,,,,,,,,3,8.525,10,11.475,0,0,1.475,1.225,0.25,3.2,10,match,36.05,307,361,414,0,0,9,9,9,0,0,,,,,,,5,0,5,0,0,7,7,45,,,,,,,,,,,,,,3,0.5112517999950796,3,0.4,0.25000000000000006,9.01073,return,1.5615375000052154,,,,,,,,,,,,,,,,,p321,22,female,up_down_width,2025-12-19_10h59.19.362,exp1,2023.1.0,60.01662460234598,
,,,,,,,,,,,,,,,,5,8.65,9.325,10,10.675,11.35,0.675,0.275,0.4,3.1,10,match,36.05,312,336,361,385,409,9,9,9,9,9,,,,,,,5,0,5,0,0,8,8,33,,,,,,,,,,,,,,5,1.012343200010946,5,0.2,0.2,7.20859,return,0.3621452999941539,,,,,,,,,,,,,,,,,p321,22,female,up_down_width,2025-12-19_10h59.19.362,exp1,2023.1.0,60.01662460234598,
,,,,,,,,,,,,,,,,4,8.95,9.65,10.35,11.05,0,0.7,0.1499999999999999,0.55,2.65,10,initial,36.05,323,348,373,398,0,9,9,9,9,0,,,,,,,5,0,5,0,0,9,9,23,,,,,,,,,,,,,,3,0.6079813999822363,3,0.55,0.6000000000000001,21.62576,return,0.7582876000087708,,,,,,,,,,,,,,,,,p321,22,female,up_down_width,2025-12-19_10h59.19.362,exp1,2023.1.0,60.01662460234598,
,,,,,,,,,,,,,,,,3,9.3,10,10.7,0,0,0.7,0.29999999999999993,0.4,1.8,10,initial,36.05,335,361,386,0,0,9,9,9,0,0,,,,,,,5,0,5,0,0,10,10,9,,,,,,,,,,,,,,3,0.3575173999997787,3,0.5,0.5,18.02146,return,0.4698699000000488,,,,,,,,,,,,,,,,,p321,22,female,up_down_width,2025-12-19_10h59.19.362,exp1,2023.1.0,60.01662460234598,
,,,,,,,,,,,,,,,,4,8.65,9.55,10.45,11.35,0,0.9,0.65,0.25,2.95,10,initial,36.05,312,344,377,409,0,9,9,9,9,0,,,,,,,5,0,5,0,0,11,11,30,,,,,,,,,,,,,,3,0.47568269999464974,3,0.25,0.25,9.01073,return,0.5675733999814838,,,,,,,,,,,,,,,,,p321,22,female,up_down_width,2025-12-19_10h59.19.362,exp1,2023.1.0,60.01662460234598,
,,,,,,,,,,,,,,,,5,7.8,8.9,10,11.1,12.2,1.1,0.7000000000000001,0.4,4.800000000000001,10,initial,36.05,281,321,361,400,440,9,9,9,9,9,,,,,,,5,0,5,0,0,12,12,38,,,,,,,,,,,,,,5,1.0227938999887556,5,0.25,0.35,12.61502,return,1.268511700007366,,,,,,,,,,,,,,,,,p321,22,female,up_down_width,2025-12-19_10h59.19.362,exp1,2023.1.0,60.01662460234598,
,,,,,,,,,,,,,,,,3,9.1,10,10.9,0,0,0.9,0.35,0.55,2.35,10,initial,36.05,328,361,393,0,0,9,9,9,0,0,,,,,,,5,0,5,0,0,13,13,11,,,,,,,,,,,,,,3,0.4941842000116594,3,0.4,0.4,14.41717,return,0.5048293999861926,,,,,,,,,,,,,,,,,p321,22,female,up_down_width,2025-12-19_10h59.19.362,exp1,2023.1.0,60.01662460234598,
,,,,,,,,,,,,,,,,4,8.95,9.65,10.35,11.05,0,0.7,0.44999999999999996,0.25,2.3499999999999996,10,initial,36.05,323,348,373,398,0,9,9,9,9,0,,,,,,,5,0,5,0,0,14,14,24,,,,,,,,,,,,,,5,0.7183495000062976,5,0.5,0.25000000000000006,9.01073,return,2.3195460000133608,,,,,,,,,,,,,,,,,p321,22,female,up_down_width,2025-12-19_10h59.19.362,exp1,2023.1.0,60.01662460234598,
,,,,,,,,,,,,,,,,4,8.825,9.608333333333333,10.391666666666667,11.175,0,0.7833333333333333,0.5333333333333333,0.25,2.6,10,match,36.05,318,346,375,403,0,9,9,9,9,0,,,,,,,5,0,5,0,0,15,15,5,,,,,,,,,,,,,,4,1.0146550000063144,4,0.5,0.30000000000000004,10.81288,return,1.5321707999974024,,,,,,,,,,,,,,,,,p321,22,female,up_down_width,2025-12-19_10h59.19.362,exp1,2023.1.0,60.01662460234598,
,,,,,,,,,,,,,,,,5,8.95,9.475,10,10.525,11.05,0.525,0.275,0.25,2.35,10,match,36.05,323,342,361,379,398,9,9,9,9,9,,,,,,,5,0,5,0,0,16,16,25,,,,,,,,,,,,,,4,0.8887014999927487,4,0.55,0.35000000000000003,12.61502,return,1.8915093000105117,,,,,,,,,,,,,,,,,p321,22,female,up_down_width,2025-12-19_10h59.19.362,exp1,2023.1.0,60.01662460234598,
,,,,,,,,,,,,,,,,4,9.1,9.7,10.3,10.9,0,0.6000000000000001,0.20000000000000004,0.4,2.2,10,match,36.05,328,350,371,393,0,9,9,9,9,0,,,,,,,5,0,5,0,0,17,17,16,,,,,,,,,,,,,,3,0.8339715999900363,3,0.3,0.44999999999999996,16.21932,return,1.1828668999951333,,,,,,,,,,,,,,,,,p321,22,female,up_down_width,2025-12-19_10h59.19.362,exp1,2023.1.0,60.01662460234598,
,,,,,,,,,,,,,,,,4,8.65,9.55,10.45,11.35,0,0.9,0.35,0.55,3.25,10,initial,36.05,312,344,377,409,0,9,9,9,9,0,,,,,,,5,0,5,0,0,18,18,28,,,,,,,,,,,,,,4,0.7323602999967989,4,0.5,0.5,18.02146,return,0.5420996000175364,,,,,,,,,,,,,,,,,p321,22,female,up_down_width,2025-12-19_10h59.19.362,exp1,2023.1.0,60.01662460234598,
,,,,,,,,,,,,,,,,5,7.8,8.9,10,11.1,12.2,1.1,0.55,0.55,4.95,10,initial,36.05,281,321,361,400,440,9,9,9,9,9,,,,,,,5,0,5,0,0,19,19,34,,,,,,,,,,,,,,5,0.8128811999922618,5,0.35,0.49999999999999994,18.02146,return,1.306946099997731,,,,,,,,,,,,,,,,,p321,22,female,up_down_width,2025-12-19_10h59.19.362,exp1,2023.1.0,60.01662460234598,
,,,,,,,,,,,,,,,,5,8.2,9.1,10,10.9,11.8,0.9,0.65,0.25,3.85,10,initial,36.05,296,328,361,393,425,9,9,9,9,9,,,,,,,5,0,5,0,0,20,20,48,,,,,,,,,,,,,,5,0.6267614999960642,5,0.3,0.3,10.81288,return,0.5698683999944478,,,,,,,,,,,,,,,,,p321,22,female,up_down_width,2025-12-19_10h59.19.362,exp1,2023.1.0,60.01662460234598,
,,,,,,,,,,,,,,,,5,8.2,9.1,10,10.9,11.8,0.9,0.35,0.55,4.15,10,initial,36.05,296,328,361,393,425,9,9,9,9,9,,,,,,,5,0,5,0,0,21,21,46,,,,,,,,,,,,,,5,0.575970400008373,5,0.45,0.45,16.21932,return,0.6643392999831121,,,,,,,,,,,,,,,,,p321,22,female,up_down_width,2025-12-19_10h59.19.362,exp1,2023.1.0,60.01662460234598,
,,,,,,,,,,,,,,,,3,8.6,10,11.4,0,0,1.4,1.15,0.25,3.05,10,match,36.05,310,361,411,0,0,9,9,9,0,0,,,,,,,5,0,5,0,0,22,22,43,,,,,,,,,,,,,,3,0.501128499978222,3,0.5,0.30000000000000004,10.81288,return,1.343549199984409,,,,,,,,,,,,,,,,,p321,22,female,up_down_width,2025-12-19_10h59.19.362,exp1,2023.1.0,60.01662460234598,
,,,,,,,,,,,,,,,,3,8.9,10,11.1,0,0,1.1,0.55,0.55,2.75,10,initial,36.05,321,361,400,0,0,9,9,9,0,0,,,,,,,5,0,5,0,0,23,23,0,,,,,,,,,,,,,,3,0.46088409997173585,3,0.4,0.5,18.02146,return,0.9849236999871209,,,,,,,,,,,,,,,,,p321,22,female,up_down_width,2025-12-19_10h59.19.362,exp1,2023.1.0,60.01662460234598,
,,,,,,,,,,,,,,,,5,8.65,9.325,10,10.675,11.35,0.675,0.42500000000000004,0.25,2.95,10,match,36.05,312,336,361,385,409,9,9,9,9,9,,,,,,,5,0,5,0,0,24,24,31,,,,,,,,,,,,,,5,0.8173322000075132,5,0.45,0.30000000000000004,10.81288,return,0.9764624999952503,,,,,,,,,,,,,,,,,p321,22,female,up_down_width,2025-12-19_10h59.19.362,exp1,2023.1.0,60.01662460234598,
,,,,,,,,,,,,,,,,3,8.2,10,11.8,0,0,1.7999999999999998,1.4,0.4,4,10,match,36.05,296,361,425,0,0,9,9,9,0,0,,,,,,,5,0,5,0,0,25,25,51,,,,,,,,,,,,,,3,0.4340200000151526,3,0.3,0.39999999999999997,14.41717,return,0.9918770000222139,,,,,,,,,,,,,,,,,p321,22,female,up_down_width,2025-12-19_10h59.19.362,exp1,2023.1.0,60.01662460234598,
,,,,,,,,,,,,,,,,3,9.3,10,10.7,0,0,0.7,0.1499999999999999,0.55,1.95,10,initial,36.05,335,361,386,0,0,9,9,9,0,0,,,,,,,5,0,5,0,0,26,26,6,,,,,,,,,,,,,,3,0.5802301000221632,3,0.55,0.6000000000000001,21.62576,return,0.9887710000039078,,,,,,,,,,,,,,,,,p321,22,female,up_down_width,2025-12-19_10h59.19.362,exp1,2023.1.0,60.01662460234598,
