"subID","keyboard_condition","trial_type","trial_number","correct_num","response_num","response_rt","correct_space","correct_width","response_width","probe_width","adjustment_duration","stim_length","exp_version","number_deviation","width_deviation","number_deviation_ratio","width_deviation_ratio","actual_pooled_width","response_pooled_width","pooled_width_deviation","width_deviation_relative","absolute_width_deviation"
"p301","left_right_width","match",1,5,4,0.717617699992843,0.675,0.25,0.15,0.25,1.23187739995774,2.95,"exp2",-1,-0.1,-0.2,0.6,1.25,0.6,-0.65,-0.4,0.1
"p301","left_right_width","initial",2,3,3,1.14436069998192,0.7,0.4,0.3,0.4,1.68957969994517,1.8,"exp2",0,-0.1,0,0.75,1.2,0.9,-0.3,-0.25,0.1
"p301","left_right_width","match",3,3,3,0.717966700030956,1.4,0.55,0.35,0.35,1.55232029996114,3.35,"exp2",0,-0.2,0,0.636363636363636,1.65,1.05,-0.6,-0.363636363636364,0.2
"p301","left_right_width","match",4,3,3,1.24402530002408,2.2,0.55,0.35,0.3,2.55184000002919,4.95,"exp2",0,-0.2,0,0.636363636363636,1.65,1.05,-0.6,-0.363636363636364,0.2
"p301","left_right_width","match",5,3,3,1.26733400003286,1.8,0.4,0.3,0.2,1.83984720002627,4,"exp2",0,-0.1,0,0.75,1.2,0.9,-0.3,-0.25,0.1
"p301","left_right_width","match",6,5,4,0.818475699983537,0.8625,0.25,0.2,0.2,1.40913759998512,3.7,"exp2",-1,-0.05,-0.2,0.8,1.25,0.8,-0.45,-0.2,0.05
"p301","left_right_width","initial",7,3,3,1.05227520002518,0.9,0.4,0.3,0.25,2.09635250002611,2.2,"exp2",0,-0.1,0,0.75,1.2,0.9,-0.3,-0.25,0.1
"p301","left_right_width","match",8,5,4,1.22266979998676,0.525,0.4,0.3,0.25,1.38000619999366,2.5,"exp2",-1,-0.1,-0.2,0.75,2,1.2,-0.8,-0.25,0.1
"p301","left_right_width","initial",9,5,4,0.822616600024048,0.7,0.25,0.25,0.55,1.98724119999679,3.05,"exp2",-1,5.55111512312578e-17,-0.2,1,1.25,1,-0.25,2.22044604925031e-16,5.55111512312578e-17
"p301","left_right_width","initial",10,5,4,0.621313899988309,0.9,0.55,0.35,0.25,1.29944889998296,4.15,"exp2",-1,-0.2,-0.2,0.636363636363636,2.75,1.4,-1.35,-0.363636363636364,0.2
"p301","left_right_width","match",11,3,3,0.716011899989098,1.475,0.25,0.25,0.45,2.17496869998286,3.2,"exp2",0,5.55111512312578e-17,0,1,0.75,0.75,2.22044604925031e-16,2.22044604925031e-16,5.55111512312578e-17
"p301","left_right_width","initial",12,3,3,1.43553069996415,0.9,0.55,0.35,0.3,1.4412003000034,2.35,"exp2",0,-0.2,0,0.636363636363636,1.65,1.05,-0.6,-0.363636363636364,0.2
"p301","left_right_width","match",13,4,3,1.63561900000786,0.466666666666667,0.25,0.25,0.25,1.72933800000465,1.65,"exp2",-1,0,-0.25,1,1,0.75,-0.25,0,0
"p301","left_right_width","initial",14,3,3,0.670555500022601,0.7,0.25,0.2,0.55,2.19457819999661,1.65,"exp2",0,-0.0499999999999999,0,0.8,0.75,0.6,-0.15,-0.2,0.0499999999999999
"p301","left_right_width","initial",15,5,4,0.606961900019087,1.1,0.4,0.3,0.3,1.44457509997301,4.8,"exp2",-1,-0.1,-0.2,0.75,2,1.2,-0.8,-0.25,0.1
"p301","left_right_width","initial",16,4,4,0.71307880000677,1.1,0.4,0.3,0.55,2.34652670001378,3.7,"exp2",0,-0.1,0,0.75,1.6,1.2,-0.4,-0.25,0.1
"p301","left_right_width","match",17,3,3,0.814943800040055,2.2,0.4,0.25,0.4,1.59661880001659,4.8,"exp2",0,-0.15,0,0.625,1.2,0.75,-0.45,-0.375,0.15
"p301","left_right_width","initial",18,5,4,1.07265530002769,0.7,0.55,0.3,0.35,2.66044130001683,3.35,"exp2",-1,-0.25,-0.2,0.545454545454545,2.75,1.2,-1.55,-0.454545454545455,0.25
"p301","left_right_width","match",19,4,3,1.1166927999584,0.6,0.55,0.5,0.55,2.03276610001922,2.35,"exp2",-1,-0.05,-0.25,0.909090909090909,2.2,1.5,-0.7,-0.090909090909091,0.05
"p301","left_right_width","match",20,4,3,1.43307159998221,0.6,0.25,0.3,0.55,2.63719049998326,2.05,"exp2",-1,0.05,-0.25,1.2,1,0.9,-0.0999999999999999,0.2,0.05
"p301","left_right_width","match",21,5,4,1.06827639997937,0.825,0.25,0.2,0.25,1.40736250003101,3.55,"exp2",-1,-0.05,-0.2,0.8,1.25,0.8,-0.45,-0.2,0.05
"p301","left_right_width","match",22,4,4,1.28003299998818,0.783333333333333,0.25,0.2,0.35,1.69167470000684,2.6,"exp2",0,-0.05,0,0.8,1,0.8,-0.2,-0.2,0.05
"p301","left_right_width","initial",23,4,3,1.15067789994646,1.1,0.25,0.25,0.4,2.24069080001209,3.55,"exp2",-1,5.55111512312578e-17,-0.25,1,1,0.75,-0.25,2.22044604925031e-16,5.55111512312578e-17
"p301","left_right_width","initial",24,3,3,0.76536139997188,1.1,0.25,0.2,0.4,1.62923530000262,2.45,"exp2",0,-0.0499999999999999,0,0.8,0.75,0.6,-0.15,-0.2,0.0499999999999999
"p301","left_right_width","initial",25,4,3,2.01618219999364,0.9,0.4,0.35,0.5,2.30259690003004,3.1,"exp2",-1,-0.05,-0.25,0.875,1.6,1.05,-0.55,-0.125,0.05
"p301","left_right_width","match",26,4,3,1.43941310001537,0.6,0.4,0.3,0.3,4.22870219999459,2.2,"exp2",-1,-0.1,-0.25,0.75,1.6,0.9,-0.7,-0.25,0.1
"p301","left_right_width","match",27,5,3,1.95111620001262,0.825,0.55,0.3,0.3,1.55100429995218,3.85,"exp2",-2,-0.25,-0.4,0.545454545454545,2.75,0.9,-1.85,-0.454545454545455,0.25
"p301","left_right_width","match",28,3,3,1.04309300001478,2.2,0.25,0.2,0.4,3.14385729999049,4.65,"exp2",0,-0.0499999999999999,0,0.8,0.75,0.6,-0.15,-0.2,0.0499999999999999
"p301","left_right_width","match",29,5,4,1.23278989997925,0.675,0.55,0.35,0.25,1.2949876000057,3.25,"exp2",-1,-0.2,-0.2,0.636363636363636,2.75,1.4,-1.35,-0.363636363636364,0.2
"p301","left_right_width","match",30,3,3,0.686098500038497,1.8,0.55,0.35,0.35,1.73036980000325,4.15,"exp2",0,-0.2,0,0.636363636363636,1.65,1.05,-0.6,-0.363636363636364,0.2
"p301","left_right_width","initial",31,4,3,0.730149700015318,0.9,0.25,0.25,0.55,2.42778059997363,2.95,"exp2",-1,5.55111512312578e-17,-0.25,1,1,0.75,-0.25,2.22044604925031e-16,5.55111512312578e-17
"p301","left_right_width","match",32,4,3,0.684862800000701,0.733333333333333,0.25,0.2,0.5,2.12721970002167,2.45,"exp2",-1,-0.0499999999999999,-0.25,0.8,1,0.6,-0.4,-0.2,0.0499999999999999
"p301","left_right_width","initial",33,4,4,0.650681900035124,0.7,0.4,0.4,0.55,1.58466509997379,2.5,"exp2",0,0,0,1,1.6,1.6,0,0,0
"p301","left_right_width","initial",34,5,4,0.903381799987983,1.1,0.25,0.25,0.3,1.71451860002708,4.65,"exp2",-1,0,-0.2,1,1.25,1,-0.25,0,0
"p301","left_right_width","match",35,3,3,1.06098900001962,1.8,0.25,0.2,0.3,1.14589909999631,3.85,"exp2",0,-0.05,0,0.8,0.75,0.6,-0.15,-0.2,0.05
"p301","left_right_width","initial",36,4,4,0.839851700002328,0.9,0.55,0.35,0.45,1.1583122999873,3.25,"exp2",0,-0.2,0,0.636363636363636,2.2,1.4,-0.8,-0.363636363636364,0.2
"p301","left_right_width","match",37,4,3,1.08596290001879,0.466666666666667,0.4,0.35,0.2,2.27369300002465,1.8,"exp2",-1,-0.05,-0.25,0.875,1.6,1.05,-0.55,-0.125,0.05
"p301","left_right_width","initial",38,5,4,0.826341499981936,0.7,0.4,0.3,0.25,1.30503370001679,3.2,"exp2",-1,-0.1,-0.2,0.75,2,1.2,-0.8,-0.25,0.1
"p301","left_right_width","initial",39,4,4,0.843206299992744,0.7,0.25,0.3,0.2,1.7994990000152,2.35,"exp2",0,0.05,0,1.2,1,1.2,0.2,0.2,0.05
"p301","left_right_width","initial",40,5,4,1.25079590000678,0.9,0.25,0.25,0.2,1.16761979996227,3.85,"exp2",-1,0,-0.2,1,1.25,1,-0.25,0,0
"p301","left_right_width","initial",41,4,3,0.882704499992542,0.7,0.55,0.35,0.45,1.37518249999266,2.65,"exp2",-1,-0.2,-0.25,0.636363636363636,2.2,1.05,-1.15,-0.363636363636364,0.2
"p301","left_right_width","match",42,5,4,0.945243199996185,0.675,0.4,0.3,0.2,1.20925489999354,3.1,"exp2",-1,-0.1,-0.2,0.75,2,1.2,-0.8,-0.25,0.1
"p301","left_right_width","initial",43,5,4,0.615011400019284,1.1,0.55,0.35,0.55,2.38060209999094,4.95,"exp2",-1,-0.2,-0.2,0.636363636363636,2.75,1.4,-1.35,-0.363636363636364,0.2
"p301","left_right_width","initial",44,3,3,0.623679299955256,0.9,0.25,0.3,0.5,1.50919479998993,2.05,"exp2",0,0.05,0,1.2,0.75,0.9,0.15,0.2,0.05
"p301","left_right_width","initial",45,5,4,0.703505199984647,0.9,0.4,0.25,0.4,1.5233348000329,4,"exp2",-1,-0.15,-0.2,0.625,2,1,-1,-0.375,0.15
"p301","left_right_width","match",46,4,3,0.759908200008795,0.733333333333333,0.55,0.35,0.2,1.54464949999237,2.75,"exp2",-1,-0.2,-0.25,0.636363636363636,2.2,1.05,-1.15,-0.363636363636364,0.2
"p301","left_right_width","initial",47,3,3,0.693350200017449,1.1,0.4,0.3,0.4,1.75138859997969,2.6,"exp2",0,-0.1,0,0.75,1.2,0.9,-0.3,-0.25,0.1
"p301","left_right_width","match",48,3,3,0.632566600048449,1.4,0.25,0.2,0.3,1.16751380002825,3.05,"exp2",0,-0.05,0,0.8,0.75,0.6,-0.15,-0.2,0.05
"p301","left_right_width","initial",49,4,4,0.78734420001274,1.1,0.55,0.3,0.35,1.26748880004743,3.85,"exp2",0,-0.25,0,0.545454545454545,2.2,1.2,-1,-0.454545454545455,0.25
"p301","left_right_width","initial",50,3,3,0.458766200055834,0.7,0.55,0.35,0.4,1.14244780002628,1.95,"exp2",0,-0.2,0,0.636363636363636,1.65,1.05,-0.6,-0.363636363636364,0.2
"p301","left_right_width","initial",51,3,3,0.56206690002,1.1,0.55,0.35,0.2,1.54721200000495,2.75,"exp2",0,-0.2,0,0.636363636363636,1.65,1.05,-0.6,-0.363636363636364,0.2
"p301","left_right_width","match",52,5,4,0.640594700002111,0.525,0.25,0.25,0.4,1.58938359998865,2.35,"exp2",-1,5.55111512312578e-17,-0.2,1,1.25,1,-0.25,2.22044604925031e-16,5.55111512312578e-17
"p301","left_right_width","initial",1,5,5,1.12778909999179,1.1,0.55,0.35,0.3,1.64203930000076,4.95,"exp2",0,-0.2,0,0.636363636363636,2.75,1.75,-1,-0.363636363636364,0.2
"p301","left_right_width","initial",2,5,4,1.54729279997991,0.7,0.25,0.3,0.55,2.20388019998791,3.05,"exp2",-1,0.05,-0.2,1.2,1.25,1.2,-0.0499999999999998,0.2,0.05
"p301","left_right_width","initial",3,5,4,0.734382099995855,0.7,0.4,0.25,0.4,1.48623779998161,3.2,"exp2",-1,-0.15,-0.2,0.625,2,1,-1,-0.375,0.15
"p301","left_right_width","initial",4,5,4,2.33562359999632,0.9,0.25,0.2,0.2,1.31375060003484,3.85,"exp2",-1,-0.05,-0.2,0.8,1.25,0.8,-0.45,-0.2,0.05
"p301","left_right_width","match",5,5,5,0.9098833000171,0.675,0.25,0.25,0.45,1.46541689999867,2.95,"exp2",0,5.55111512312578e-17,0,1,1.25,1.25,2.22044604925031e-16,2.22044604925031e-16,5.55111512312578e-17
"p301","left_right_width","match",6,5,4,2.26820880000014,0.675,0.4,0.25,0.3,1.47074979997706,3.1,"exp2",-1,-0.15,-0.2,0.625,2,1,-1,-0.375,0.15
"p301","left_right_width","match",7,4,4,0.77515110000968,0.733333333333333,0.25,0.2,0.55,2.16814249998424,2.45,"exp2",0,-0.0499999999999999,0,0.8,1,0.8,-0.2,-0.2,0.0499999999999999
"p301","left_right_width","match",8,5,4,2.18849470000714,0.825,0.25,0.15,0.25,1.36494299996411,3.55,"exp2",-1,-0.1,-0.2,0.6,1.25,0.6,-0.65,-0.4,0.1
"p301","left_right_width","match",9,3,3,0.824102999991737,1.8,0.4,0.3,0.55,2.5975432000123,4,"exp2",0,-0.1,0,0.75,1.2,0.9,-0.3,-0.25,0.1
"p301","left_right_width","initial",10,4,4,0.791399600042496,1.1,0.25,0.2,0.2,2.10135090001859,3.55,"exp2",0,-0.05,0,0.8,1,0.8,-0.2,-0.2,0.05
"p301","left_right_width","initial",11,3,3,1.2033263000194,1.1,0.55,0.3,0.25,1.52179989998695,2.75,"exp2",0,-0.25,0,0.545454545454545,1.65,0.9,-0.75,-0.454545454545455,0.25
"p301","left_right_width","initial",12,3,3,0.732212300004903,0.9,0.55,0.35,0.5,2.03005170001416,2.35,"exp2",0,-0.2,0,0.636363636363636,1.65,1.05,-0.6,-0.363636363636364,0.2
"p301","left_right_width","match",13,3,3,1.38212980004027,2.2,0.55,0.35,0.2,1.50127709994558,4.95,"exp2",0,-0.2,0,0.636363636363636,1.65,1.05,-0.6,-0.363636363636364,0.2
"p301","left_right_width","initial",14,3,3,1.07131219998701,0.9,0.25,0.3,0.5,1.602499599976,2.05,"exp2",0,0.05,0,1.2,0.75,0.9,0.15,0.2,0.05
"p301","left_right_width","match",15,5,5,1.38243619998684,0.825,0.55,0.35,0.55,1.82193069998175,3.85,"exp2",0,-0.2,0,0.636363636363636,2.75,1.75,-1,-0.363636363636364,0.2
"p301","left_right_width","initial",16,4,4,0.578598599997349,0.7,0.25,0.25,0.4,1.24237699998775,2.35,"exp2",0,5.55111512312578e-17,0,1,1,1,2.22044604925031e-16,2.22044604925031e-16,5.55111512312578e-17
"p301","left_right_width","initial",17,3,3,1.04870329995174,0.9,0.4,0.25,0.35,1.07065359997796,2.2,"exp2",0,-0.15,0,0.625,1.2,0.75,-0.45,-0.375,0.15
"p301","left_right_width","initial",18,3,3,0.820510899997316,0.7,0.4,0.3,0.35,1.10639420000371,1.8,"exp2",0,-0.1,0,0.75,1.2,0.9,-0.3,-0.25,0.1
"p301","left_right_width","match",19,3,3,0.829560100042727,1.4,0.55,0.35,0.25,1.27604809997138,3.35,"exp2",0,-0.2,0,0.636363636363636,1.65,1.05,-0.6,-0.363636363636364,0.2
"p301","left_right_width","initial",20,4,4,0.8265905000153,1.1,0.55,0.35,0.55,1.54569810000248,3.85,"exp2",0,-0.2,0,0.636363636363636,2.2,1.4,-0.8,-0.363636363636364,0.2
"p301","left_right_width","match",21,3,3,0.725541100022383,1.475,0.25,0.2,0.25,1.30195470002946,3.2,"exp2",0,-0.05,0,0.8,0.75,0.6,-0.15,-0.2,0.05
"p301","left_right_width","initial",22,4,4,0.708050200017169,0.9,0.4,0.25,0.45,1.52594760002103,3.1,"exp2",0,-0.15,0,0.625,1.6,1,-0.6,-0.375,0.15
"p301","left_right_width","initial",23,5,4,1.61786910000956,0.9,0.4,0.25,0.35,1.4236971999635,4,"exp2",-1,-0.15,-0.2,0.625,2,1,-1,-0.375,0.15
"p301","left_right_width","match",24,5,4,1.34217759995954,0.525,0.25,0.2,0.35,1.51209010003367,2.35,"exp2",-1,-0.05,-0.2,0.8,1.25,0.8,-0.45,-0.2,0.05
"p301","left_right_width","match",25,3,3,0.769734399975277,1.8,0.25,0.2,0.55,1.98543430003338,3.85,"exp2",0,-0.0499999999999999,0,0.8,0.75,0.6,-0.15,-0.2,0.0499999999999999
"p301","left_right_width","match",26,4,4,1.94512510002824,0.6,0.55,0.35,0.35,2.23449639999308,2.35,"exp2",0,-0.2,0,0.636363636363636,2.2,1.4,-0.8,-0.363636363636364,0.2
"p301","left_right_width","match",27,3,3,1.02287929999875,1.4,0.25,0.2,0.35,1.23640090000117,3.05,"exp2",0,-0.05,0,0.8,0.75,0.6,-0.15,-0.2,0.05
"p301","left_right_width","match",28,4,4,0.851773200032767,0.6,0.25,0.2,0.35,1.26529869996011,2.05,"exp2",0,-0.05,0,0.8,1,0.8,-0.2,-0.2,0.05
"p301","left_right_width","initial",29,3,3,0.817803300044034,0.7,0.25,0.15,0.3,1.53476889996091,1.65,"exp2",0,-0.1,0,0.6,0.75,0.45,-0.3,-0.4,0.1
"p301","left_right_width","match",30,4,4,0.857982899993658,0.783333333333333,0.25,0.15,0.2,0.998204900010023,2.6,"exp2",0,-0.1,0,0.6,1,0.6,-0.4,-0.4,0.1
"p301","left_right_width","match",31,5,4,0.704294099996332,0.525,0.4,0.25,0.4,1.58579260000261,2.5,"exp2",-1,-0.15,-0.2,0.625,2,1,-1,-0.375,0.15
"p301","left_right_width","match",32,4,3,1.75443440000527,0.733333333333333,0.55,0.3,0.35,1.01179640000919,2.75,"exp2",-1,-0.25,-0.25,0.545454545454545,2.2,0.9,-1.3,-0.454545454545455,0.25
"p301","left_right_width","initial",33,4,4,0.962531899975147,0.7,0.55,0.35,0.55,1.33875260001514,2.65,"exp2",0,-0.2,0,0.636363636363636,2.2,1.4,-0.8,-0.363636363636364,0.2
"p301","left_right_width","match",34,3,3,0.584095300000627,2.2,0.25,0.2,0.4,1.39244419999886,4.65,"exp2",0,-0.0499999999999999,0,0.8,0.75,0.6,-0.15,-0.2,0.0499999999999999
"p301","left_right_width","initial",35,4,4,0.687376399990171,0.9,0.55,0.3,0.35,1.07386500004213,3.25,"exp2",0,-0.25,0,0.545454545454545,2.2,1.2,-1,-0.454545454545455,0.25
"p301","left_right_width","initial",36,3,3,1.19517970003653,1.1,0.4,0.3,0.55,2.04251769999973,2.6,"exp2",0,-0.1,0,0.75,1.2,0.9,-0.3,-0.25,0.1
"p301","left_right_width","initial",37,3,2,0.785445899993647,1.1,0.25,0.2,0.45,3.61603939998895,2.45,"exp2",-1,-0.0499999999999999,-0.333333333333333,0.8,0.75,0.4,-0.35,-0.2,0.0499999999999999
"p301","left_right_width","initial",38,4,4,1.01179140002932,0.7,0.4,0.25,0.25,3.75355329999002,2.5,"exp2",0,-0.15,0,0.625,1.6,1,-0.6,-0.375,0.15
"p301","left_right_width","initial",39,5,4,0.945647699991241,0.7,0.55,0.35,0.45,3.33798360003857,3.35,"exp2",-1,-0.2,-0.2,0.636363636363636,2.75,1.4,-1.35,-0.363636363636364,0.2
"p301","left_right_width","match",40,4,4,1.72584389999975,0.6,0.4,0.3,0.55,3.55909850000171,2.2,"exp2",0,-0.1,0,0.75,1.6,1.2,-0.4,-0.25,0.1
"p301","left_right_width","match",41,5,4,0.991300099994987,0.8625,0.25,0.1,0.25,1.97543949994724,3.7,"exp2",-1,-0.15,-0.2,0.4,1.25,0.4,-0.85,-0.6,0.15
"p301","left_right_width","match",42,4,4,0.651623799989466,0.466666666666667,0.25,0.15,0.35,1.52025510004023,1.65,"exp2",0,-0.1,0,0.6,1,0.6,-0.4,-0.4,0.1
"p301","left_right_width","initial",43,5,5,0.869272599986289,0.9,0.55,0.3,0.35,1.34572430001572,4.15,"exp2",0,-0.25,0,0.545454545454545,2.75,1.5,-1.25,-0.454545454545455,0.25
"p301","left_right_width","match",44,4,3,1.27389949996723,0.466666666666667,0.4,0.3,0.35,1.17365949996747,1.8,"exp2",-1,-0.1,-0.25,0.75,1.6,0.9,-0.7,-0.25,0.1
"p301","left_right_width","initial",45,4,4,1.12775589997182,1.1,0.4,0.3,0.25,1.48169770004461,3.7,"exp2",0,-0.1,0,0.75,1.6,1.2,-0.4,-0.25,0.1
"p301","left_right_width","match",46,3,3,0.671470200002659,2.2,0.4,0.25,0.2,1.66742500005057,4.8,"exp2",0,-0.15,0,0.625,1.2,0.75,-0.45,-0.375,0.15
"p301","left_right_width","initial",47,4,3,0.696027100028004,0.9,0.25,0.2,0.4,1.70815219997894,2.95,"exp2",-1,-0.0499999999999999,-0.25,0.8,1,0.6,-0.4,-0.2,0.0499999999999999
"p301","left_right_width","match",48,5,4,0.816052699985448,0.675,0.55,0.3,0.5,1.88645480002742,3.25,"exp2",-1,-0.25,-0.2,0.545454545454546,2.75,1.2,-1.55,-0.454545454545455,0.25
"p301","left_right_width","match",49,3,3,0.692602000024635,1.8,0.55,0.35,0.4,1.41628309997031,4.15,"exp2",0,-0.2,0,0.636363636363636,1.65,1.05,-0.6,-0.363636363636364,0.2
"p301","left_right_width","initial",50,3,3,0.949487400008366,0.7,0.55,0.35,0.25,2.60793689999264,1.95,"exp2",0,-0.2,0,0.636363636363636,1.65,1.05,-0.6,-0.363636363636364,0.2
"p301","left_right_width","initial",51,5,5,1.79184810002334,1.1,0.4,0.3,0.35,2.16781880002236,4.8,"exp2",0,-0.1,0,0.75,2,1.5,-0.5,-0.25,0.1
"p301","left_right_width","initial",52,5,4,0.977774400031194,1.1,0.25,0.15,0.4,1.9134263000451,4.65,"exp2",-1,-0.0999999999999999,-0.2,0.6,1.25,0.6,-0.65,-0.4,0.0999999999999999
"p301","left_right_width","match",1,3,3,0.711543400015216,2.2,0.25,0.15,0.2,1.17853590002051,4.65,"exp2",0,-0.1,0,0.6,0.75,0.45,-0.3,-0.4,0.1
"p301","left_right_width","match",2,5,4,1.03264009999111,0.675,0.55,0.3,0.2,1.3105103999842,3.25,"exp2",-1,-0.25,-0.2,0.545454545454545,2.75,1.2,-1.55,-0.454545454545455,0.25
"p301","left_right_width","match",3,5,4,0.694755200005602,0.675,0.4,0.25,0.5,2.47443010000279,3.1,"exp2",-1,-0.15,-0.2,0.625,2,1,-1,-0.375,0.15
"p301","left_right_width","match",4,4,4,0.638357999967411,0.733333333333333,0.55,0.35,0.2,1.21897899999749,2.75,"exp2",0,-0.2,0,0.636363636363636,2.2,1.4,-0.8,-0.363636363636364,0.2
"p301","left_right_width","match",5,5,4,1.80727970000589,0.525,0.25,0.15,0.25,0.982001999975182,2.35,"exp2",-1,-0.1,-0.2,0.6,1.25,0.6,-0.65,-0.4,0.1
"p301","left_right_width","initial",6,3,3,0.688183800026309,1.1,0.25,0.15,0.2,1.26763019995997,2.45,"exp2",0,-0.1,0,0.6,0.75,0.45,-0.3,-0.4,0.1
"p301","left_right_width","initial",7,5,4,0.664013300032821,0.7,0.55,0.25,0.2,0.988231000024825,3.35,"exp2",-1,-0.3,-0.2,0.454545454545455,2.75,1,-1.75,-0.545454545454546,0.3
"p301","left_right_width","initial",8,3,3,0.508187100000214,0.7,0.25,0.15,0.25,0.934426299994811,1.65,"exp2",0,-0.1,0,0.6,0.75,0.45,-0.3,-0.4,0.1
"p301","left_right_width","initial",9,4,3,1.47094979998656,0.9,0.4,0.25,0.55,2.08284129999811,3.1,"exp2",-1,-0.15,-0.25,0.625,1.6,0.75,-0.85,-0.375,0.15
"p301","left_right_width","initial",10,5,4,0.732286499987822,1.1,0.4,0.25,0.55,1.99931290000677,4.8,"exp2",-1,-0.15,-0.2,0.625,2,1,-1,-0.375,0.15
"p301","left_right_width","match",11,5,4,0.774575799994636,0.525,0.4,0.25,0.2,2.11778699996648,2.5,"exp2",-1,-0.15,-0.2,0.625,2,1,-1,-0.375,0.15
"p301","left_right_width","initial",12,3,3,0.521538800036069,0.9,0.25,0.2,0.3,0.962477100023534,2.05,"exp2",0,-0.05,0,0.8,0.75,0.6,-0.15,-0.2,0.05
"p301","left_right_width","initial",13,4,3,0.643439200008288,0.9,0.55,0.3,0.55,2.96966529998463,3.25,"exp2",-1,-0.25,-0.25,0.545454545454546,2.2,0.9,-1.3,-0.454545454545455,0.25
"p301","left_right_width","initial",14,5,4,0.734738799976185,1.1,0.25,0.2,0.4,1.31209129997296,4.65,"exp2",-1,-0.0499999999999999,-0.2,0.8,1.25,0.8,-0.45,-0.2,0.0499999999999999
"p301","left_right_width","match",15,5,3,1.92473329999484,0.675,0.25,0.2,0.45,2.02276050002547,2.95,"exp2",-2,-0.0499999999999999,-0.4,0.8,1.25,0.6,-0.65,-0.2,0.0499999999999999
"p301","left_right_width","initial",16,4,4,0.957473900052719,1.1,0.4,0.25,0.35,1.0301547999843,3.7,"exp2",0,-0.15,0,0.625,1.6,1,-0.6,-0.375,0.15
"p301","left_right_width","match",17,4,3,0.585793300007936,0.783333333333333,0.25,0.15,0.2,1.2496541000437,2.6,"exp2",-1,-0.1,-0.25,0.6,1,0.45,-0.55,-0.4,0.1
"p301","left_right_width","initial",18,3,3,0.719852999958675,0.9,0.55,0.3,0.25,1.2177512999624,2.35,"exp2",0,-0.25,0,0.545454545454545,1.65,0.9,-0.75,-0.454545454545455,0.25
"p301","left_right_width","initial",19,5,4,0.666038299968932,0.7,0.4,0.25,0.3,1.02399899996817,3.2,"exp2",-1,-0.15,-0.2,0.625,2,1,-1,-0.375,0.15
"p301","left_right_width","match",20,4,4,0.698227400018368,0.466666666666667,0.4,0.2,0.2,1.24508940003579,1.8,"exp2",0,-0.2,0,0.5,1.6,0.8,-0.8,-0.5,0.2
"p301","left_right_width","match",21,3,3,0.516179700032808,1.4,0.25,0.2,0.45,1.5824377000099,3.05,"exp2",0,-0.0499999999999999,0,0.8,0.75,0.6,-0.15,-0.2,0.0499999999999999
"p301","left_right_width","initial",22,5,4,0.60916220000945,1.1,0.55,0.3,0.2,1.17506370000774,4.95,"exp2",-1,-0.25,-0.2,0.545454545454545,2.75,1.2,-1.55,-0.454545454545455,0.25
"p301","left_right_width","initial",23,4,3,1.90924559999257,1.1,0.55,0.35,0.55,2.37612179998541,3.85,"exp2",-1,-0.2,-0.25,0.636363636363636,2.2,1.05,-1.15,-0.363636363636364,0.2
"p301","left_right_width","initial",24,3,3,0.570193900028244,0.9,0.4,0.3,0.35,1.53832729998976,2.2,"exp2",0,-0.1,0,0.75,1.2,0.9,-0.3,-0.25,0.1
"p301","left_right_width","match",25,3,3,0.549538199964445,1.4,0.55,0.45,0.55,1.03928959998302,3.35,"exp2",0,-0.1,0,0.818181818181818,1.65,1.35,-0.3,-0.181818181818182,0.1
"p301","left_right_width","match",26,4,4,1.23864799999865,0.466666666666667,0.25,0.2,0.55,2.00302560004639,1.65,"exp2",0,-0.0499999999999999,0,0.8,1,0.8,-0.2,-0.2,0.0499999999999999
"p301","left_right_width","initial",27,5,4,0.640530699980445,0.9,0.55,0.3,0.5,1.47819880000316,4.15,"exp2",-1,-0.25,-0.2,0.545454545454546,2.75,1.2,-1.55,-0.454545454545455,0.25
"p301","left_right_width","initial",28,5,4,0.603346200019587,0.7,0.25,0.2,0.5,2.13023970002541,3.05,"exp2",-1,-0.0499999999999999,-0.2,0.8,1.25,0.8,-0.45,-0.2,0.0499999999999999
"p301","left_right_width","initial",29,3,2,1.33602510002675,0.7,0.4,0.3,0.2,1.96790350001538,1.8,"exp2",-1,-0.1,-0.333333333333333,0.75,1.2,0.6,-0.6,-0.25,0.1
"p301","left_right_width","match",30,5,4,0.887921400018968,0.825,0.25,0.25,0.55,3.92203120002523,3.55,"exp2",-1,5.55111512312578e-17,-0.2,1,1.25,1,-0.25,2.22044604925031e-16,5.55111512312578e-17
"p301","left_right_width","match",31,3,3,0.744876700046007,2.2,0.55,0.3,0.35,2.36255060002441,4.95,"exp2",0,-0.25,0,0.545454545454545,1.65,0.9,-0.75,-0.454545454545455,0.25
"p301","left_right_width","initial",32,4,4,1.08608769997954,0.9,0.25,0.2,0.3,1.16956609999761,2.95,"exp2",0,-0.05,0,0.8,1,0.8,-0.2,-0.2,0.05
"p301","left_right_width","match",33,5,4,0.927272400003858,0.8625,0.25,0.2,0.3,1.01779959996929,3.7,"exp2",-1,-0.05,-0.2,0.8,1.25,0.8,-0.45,-0.2,0.05
"p301","left_right_width","match",34,3,3,0.65111259999685,1.475,0.25,0.2,0.45,1.88838640000904,3.2,"exp2",0,-0.0499999999999999,0,0.8,0.75,0.6,-0.15,-0.2,0.0499999999999999
"p301","left_right_width","initial",35,5,4,1.17402570002014,0.9,0.25,0.15,0.45,1.79934189998312,3.85,"exp2",-1,-0.0999999999999999,-0.2,0.6,1.25,0.6,-0.65,-0.4,0.0999999999999999
"p301","left_right_width","match",36,3,3,0.60854049999034,1.8,0.55,0.4,0.35,1.1915633000317,4.15,"exp2",0,-0.15,0,0.727272727272727,1.65,1.2,-0.45,-0.272727272727273,0.15
"p301","left_right_width","match",37,4,3,1.33278329996392,0.6,0.25,0.2,0.4,1.45435019995784,2.05,"exp2",-1,-0.0499999999999999,-0.25,0.8,1,0.6,-0.4,-0.2,0.0499999999999999
"p301","left_right_width","initial",38,4,3,0.752905000001192,0.7,0.4,0.3,0.5,1.71379099995829,2.5,"exp2",-1,-0.1,-0.25,0.75,1.6,0.9,-0.7,-0.25,0.1
"p301","left_right_width","match",39,4,4,1.11848669999745,0.6,0.4,0.25,0.2,1.42451820004499,2.2,"exp2",0,-0.15,0,0.625,1.6,1,-0.6,-0.375,0.15
"p301","left_right_width","initial",40,4,4,0.77863100002287,0.7,0.25,0.25,0.5,2.15363770001568,2.35,"exp2",0,5.55111512312578e-17,0,1,1,1,2.22044604925031e-16,2.22044604925031e-16,5.55111512312578e-17
"p301","left_right_width","match",41,5,4,0.725260799983516,0.825,0.55,0.35,0.25,1.67010109999683,3.85,"exp2",-1,-0.2,-0.2,0.636363636363636,2.75,1.4,-1.35,-0.363636363636364,0.2
"p301","left_right_width","initial",42,3,3,0.533974400022998,0.7,0.55,0.35,0.35,1.12066169996979,1.95,"exp2",0,-0.2,0,0.636363636363636,1.65,1.05,-0.6,-0.363636363636364,0.2
"p301","left_right_width","match",43,3,3,0.601284399977885,1.8,0.25,0.2,0.3,1.1200410000165,3.85,"exp2",0,-0.05,0,0.8,0.75,0.6,-0.15,-0.2,0.05
"p301","left_right_width","match",44,3,3,0.508909899974242,1.8,0.4,0.25,0.3,1.17583840002771,4,"exp2",0,-0.15,0,0.625,1.2,0.75,-0.45,-0.375,0.15
"p301","left_right_width","initial",45,5,5,1.56121120002354,0.9,0.4,0.3,0.5,1.86531680001644,4,"exp2",0,-0.1,0,0.75,2,1.5,-0.5,-0.25,0.1
"p301","left_right_width","match",46,3,3,0.601543500029948,2.2,0.4,0.3,0.3,1.31075200001942,4.8,"exp2",0,-0.1,0,0.75,1.2,0.9,-0.3,-0.25,0.1
"p301","left_right_width","match",47,4,3,0.936240200011525,0.6,0.55,0.4,0.2,1.79355210001813,2.35,"exp2",-1,-0.15,-0.25,0.727272727272727,2.2,1.2,-1,-0.272727272727273,0.15
"p301","left_right_width","initial",48,4,3,0.722868499986362,1.1,0.25,0.25,0.5,1.63668579998193,3.55,"exp2",-1,5.55111512312578e-17,-0.25,1,1,0.75,-0.25,2.22044604925031e-16,5.55111512312578e-17
"p301","left_right_width","match",49,4,3,1.34045660000993,0.733333333333333,0.25,0.15,0.5,2.2935518999584,2.45,"exp2",-1,-0.0999999999999999,-0.25,0.6,1,0.45,-0.55,-0.4,0.0999999999999999
"p301","left_right_width","initial",50,3,3,0.684126199979801,1.1,0.4,0.3,0.35,1.02413550001802,2.6,"exp2",0,-0.1,0,0.75,1.2,0.9,-0.3,-0.25,0.1
"p301","left_right_width","initial",51,4,3,0.910523200000171,0.7,0.55,0.35,0.55,1.64158830000088,2.65,"exp2",-1,-0.2,-0.25,0.636363636363636,2.2,1.05,-1.15,-0.363636363636364,0.2
"p301","left_right_width","initial",52,3,3,0.536587100010365,1.1,0.55,0.4,0.3,1.00947499996983,2.75,"exp2",0,-0.15,0,0.727272727272727,1.65,1.2,-0.45,-0.272727272727273,0.15
"p301","left_right_width","match",1,3,3,0.660779299971182,1.8,0.25,0.2,0.35,1.62513689999469,3.85,"exp2",0,-0.05,0,0.8,0.75,0.6,-0.15,-0.2,0.05
"p301","left_right_width","match",2,3,3,0.904569200007245,2.2,0.4,0.25,0.2,1.98856369999703,4.8,"exp2",0,-0.15,0,0.625,1.2,0.75,-0.45,-0.375,0.15
"p301","left_right_width","match",3,5,5,1.22822180000367,0.675,0.25,0.15,0.35,1.27381440001773,2.95,"exp2",0,-0.1,0,0.6,1.25,0.75,-0.5,-0.4,0.1
"p301","left_right_width","match",4,4,4,0.772164500027429,0.466666666666667,0.4,0.25,0.25,2.1475061000092,1.8,"exp2",0,-0.15,0,0.625,1.6,1,-0.6,-0.375,0.15
"p301","left_right_width","initial",5,4,4,1.05008300003828,0.9,0.25,0.2,0.4,1.56805139995413,2.95,"exp2",0,-0.0499999999999999,0,0.8,1,0.8,-0.2,-0.2,0.0499999999999999
"p301","left_right_width","match",6,3,3,0.478702899999917,2.2,0.25,0.25,0.5,1.41793529997813,4.65,"exp2",0,5.55111512312578e-17,0,1,0.75,0.75,2.22044604925031e-16,2.22044604925031e-16,5.55111512312578e-17
"p301","left_right_width","match",7,5,4,1.12874910002574,0.675,0.55,0.2,0.3,0.986265800020192,3.25,"exp2",-1,-0.35,-0.2,0.363636363636364,2.75,0.8,-1.95,-0.636363636363636,0.35
"p301","left_right_width","match",8,3,3,0.532665900012944,1.475,0.25,0.15,0.35,1.29587919998448,3.2,"exp2",0,-0.1,0,0.6,0.75,0.45,-0.3,-0.4,0.1
"p301","left_right_width","match",9,4,4,0.927416999998968,0.733333333333333,0.55,0.25,0.2,1.49744279996958,2.75,"exp2",0,-0.3,0,0.454545454545455,2.2,1,-1.2,-0.545454545454546,0.3
"p301","left_right_width","match",10,4,4,0.773728100000881,0.6,0.4,0.2,0.2,1.09468770003878,2.2,"exp2",0,-0.2,0,0.5,1.6,0.8,-0.8,-0.5,0.2
"p301","left_right_width","initial",11,4,3,0.641570799984038,1.1,0.25,0.15,0.5,1.73438270000042,3.55,"exp2",-1,-0.0999999999999999,-0.25,0.6,1,0.45,-0.55,-0.4,0.0999999999999999
"p301","left_right_width","initial",12,3,3,0.591204399999697,0.9,0.25,0.2,0.4,1.51012880000053,2.05,"exp2",0,-0.0499999999999999,0,0.8,0.75,0.6,-0.15,-0.2,0.0499999999999999
"p301","left_right_width","match",13,5,4,0.642744300013874,0.675,0.4,0.25,0.45,1.30449759995099,3.1,"exp2",-1,-0.15,-0.2,0.625,2,1,-1,-0.375,0.15
"p301","left_right_width","match",14,5,4,0.599344399990514,0.525,0.4,0.35,0.55,1.85366419999627,2.5,"exp2",-1,-0.05,-0.2,0.875,2,1.4,-0.6,-0.125,0.05
"p301","left_right_width","initial",15,4,4,0.57116379996296,0.7,0.55,0.25,0.2,1.47556809999514,2.65,"exp2",0,-0.3,0,0.454545454545455,2.2,1,-1.2,-0.545454545454546,0.3
"p301","left_right_width","initial",16,5,5,1.02264569996623,1.1,0.4,0.3,0.3,1.12514380004723,4.8,"exp2",0,-0.1,0,0.75,2,1.5,-0.5,-0.25,0.1
"p301","left_right_width","match",17,5,4,0.78459809999913,0.525,0.25,0.25,0.35,1.39266630000202,2.35,"exp2",-1,0,-0.2,1,1.25,1,-0.25,0,0
"p301","left_right_width","initial",18,4,4,0.812267999979667,1.1,0.55,0.35,0.45,2.05860390001908,3.85,"exp2",0,-0.2,0,0.636363636363636,2.2,1.4,-0.8,-0.363636363636364,0.2
"p301","left_right_width","match",19,3,3,0.954130699974485,1.8,0.55,0.35,0.3,1.34791319997748,4.15,"exp2",0,-0.2,0,0.636363636363636,1.65,1.05,-0.6,-0.363636363636364,0.2
"p301","left_right_width","initial",20,5,4,1.0392298999941,1.1,0.55,0.35,0.5,1.18760409997776,4.95,"exp2",-1,-0.2,-0.2,0.636363636363636,2.75,1.4,-1.35,-0.363636363636364,0.2
"p301","left_right_width","match",21,4,4,0.821441199979745,0.466666666666667,0.25,0.2,0.55,1.85970750002889,1.65,"exp2",0,-0.0499999999999999,0,0.8,1,0.8,-0.2,-0.2,0.0499999999999999
"p301","left_right_width","initial",22,5,4,0.586870400002226,0.9,0.25,0.15,0.55,2.40104820003035,3.85,"exp2",-1,-0.0999999999999999,-0.2,0.6,1.25,0.6,-0.65,-0.4,0.0999999999999999
"p301","left_right_width","initial",23,3,3,0.522748899995349,0.7,0.4,0.25,0.35,0.996735799999442,1.8,"exp2",0,-0.15,0,0.625,1.2,0.75,-0.45,-0.375,0.15
"p301","left_right_width","initial",24,3,3,0.714453099993989,1.1,0.4,0.2,0.35,1.00428380002268,2.6,"exp2",0,-0.2,0,0.5,1.2,0.6,-0.6,-0.5,0.2
"p301","left_right_width","initial",25,3,3,0.726665199967101,1.1,0.55,0.35,0.25,1.03286360000493,2.75,"exp2",0,-0.2,0,0.636363636363636,1.65,1.05,-0.6,-0.363636363636364,0.2
"p301","left_right_width","initial",26,5,4,0.755481400003191,0.7,0.25,0.2,0.55,2.08330490003573,3.05,"exp2",-1,-0.0499999999999999,-0.2,0.8,1.25,0.8,-0.45,-0.2,0.0499999999999999
"p301","left_right_width","initial",27,3,3,0.873912700044457,0.7,0.55,0.35,0.3,1.17411189997802,1.95,"exp2",0,-0.2,0,0.636363636363636,1.65,1.05,-0.6,-0.363636363636364,0.2
"p301","left_right_width","match",28,5,4,0.969464299967512,0.825,0.25,0.2,0.25,1.05743530002655,3.55,"exp2",-1,-0.05,-0.2,0.8,1.25,0.8,-0.45,-0.2,0.05
"p301","left_right_width","initial",29,3,3,0.670707399956882,1.1,0.25,0.2,0.55,1.81045320001431,2.45,"exp2",0,-0.0499999999999999,0,0.8,0.75,0.6,-0.15,-0.2,0.0499999999999999
"p301","left_right_width","initial",30,3,3,0.766115200007334,0.7,0.25,0.15,0.2,0.925975499965716,1.65,"exp2",0,-0.1,0,0.6,0.75,0.45,-0.3,-0.4,0.1
"p301","left_right_width","initial",31,4,4,0.588085199997295,0.7,0.4,0.2,0.3,1.18686129996786,2.5,"exp2",0,-0.2,0,0.5,1.6,0.8,-0.8,-0.5,0.2
"p301","left_right_width","match",32,5,4,0.63473220000742,0.8625,0.25,0.15,0.3,1.00737010000739,3.7,"exp2",-1,-0.1,-0.2,0.6,1.25,0.6,-0.65,-0.4,0.1
"p301","left_right_width","match",33,3,3,0.587013000040315,1.4,0.55,0.4,0.55,1.23491940001259,3.35,"exp2",0,-0.15,0,0.727272727272727,1.65,1.2,-0.45,-0.272727272727273,0.15
"p301","left_right_width","match",34,4,3,0.73451079998631,0.733333333333333,0.25,0.2,0.25,0.751218000019435,2.45,"exp2",-1,-0.05,-0.25,0.8,1,0.6,-0.4,-0.2,0.05
"p301","left_right_width","initial",35,5,4,0.663257099979091,1.1,0.25,0.15,0.25,0.796215899987146,4.65,"exp2",-1,-0.1,-0.2,0.6,1.25,0.6,-0.65,-0.4,0.1
"p301","left_right_width","initial",36,5,4,0.584860600007232,0.7,0.4,0.35,0.45,1.20091710000997,3.2,"exp2",-1,-0.05,-0.2,0.875,2,1.4,-0.6,-0.125,0.05
"p301","left_right_width","initial",37,5,4,0.643497199984267,0.7,0.55,0.4,0.55,1.24096359999385,3.35,"exp2",-1,-0.15,-0.2,0.727272727272727,2.75,1.6,-1.15,-0.272727272727273,0.15
"p301","left_right_width","initial",38,4,4,0.511332699970808,1.1,0.4,0.25,0.2,1.22712930000853,3.7,"exp2",0,-0.15,0,0.625,1.6,1,-0.6,-0.375,0.15
"p301","left_right_width","initial",39,3,3,0.673497900017537,0.9,0.4,0.3,0.5,1.0290101999999,2.2,"exp2",0,-0.1,0,0.75,1.2,0.9,-0.3,-0.25,0.1
"p301","left_right_width","match",40,3,3,0.62884339998709,1.4,0.25,0.2,0.3,0.827138900000136,3.05,"exp2",0,-0.05,0,0.8,0.75,0.6,-0.15,-0.2,0.05
"p301","left_right_width","match",41,3,3,0.57276719994843,1.8,0.4,0.25,0.55,1.74878240004182,4,"exp2",0,-0.15,0,0.625,1.2,0.75,-0.45,-0.375,0.15
"p301","left_right_width","match",42,4,3,1.186281399976,0.6,0.55,0.4,0.45,1.20113790000323,2.35,"exp2",-1,-0.15,-0.25,0.727272727272727,2.2,1.2,-1,-0.272727272727273,0.15
"p301","left_right_width","initial",43,5,4,0.731178099988028,0.9,0.55,0.35,0.45,1.27714050002396,4.15,"exp2",-1,-0.2,-0.2,0.636363636363636,2.75,1.4,-1.35,-0.363636363636364,0.2
"p301","left_right_width","initial",44,4,3,1.85723799996777,0.7,0.25,0.25,0.3,0.853218799980823,2.35,"exp2",-1,0,-0.25,1,1,0.75,-0.25,0,0
"p301","left_right_width","initial",45,4,4,1.0353490000125,0.9,0.4,0.3,0.45,1.12199850002071,3.1,"exp2",0,-0.1,0,0.75,1.6,1.2,-0.4,-0.25,0.1
"p301","left_right_width","match",46,3,3,0.669144499988761,2.2,0.55,0.4,0.3,2.61024349997751,4.95,"exp2",0,-0.15,0,0.727272727272727,1.65,1.2,-0.45,-0.272727272727273,0.15
"p301","left_right_width","match",47,4,3,1.13290159997996,0.783333333333333,0.25,0.2,0.4,1.23076399997808,2.6,"exp2",-1,-0.0499999999999999,-0.25,0.8,1,0.6,-0.4,-0.2,0.0499999999999999
"p301","left_right_width","initial",48,4,3,0.624660699977539,0.9,0.55,0.3,0.25,1.62274329998763,3.25,"exp2",-1,-0.25,-0.25,0.545454545454545,2.2,0.9,-1.3,-0.454545454545455,0.25
"p301","left_right_width","initial",49,5,4,0.812897900003009,0.9,0.4,0.3,0.35,1.64191130001564,4,"exp2",-1,-0.1,-0.2,0.75,2,1.2,-0.8,-0.25,0.1
"p301","left_right_width","match",50,5,4,0.95398460002616,0.825,0.55,0.35,0.25,1.41094030003296,3.85,"exp2",-1,-0.2,-0.2,0.636363636363636,2.75,1.4,-1.35,-0.363636363636364,0.2
"p301","left_right_width","match",51,4,4,0.795886799984146,0.6,0.25,0.2,0.4,1.22718340001302,2.05,"exp2",0,-0.0499999999999999,0,0.8,1,0.8,-0.2,-0.2,0.0499999999999999
"p301","left_right_width","initial",52,3,3,0.560983900038991,0.9,0.55,0.35,0.5,1.27310649998253,2.35,"exp2",0,-0.2,0,0.636363636363636,1.65,1.05,-0.6,-0.363636363636364,0.2
"p301","left_right_width","initial",1,3,3,1.24641699995846,1.1,0.55,0.4,0.55,2.09040009998716,2.75,"exp2",0,-0.15,0,0.727272727272727,1.65,1.2,-0.45,-0.272727272727273,0.15
"p301","left_right_width","initial",2,5,3,1.22418950003339,0.9,0.4,0.25,0.25,1.20575850002933,4,"exp2",-2,-0.15,-0.4,0.625,2,0.75,-1.25,-0.375,0.15
"p301","left_right_width","match",3,4,4,1.16422560001956,0.6,0.25,0.25,0.55,1.58068519999506,2.05,"exp2",0,5.55111512312578e-17,0,1,1,1,2.22044604925031e-16,2.22044604925031e-16,5.55111512312578e-17
"p301","left_right_width","match",4,3,2,2.25100819999352,2.2,0.25,0.3,0.55,3.07152900000801,4.65,"exp2",-1,0.05,-0.333333333333333,1.2,0.75,0.6,-0.15,0.2,0.05
"p301","left_right_width","match",5,3,3,0.58505699998932,1.8,0.55,0.3,0.4,1.10298530000728,4.15,"exp2",0,-0.25,0,0.545454545454546,1.65,0.9,-0.75,-0.454545454545455,0.25
"p301","left_right_width","initial",6,5,4,1.09859459998552,1.1,0.55,0.35,0.55,1.51784610003233,4.95,"exp2",-1,-0.2,-0.2,0.636363636363636,2.75,1.4,-1.35,-0.363636363636364,0.2
"p301","left_right_width","initial",7,4,3,1.61858189996565,0.7,0.25,0.35,0.55,1.80775420001009,2.35,"exp2",-1,0.1,-0.25,1.4,1,1.05,0.05,0.4,0.1
"p301","left_right_width","match",8,3,3,1.75165200000629,1.8,0.25,0.25,0.55,2.19340940000257,3.85,"exp2",0,5.55111512312578e-17,0,1,0.75,0.75,2.22044604925031e-16,2.22044604925031e-16,5.55111512312578e-17
"p301","left_right_width","initial",9,5,4,1.81831460003741,0.7,0.4,0.45,0.55,1.50370739999926,3.2,"exp2",-1,0.05,-0.2,1.125,2,1.8,-0.2,0.125,0.05
"p301","left_right_width","initial",10,4,3,1.14666949998355,0.7,0.55,0.3,0.4,1.21138589998009,2.65,"exp2",-1,-0.25,-0.25,0.545454545454546,2.2,0.9,-1.3,-0.454545454545455,0.25
"p301","left_right_width","initial",11,3,3,1.27911970001878,0.9,0.25,0.2,0.25,1.24250240001129,2.05,"exp2",0,-0.05,0,0.8,0.75,0.6,-0.15,-0.2,0.05
"p301","left_right_width","match",12,4,3,0.96995609998703,0.466666666666667,0.4,0.3,0.3,2.08276100002695,1.8,"exp2",-1,-0.1,-0.25,0.75,1.6,0.9,-0.7,-0.25,0.1
"p301","left_right_width","initial",13,3,3,0.615432700025849,1.1,0.25,0.15,0.2,1.08604139997624,2.45,"exp2",0,-0.1,0,0.6,0.75,0.45,-0.3,-0.4,0.1
"p301","left_right_width","initial",14,5,4,0.965801700018346,0.9,0.25,0.15,0.4,1.82281939999666,3.85,"exp2",-1,-0.0999999999999999,-0.2,0.6,1.25,0.6,-0.65,-0.4,0.0999999999999999
"p301","left_right_width","match",15,5,5,2.15940760000376,0.525,0.4,0.25,0.35,1.83197930001188,2.5,"exp2",0,-0.15,0,0.625,2,1.25,-0.75,-0.375,0.15
"p301","left_right_width","match",16,5,3,0.682797700050287,0.825,0.55,0.3,0.4,4.12787789996946,3.85,"exp2",-2,-0.25,-0.4,0.545454545454546,2.75,0.9,-1.85,-0.454545454545455,0.25
"p301","left_right_width","match",17,5,4,1.25944629998412,0.675,0.55,0.3,0.5,1.7196840000106,3.25,"exp2",-1,-0.25,-0.2,0.545454545454546,2.75,1.2,-1.55,-0.454545454545455,0.25
"p301","left_right_width","match",18,5,4,0.976788100029808,0.525,0.25,0.2,0.25,1.01629930001218,2.35,"exp2",-1,-0.05,-0.2,0.8,1.25,0.8,-0.45,-0.2,0.05
"p301","left_right_width","match",19,3,3,1.03690010000719,1.475,0.25,0.25,0.45,1.23496549995616,3.2,"exp2",0,5.55111512312578e-17,0,1,0.75,0.75,2.22044604925031e-16,2.22044604925031e-16,5.55111512312578e-17
"p301","left_right_width","initial",20,3,3,0.53008590004174,0.7,0.4,0.3,0.25,1.34013359999517,1.8,"exp2",0,-0.1,0,0.75,1.2,0.9,-0.3,-0.25,0.1
"p301","left_right_width","match",21,3,3,0.606013800017536,1.4,0.25,0.15,0.3,1.49357990000863,3.05,"exp2",0,-0.1,0,0.6,0.75,0.45,-0.3,-0.4,0.1
"p301","left_right_width","initial",22,5,4,0.778612499998417,0.9,0.55,0.3,0.25,1.35484210000141,4.15,"exp2",-1,-0.25,-0.2,0.545454545454545,2.75,1.2,-1.55,-0.454545454545455,0.25
"p301","left_right_width","match",23,3,3,0.504005700000562,2.2,0.55,0.3,0.5,1.52208550000796,4.95,"exp2",0,-0.25,0,0.545454545454546,1.65,0.9,-0.75,-0.454545454545455,0.25
"p301","left_right_width","match",24,5,4,1.33562580001308,0.8625,0.25,0.15,0.25,1.04214119998505,3.7,"exp2",-1,-0.1,-0.2,0.6,1.25,0.6,-0.65,-0.4,0.1
"p301","left_right_width","match",25,5,4,0.936881300003733,0.825,0.25,0.15,0.2,1.01028909999877,3.55,"exp2",-1,-0.1,-0.2,0.6,1.25,0.6,-0.65,-0.4,0.1
"p301","left_right_width","match",26,4,3,1.05229890003102,0.6,0.55,0.3,0.4,1.2494885000051,2.35,"exp2",-1,-0.25,-0.25,0.545454545454546,2.2,0.9,-1.3,-0.454545454545455,0.25
"p301","left_right_width","initial",27,3,3,0.525567799981218,0.9,0.4,0.35,0.45,1.15910869999789,2.2,"exp2",0,-0.05,0,0.875,1.2,1.05,-0.15,-0.125,0.05
"p301","left_right_width","initial",28,4,4,0.713787399989087,1.1,0.25,0.35,0.55,1.41986429999815,3.55,"exp2",0,0.1,0,1.4,1,1.4,0.4,0.4,0.1
"p301","left_right_width","initial",29,5,4,1.0677761999541,1.1,0.25,0.2,0.5,1.82488089997787,4.65,"exp2",-1,-0.0499999999999999,-0.2,0.8,1.25,0.8,-0.45,-0.2,0.0499999999999999
"p301","left_right_width","initial",30,3,3,0.623948899970856,0.9,0.55,0.25,0.35,1.01430310000433,2.35,"exp2",0,-0.3,0,0.454545454545455,1.65,0.75,-0.9,-0.545454545454546,0.3
"p301","left_right_width","initial",31,3,3,1.00743469997542,0.7,0.55,0.3,0.3,1.20537280000281,1.95,"exp2",0,-0.25,0,0.545454545454545,1.65,0.9,-0.75,-0.454545454545455,0.25
"p301","left_right_width","initial",32,5,4,0.729032000002917,0.7,0.25,0.2,0.45,1.62536390003515,3.05,"exp2",-1,-0.0499999999999999,-0.2,0.8,1.25,0.8,-0.45,-0.2,0.0499999999999999
"p301","left_right_width","initial",33,4,4,0.634404300013557,0.9,0.4,0.3,0.55,1.3122585999663,3.1,"exp2",0,-0.1,0,0.75,1.6,1.2,-0.4,-0.25,0.1
"p301","left_right_width","match",34,4,4,0.55691189999925,0.6,0.4,0.25,0.3,1.18876430002274,2.2,"exp2",0,-0.15,0,0.625,1.6,1,-0.6,-0.375,0.15
"p301","left_right_width","initial",35,4,4,0.590504599967971,0.9,0.55,0.3,0.35,0.918287300039083,3.25,"exp2",0,-0.25,0,0.545454545454545,2.2,1.2,-1,-0.454545454545455,0.25
"p301","left_right_width","match",36,3,3,0.530006300017703,1.8,0.4,0.35,0.5,1.18016350001562,4,"exp2",0,-0.05,0,0.875,1.2,1.05,-0.15,-0.125,0.05
"p301","left_right_width","initial",37,4,4,0.636761900037527,1.1,0.4,0.25,0.45,1.18682000000263,3.7,"exp2",0,-0.15,0,0.625,1.6,1,-0.6,-0.375,0.15
"p301","left_right_width","match",38,3,3,1.01282980001997,2.2,0.4,0.25,0.45,1.25938740000129,4.8,"exp2",0,-0.15,0,0.625,1.2,0.75,-0.45,-0.375,0.15
"p301","left_right_width","match",39,5,4,0.768820500001311,0.675,0.4,0.25,0.4,0.99426319997292,3.1,"exp2",-1,-0.15,-0.2,0.625,2,1,-1,-0.375,0.15
"p301","left_right_width","initial",40,5,4,0.64753960003145,0.7,0.55,0.3,0.4,1.09935830003815,3.35,"exp2",-1,-0.25,-0.2,0.545454545454546,2.75,1.2,-1.55,-0.454545454545455,0.25
"p301","left_right_width","initial",41,3,3,0.56144400004996,0.7,0.25,0.3,0.5,1.24134059995413,1.65,"exp2",0,0.05,0,1.2,0.75,0.9,0.15,0.2,0.05
"p301","left_right_width","match",42,4,4,0.677996899990831,0.733333333333333,0.25,0.2,0.2,1.17737820005277,2.45,"exp2",0,-0.05,0,0.8,1,0.8,-0.2,-0.2,0.05
"p301","left_right_width","match",43,4,4,0.692311999970116,0.466666666666667,0.25,0.15,0.25,1.44723109999904,1.65,"exp2",0,-0.1,0,0.6,1,0.6,-0.4,-0.4,0.1
"p301","left_right_width","initial",44,4,4,0.548453499970492,0.7,0.4,0.25,0.2,0.989907799987122,2.5,"exp2",0,-0.15,0,0.625,1.6,1,-0.6,-0.375,0.15
"p301","left_right_width","initial",45,4,4,0.605015100038145,0.9,0.25,0.25,0.45,1.1396051000338,2.95,"exp2",0,5.55111512312578e-17,0,1,1,1,2.22044604925031e-16,2.22044604925031e-16,5.55111512312578e-17
"p301","left_right_width","initial",46,4,4,0.552993400022388,1.1,0.55,0.25,0.2,1.50596620002761,3.85,"exp2",0,-0.3,0,0.454545454545455,2.2,1,-1.2,-0.545454545454546,0.3
"p301","left_right_width","match",47,3,2,1.08940990001429,1.4,0.55,0.45,0.45,1.38196110003628,3.35,"exp2",-1,-0.1,-0.333333333333333,0.818181818181818,1.65,0.9,-0.75,-0.181818181818182,0.1
"p301","left_right_width","initial",48,5,4,0.993519200012088,1.1,0.4,0.4,0.35,1.17722719995072,4.8,"exp2",-1,-5.55111512312578e-17,-0.2,1,2,1.6,-0.4,-1.38777878078145e-16,5.55111512312578e-17
"p301","left_right_width","match",49,4,3,0.755593499983661,0.783333333333333,0.25,0.3,0.25,1.0436522999662,2.6,"exp2",-1,0.05,-0.25,1.2,1,0.9,-0.1,0.2,0.05
"p301","left_right_width","match",50,4,4,0.711239299969748,0.733333333333333,0.55,0.3,0.2,1.5142182999989,2.75,"exp2",0,-0.25,0,0.545454545454545,2.2,1.2,-1,-0.454545454545455,0.25
"p301","left_right_width","match",51,5,4,0.742597099975683,0.675,0.25,0.2,0.2,1.17593580001267,2.95,"exp2",-1,-0.05,-0.2,0.8,1.25,0.8,-0.45,-0.2,0.05
"p301","left_right_width","initial",52,3,2,1.01788920001127,1.1,0.4,0.3,0.25,1.23185600002762,2.6,"exp2",-1,-0.1,-0.333333333333333,0.75,1.2,0.6,-0.6,-0.25,0.1
"p301","left_right_width","initial",1,5,4,0.804897899972275,1.1,0.55,0.35,0.45,1.21929339994676,4.95,"exp2",-1,-0.2,-0.2,0.636363636363636,2.75,1.4,-1.35,-0.363636363636364,0.2
"p301","left_right_width","initial",2,5,4,0.860096600023098,1.1,0.25,0.3,0.25,1.09690319997026,4.65,"exp2",-1,0.05,-0.2,1.2,1.25,1.2,-0.05,0.2,0.05
"p301","left_right_width","match",3,5,4,0.787703200010583,0.675,0.25,0.2,0.35,0.97849759995006,2.95,"exp2",-1,-0.05,-0.2,0.8,1.25,0.8,-0.45,-0.2,0.05
"p301","left_right_width","match",4,5,4,0.751763999985997,0.525,0.25,0.25,0.45,1.36004800000228,2.35,"exp2",-1,5.55111512312578e-17,-0.2,1,1.25,1,-0.25,2.22044604925031e-16,5.55111512312578e-17
"p301","left_right_width","initial",5,4,3,0.582297499990091,0.9,0.55,0.35,0.3,1.16588340001181,3.25,"exp2",-1,-0.2,-0.25,0.636363636363636,2.2,1.05,-1.15,-0.363636363636364,0.2
"p301","left_right_width","match",6,4,4,1.04919929994503,0.733333333333333,0.25,0.25,0.2,1.27889889996732,2.45,"exp2",0,0,0,1,1,1,0,0,0
"p301","left_right_width","initial",7,3,2,0.865752700017765,0.7,0.25,0.2,0.4,1.21544120000908,1.65,"exp2",-1,-0.0499999999999999,-0.333333333333333,0.8,0.75,0.4,-0.35,-0.2,0.0499999999999999
"p301","left_right_width","match",8,5,4,0.840049299993552,0.825,0.55,0.4,0.5,1.60485880001215,3.85,"exp2",-1,-0.15,-0.2,0.727272727272727,2.75,1.6,-1.15,-0.272727272727273,0.15
"p301","left_right_width","initial",9,3,2,0.814097599999513,0.7,0.55,0.4,0.55,1.24454880005214,1.95,"exp2",-1,-0.15,-0.333333333333333,0.727272727272727,1.65,0.8,-0.85,-0.272727272727273,0.15
"p301","left_right_width","initial",10,4,3,0.663638600031845,1.1,0.55,0.35,0.35,1.08508310001343,3.85,"exp2",-1,-0.2,-0.25,0.636363636363636,2.2,1.05,-1.15,-0.363636363636364,0.2
"p301","left_right_width","initial",11,3,2,0.834768900007475,1.1,0.55,0.35,0.25,1.40806229994632,2.75,"exp2",-1,-0.2,-0.333333333333333,0.636363636363636,1.65,0.7,-0.95,-0.363636363636364,0.2
"p301","left_right_width","initial",12,5,4,1.43922820000444,1.1,0.4,0.25,0.35,1.12547480000649,4.8,"exp2",-1,-0.15,-0.2,0.625,2,1,-1,-0.375,0.15
"p301","left_right_width","match",13,3,2,0.862834400031716,1.475,0.25,0.3,0.45,1.05163939995691,3.2,"exp2",-1,0.05,-0.333333333333333,1.2,0.75,0.6,-0.15,0.2,0.05
"p301","left_right_width","initial",14,4,3,0.686604999995325,0.7,0.4,0.3,0.4,1.82538579998072,2.5,"exp2",-1,-0.1,-0.25,0.75,1.6,0.9,-0.7,-0.25,0.1
"p301","left_right_width","match",15,4,3,0.607284499972593,0.6,0.4,0.3,0.3,1.49478950002231,2.2,"exp2",-1,-0.1,-0.25,0.75,1.6,0.9,-0.7,-0.25,0.1
"p301","left_right_width","initial",16,4,3,0.651423299976159,0.9,0.4,0.3,0.55,1.61594970000442,3.1,"exp2",-1,-0.1,-0.25,0.75,1.6,0.9,-0.7,-0.25,0.1
"p301","left_right_width","match",17,3,2,1.28258369996911,1.4,0.55,0.4,0.35,0.974975600023754,3.35,"exp2",-1,-0.15,-0.333333333333333,0.727272727272727,1.65,0.8,-0.85,-0.272727272727273,0.15
"p301","left_right_width","match",18,5,4,1.59211430000141,0.8625,0.25,0.25,0.35,0.999283799959812,3.7,"exp2",-1,0,-0.2,1,1.25,1,-0.25,0,0
"p301","left_right_width","match",19,4,3,0.594013700028881,0.733333333333333,0.55,0.3,0.2,1.6561640999862,2.75,"exp2",-1,-0.25,-0.25,0.545454545454545,2.2,0.9,-1.3,-0.454545454545455,0.25
"p301","left_right_width","initial",20,4,3,0.67986660002498,1.1,0.25,0.25,0.4,1.19557489996077,3.55,"exp2",-1,5.55111512312578e-17,-0.25,1,1,0.75,-0.25,2.22044604925031e-16,5.55111512312578e-17
"p301","left_right_width","initial",21,5,4,0.584066900017206,0.9,0.55,0.3,0.45,1.75948150001932,4.15,"exp2",-1,-0.25,-0.2,0.545454545454546,2.75,1.2,-1.55,-0.454545454545455,0.25
"p301","left_right_width","initial",22,3,3,0.666482699976768,1.1,0.4,0.3,0.2,1.59965689998353,2.6,"exp2",0,-0.1,0,0.75,1.2,0.9,-0.3,-0.25,0.1
"p301","left_right_width","match",23,4,3,0.668382199946791,0.6,0.55,0.4,0.55,1.18440969998483,2.35,"exp2",-1,-0.15,-0.25,0.727272727272727,2.2,1.2,-1,-0.272727272727273,0.15
"p301","left_right_width","match",24,3,3,1.45048490003683,1.8,0.4,0.25,0.4,1.1053425000282,4,"exp2",0,-0.15,0,0.625,1.2,0.75,-0.45,-0.375,0.15
"p301","left_right_width","initial",25,5,4,1.13683300005505,0.9,0.25,0.25,0.3,0.897911899955943,3.85,"exp2",-1,0,-0.2,1,1.25,1,-0.25,0,0
"p301","left_right_width","initial",26,4,3,0.641540300042834,0.7,0.55,0.4,0.35,1.15926610003226,2.65,"exp2",-1,-0.15,-0.25,0.727272727272727,2.2,1.2,-1,-0.272727272727273,0.15
"p301","left_right_width","initial",27,3,2,1.04933229996823,0.9,0.55,0.45,0.5,1.72686569998041,2.35,"exp2",-1,-0.1,-0.333333333333333,0.818181818181818,1.65,0.9,-0.75,-0.181818181818182,0.1
"p301","left_right_width","initial",28,5,4,1.09459589998005,0.7,0.4,0.3,0.25,1.17888379999204,3.2,"exp2",-1,-0.1,-0.2,0.75,2,1.2,-0.8,-0.25,0.1
"p301","left_right_width","initial",29,5,4,0.744548699993175,0.9,0.4,0.35,0.3,1.17803589999676,4,"exp2",-1,-0.05,-0.2,0.875,2,1.4,-0.6,-0.125,0.05
"p301","left_right_width","match",30,5,4,1.10569460003171,0.675,0.4,0.25,0.25,1.14026950002881,3.1,"exp2",-1,-0.15,-0.2,0.625,2,1,-1,-0.375,0.15
"p301","left_right_width","initial",31,3,3,0.973637900024187,0.7,0.4,0.25,0.2,1.01431140000932,1.8,"exp2",0,-0.15,0,0.625,1.2,0.75,-0.45,-0.375,0.15
"p301","left_right_width","match",32,3,3,1.61342559999321,2.2,0.4,0.3,0.25,1.18126260000281,4.8,"exp2",0,-0.1,0,0.75,1.2,0.9,-0.3,-0.25,0.1
"p301","left_right_width","match",33,4,3,2.02706370002124,0.466666666666667,0.25,0.25,0.35,2.00954419997288,1.65,"exp2",-1,0,-0.25,1,1,0.75,-0.25,0,0
"p301","left_right_width","match",34,3,3,0.751473299984355,2.2,0.25,0.2,0.3,1.00726830004714,4.65,"exp2",0,-0.05,0,0.8,0.75,0.6,-0.15,-0.2,0.05
"p301","left_right_width","match",35,4,3,1.00935470004333,0.466666666666667,0.4,0.3,0.25,0.903027099964675,1.8,"exp2",-1,-0.1,-0.25,0.75,1.6,0.9,-0.7,-0.25,0.1
"p301","left_right_width","match",36,3,3,0.746278800012078,1.8,0.55,0.25,0.35,1.24330570001621,4.15,"exp2",0,-0.3,0,0.454545454545455,1.65,0.75,-0.9,-0.545454545454546,0.3
"p301","left_right_width","match",37,3,3,1.20071479998296,2.2,0.55,0.25,0.3,1.08699919999344,4.95,"exp2",0,-0.3,0,0.454545454545455,1.65,0.75,-0.9,-0.545454545454546,0.3
"p301","left_right_width","match",38,5,4,0.682597300037742,0.825,0.25,0.25,0.55,1.59916299994802,3.55,"exp2",-1,5.55111512312578e-17,-0.2,1,1.25,1,-0.25,2.22044604925031e-16,5.55111512312578e-17
"p301","left_right_width","initial",39,5,4,0.599240700015798,0.7,0.25,0.15,0.25,0.876909299986437,3.05,"exp2",-1,-0.1,-0.2,0.6,1.25,0.6,-0.65,-0.4,0.1
"p301","left_right_width","match",40,3,3,1.19145240000216,1.4,0.25,0.25,0.5,1.70256140001584,3.05,"exp2",0,5.55111512312578e-17,0,1,0.75,0.75,2.22044604925031e-16,2.22044604925031e-16,5.55111512312578e-17
"p301","left_right_width","initial",41,4,3,0.560095500026364,0.9,0.25,0.15,0.25,0.856174599961378,2.95,"exp2",-1,-0.1,-0.25,0.6,1,0.45,-0.55,-0.4,0.1
"p301","left_right_width","initial",42,4,3,0.649709100020118,0.7,0.25,0.15,0.25,0.7974988000351,2.35,"exp2",-1,-0.1,-0.25,0.6,1,0.45,-0.55,-0.4,0.1
"p301","left_right_width","match",43,4,3,0.520035099994857,0.6,0.25,0.25,0.45,1.18479440000374,2.05,"exp2",-1,5.55111512312578e-17,-0.25,1,1,0.75,-0.25,2.22044604925031e-16,5.55111512312578e-17
"p301","left_right_width","initial",44,3,3,0.468021999986377,1.1,0.25,0.3,0.55,1.50276380003197,2.45,"exp2",0,0.05,0,1.2,0.75,0.9,0.15,0.2,0.05
"p301","left_right_width","match",45,4,3,0.649994100036565,0.783333333333333,0.25,0.2,0.5,1.61546260002069,2.6,"exp2",-1,-0.0499999999999999,-0.25,0.8,1,0.6,-0.4,-0.2,0.0499999999999999
"p301","left_right_width","initial",46,3,3,0.985090699978173,0.9,0.4,0.35,0.55,1.64668910001637,2.2,"exp2",0,-0.05,0,0.875,1.2,1.05,-0.15,-0.125,0.05
"p301","left_right_width","initial",47,3,2,1.06015370000387,0.9,0.25,0.25,0.55,1.91440210002474,2.05,"exp2",-1,5.55111512312578e-17,-0.333333333333333,1,0.75,0.5,-0.25,2.22044604925031e-16,5.55111512312578e-17
"p301","left_right_width","match",48,3,2,0.878880900039803,1.8,0.25,0.2,0.2,1.13011839997489,3.85,"exp2",-1,-0.05,-0.333333333333333,0.8,0.75,0.4,-0.35,-0.2,0.05
"p301","left_right_width","match",49,5,4,0.806321899988689,0.525,0.4,0.25,0.35,1.17291459999979,2.5,"exp2",-1,-0.15,-0.2,0.625,2,1,-1,-0.375,0.15
"p301","left_right_width","initial",50,5,4,0.695488400000613,0.7,0.55,0.35,0.35,1.41781050001737,3.35,"exp2",-1,-0.2,-0.2,0.636363636363636,2.75,1.4,-1.35,-0.363636363636364,0.2
"p301","left_right_width","match",51,5,4,0.670754600025248,0.675,0.55,0.3,0.3,1.13899569999194,3.25,"exp2",-1,-0.25,-0.2,0.545454545454545,2.75,1.2,-1.55,-0.454545454545455,0.25
"p301","left_right_width","initial",52,4,3,1.03262620000169,1.1,0.4,0.3,0.3,1.29451430001063,3.7,"exp2",-1,-0.1,-0.25,0.75,1.6,0.9,-0.7,-0.25,0.1
"p302","up_down_width","initial",1,5,5,1.11263650003821,1.1,0.25,0.3,0.55,3.75408360001165,4.65,"exp2",0,0.05,0,1.2,1.25,1.5,0.25,0.2,0.05
"p302","up_down_width","match",2,3,3,0.977251100004651,1.8,0.25,0.2,0.2,1.36977240000851,3.85,"exp2",0,-0.05,0,0.8,0.75,0.6,-0.15,-0.2,0.05
"p302","up_down_width","match",3,4,4,0.822312299977057,0.733333333333333,0.55,0.45,0.35,1.57078930002172,2.75,"exp2",0,-0.1,0,0.818181818181818,2.2,1.8,-0.4,-0.181818181818182,0.1
"p302","up_down_width","match",4,5,5,1.27236229996197,0.675,0.4,0.35,0.45,1.87526599998819,3.1,"exp2",0,-0.05,0,0.875,2,1.75,-0.25,-0.125,0.05
"p302","up_down_width","initial",5,4,4,0.976331299985759,0.9,0.55,0.45,0.45,1.33470619999571,3.25,"exp2",0,-0.1,0,0.818181818181818,2.2,1.8,-0.4,-0.181818181818182,0.1
"p302","up_down_width","match",6,5,5,0.917937899997924,0.675,0.25,0.25,0.25,1.39186570001766,2.95,"exp2",0,0,0,1,1.25,1.25,0,0,0
"p302","up_down_width","initial",7,5,5,1.24093359999824,0.9,0.55,0.4,0.25,2.74290359998122,4.15,"exp2",0,-0.15,0,0.727272727272727,2.75,2,-0.75,-0.272727272727273,0.15
"p302","up_down_width","match",8,3,3,0.936682100000326,2.2,0.55,0.45,0.35,2.19534450001083,4.95,"exp2",0,-0.1,0,0.818181818181818,1.65,1.35,-0.3,-0.181818181818182,0.1
"p302","up_down_width","initial",9,3,3,1.07431409996934,1.1,0.55,0.45,0.5,1.54261589999078,2.75,"exp2",0,-0.1,0,0.818181818181818,1.65,1.35,-0.3,-0.181818181818182,0.1
"p302","up_down_width","match",10,5,4,0.933605199970771,0.8625,0.25,0.3,0.5,1.59944300004281,3.7,"exp2",-1,0.05,-0.2,1.2,1.25,1.2,-0.0499999999999998,0.2,0.05
"p302","up_down_width","initial",11,3,3,0.945547699986491,1.1,0.25,0.25,0.45,2.44273529999191,2.45,"exp2",0,5.55111512312578e-17,0,1,0.75,0.75,2.22044604925031e-16,2.22044604925031e-16,5.55111512312578e-17
"p302","up_down_width","initial",12,3,3,0.857069200021215,0.9,0.55,0.45,0.35,2.11750310001662,2.35,"exp2",0,-0.1,0,0.818181818181818,1.65,1.35,-0.3,-0.181818181818182,0.1
"p302","up_down_width","initial",13,4,3,1.49155450001126,0.7,0.55,0.5,0.5,2.18292309995741,2.65,"exp2",-1,-0.05,-0.25,0.909090909090909,2.2,1.5,-0.7,-0.090909090909091,0.05
"p302","up_down_width","match",14,4,4,1.0646318999934,0.6,0.4,0.3,0.25,1.94965120003326,2.2,"exp2",0,-0.1,0,0.75,1.6,1.2,-0.4,-0.25,0.1
"p302","up_down_width","initial",15,4,5,1.47470160003286,0.7,0.4,0.4,0.45,2.16610380000202,2.5,"exp2",1,0,0.25,1,1.6,2,0.4,0,0
"p302","up_down_width","initial",16,5,5,0.961586599994916,0.9,0.4,0.4,0.5,1.76879860000918,4,"exp2",0,0,0,1,2,2,0,0,0
"p302","up_down_width","match",17,5,5,0.789727499999572,0.825,0.55,0.4,0.4,1.86090149998199,3.85,"exp2",0,-0.15,0,0.727272727272727,2.75,2,-0.75,-0.272727272727273,0.15
"p302","up_down_width","initial",18,4,4,1.2387436000281,0.9,0.25,0.2,0.25,1.14016220002668,2.95,"exp2",0,-0.05,0,0.8,1,0.8,-0.2,-0.2,0.05
"p302","up_down_width","initial",19,4,3,1.4320427000057,1.1,0.4,0.35,0.3,2.04623469995568,3.7,"exp2",-1,-0.05,-0.25,0.875,1.6,1.05,-0.55,-0.125,0.05
"p302","up_down_width","match",20,4,4,1.74189890001435,0.466666666666667,0.25,0.3,0.45,1.8155402999837,1.65,"exp2",0,0.05,0,1.2,1,1.2,0.2,0.2,0.05
"p302","up_down_width","initial",21,3,3,1.15949940000428,0.7,0.4,0.35,0.4,1.20740989997284,1.8,"exp2",0,-0.05,0,0.875,1.2,1.05,-0.15,-0.125,0.05
"p302","up_down_width","initial",22,5,4,1.44085419998737,0.7,0.55,0.5,0.45,2.08662720001303,3.35,"exp2",-1,-0.05,-0.2,0.909090909090909,2.75,2,-0.75,-0.090909090909091,0.05
"p302","up_down_width","match",23,3,3,1.097942399967,1.8,0.55,0.55,0.5,1.77339779998874,4.15,"exp2",0,0,0,1,1.65,1.65,0,0,0
"p302","up_down_width","match",24,3,3,1.17728350003017,1.8,0.4,0.3,0.35,3.97726700000931,4,"exp2",0,-0.1,0,0.75,1.2,0.9,-0.3,-0.25,0.1
"p302","up_down_width","initial",25,3,3,1.17455500003416,1.1,0.4,0.35,0.5,1.91156300000148,2.6,"exp2",0,-0.05,0,0.875,1.2,1.05,-0.15,-0.125,0.05
"p302","up_down_width","initial",26,3,3,1.54007509996882,0.9,0.4,0.35,0.4,2.26066489994992,2.2,"exp2",0,-0.05,0,0.875,1.2,1.05,-0.15,-0.125,0.05
"p302","up_down_width","match",27,3,3,1.03671449999092,2.2,0.4,0.35,0.2,2.29082729999209,4.8,"exp2",0,-0.05,0,0.875,1.2,1.05,-0.15,-0.125,0.05
"p302","up_down_width","initial",28,5,5,1.44953970005736,0.7,0.4,0.4,0.55,1.74353979999432,3.2,"exp2",0,0,0,1,2,2,0,0,0
"p302","up_down_width","initial",29,3,3,0.97122850001324,0.9,0.25,0.25,0.25,1.28302229999099,2.05,"exp2",0,0,0,1,0.75,0.75,0,0,0
"p302","up_down_width","initial",30,4,4,1.76197729998967,0.7,0.25,0.25,0.25,1.49927600001683,2.35,"exp2",0,0,0,1,1,1,0,0,0
"p302","up_down_width","match",31,5,5,0.701138499949593,0.825,0.25,0.25,0.2,2.09539649996441,3.55,"exp2",0,0,0,1,1.25,1.25,0,0,0
"p302","up_down_width","match",32,3,3,0.796812199987471,1.4,0.25,0.3,0.55,3.80339080002159,3.05,"exp2",0,0.05,0,1.2,0.75,0.9,0.15,0.2,0.05
"p302","up_down_width","initial",33,5,5,1.28082980000181,0.7,0.25,0.2,0.3,1.2456133000087,3.05,"exp2",0,-0.05,0,0.8,1.25,1,-0.25,-0.2,0.05
"p302","up_down_width","initial",34,4,4,0.91950670001097,0.9,0.4,0.35,0.45,1.73058420000598,3.1,"exp2",0,-0.05,0,0.875,1.6,1.4,-0.2,-0.125,0.05
"p302","up_down_width","match",35,5,5,0.649515200057067,0.525,0.25,0.25,0.25,2.01551930001006,2.35,"exp2",0,0,0,1,1.25,1.25,0,0,0
"p302","up_down_width","initial",36,4,3,0.999507099972107,1.1,0.55,0.5,0.2,1.98289129999466,3.85,"exp2",-1,-0.0500000000000001,-0.25,0.909090909090909,2.2,1.5,-0.7,-0.0909090909090911,0.0500000000000001
"p302","up_down_width","initial",37,5,4,0.797801700013224,1.1,0.55,0.5,0.25,1.75665190001018,4.95,"exp2",-1,-0.0500000000000001,-0.2,0.909090909090909,2.75,2,-0.75,-0.0909090909090911,0.0500000000000001
"p302","up_down_width","match",38,5,5,1.25601599999936,0.525,0.4,0.4,0.45,1.58754590002354,2.5,"exp2",0,0,0,1,2,2,0,0,0
"p302","up_down_width","match",39,5,4,1.22088120004628,0.675,0.55,0.45,0.25,1.77981530001853,3.25,"exp2",-1,-0.1,-0.2,0.818181818181818,2.75,1.8,-0.95,-0.181818181818182,0.1
"p302","up_down_width","initial",40,5,5,1.17159260000335,0.9,0.25,0.25,0.25,2.0034689999884,3.85,"exp2",0,0,0,1,1.25,1.25,0,0,0
"p302","up_down_width","match",41,4,4,0.730761000013445,0.783333333333333,0.25,0.3,0.55,2.15652010001941,2.6,"exp2",0,0.05,0,1.2,1,1.2,0.2,0.2,0.05
"p302","up_down_width","match",42,3,3,1.01589260000037,2.2,0.25,0.2,0.4,2.06159400002798,4.65,"exp2",0,-0.0499999999999999,0,0.8,0.75,0.6,-0.15,-0.2,0.0499999999999999
"p302","up_down_width","initial",43,3,3,1.23498619999737,0.7,0.55,0.45,0.25,1.8562927999883,1.95,"exp2",0,-0.1,0,0.818181818181818,1.65,1.35,-0.3,-0.181818181818182,0.1
"p302","up_down_width","initial",44,4,3,0.557525200012606,1.1,0.25,0.25,0.5,2.19965580001008,3.55,"exp2",-1,5.55111512312578e-17,-0.25,1,1,0.75,-0.25,2.22044604925031e-16,5.55111512312578e-17
"p302","up_down_width","match",45,3,3,0.976238699979149,1.475,0.25,0.3,0.55,2.83953470003325,3.2,"exp2",0,0.05,0,1.2,0.75,0.9,0.15,0.2,0.05
"p302","up_down_width","initial",46,5,4,0.695883199980017,1.1,0.4,0.45,0.55,1.85153839999111,4.8,"exp2",-1,0.05,-0.2,1.125,2,1.8,-0.2,0.125,0.05
"p302","up_down_width","match",47,4,3,1.16953800001647,0.733333333333333,0.25,0.3,0.45,3.61750049999682,2.45,"exp2",-1,0.05,-0.25,1.2,1,0.9,-0.0999999999999999,0.2,0.05
"p302","up_down_width","match",48,4,4,1.03819970000768,0.6,0.55,0.5,0.25,2.72392900002887,2.35,"exp2",0,-0.0500000000000001,0,0.909090909090909,2.2,2,-0.2,-0.0909090909090911,0.0500000000000001
"p302","up_down_width","match",49,4,4,1.01789669995196,0.6,0.25,0.35,0.45,1.39083730004495,2.05,"exp2",0,0.1,0,1.4,1,1.4,0.4,0.4,0.1
"p302","up_down_width","initial",50,3,3,1.07667059998494,0.7,0.25,0.25,0.2,2.05822810000973,1.65,"exp2",0,0,0,1,0.75,0.75,0,0,0
"p302","up_down_width","match",51,4,3,2.61840800003847,0.466666666666667,0.4,0.4,0.35,2.57605939998757,1.8,"exp2",-1,-5.55111512312578e-17,-0.25,1,1.6,1.2,-0.4,-1.38777878078145e-16,5.55111512312578e-17
"p302","up_down_width","match",52,3,3,0.832488299987745,1.4,0.55,0.55,0.25,2.43024240003433,3.35,"exp2",0,-1.11022302462516e-16,0,1,1.65,1.65,-2.22044604925031e-16,-2.01858731750028e-16,1.11022302462516e-16
"p302","up_down_width","initial",1,3,3,0.546788800042123,1.1,0.25,0.25,0.5,2.012692600023,2.45,"exp2",0,5.55111512312578e-17,0,1,0.75,0.75,2.22044604925031e-16,2.22044604925031e-16,5.55111512312578e-17
"p302","up_down_width","match",2,3,3,1.21369330002926,2.2,0.25,0.25,0.55,1.88423460000195,4.65,"exp2",0,5.55111512312578e-17,0,1,0.75,0.75,2.22044604925031e-16,2.22044604925031e-16,5.55111512312578e-17
"p302","up_down_width","initial",3,4,3,0.832979500002693,0.7,0.55,0.6,0.4,1.48761309997644,2.65,"exp2",-1,0.05,-0.25,1.09090909090909,2.2,1.8,-0.4,0.090909090909091,0.05
"p302","up_down_width","initial",4,3,3,0.852252399956342,0.9,0.4,0.5,0.5,1.20121840003412,2.2,"exp2",0,0.1,0,1.25,1.2,1.5,0.3,0.25,0.1
"p302","up_down_width","match",5,4,4,1.0661575999693,0.733333333333333,0.25,0.35,0.3,1.58332799997879,2.45,"exp2",0,0.1,0,1.4,1,1.4,0.4,0.4,0.1
"p302","up_down_width","match",6,5,5,0.814086699974723,0.675,0.4,0.4,0.45,1.18092399998568,3.1,"exp2",0,0,0,1,2,2,0,0,0
"p302","up_down_width","match",7,4,4,0.804114700003993,0.466666666666667,0.4,0.4,0.35,1.39561100001447,1.8,"exp2",0,-5.55111512312578e-17,0,1,1.6,1.6,-2.22044604925031e-16,-1.38777878078145e-16,5.55111512312578e-17
"p302","up_down_width","match",8,3,3,0.541458300023805,1.475,0.25,0.25,0.5,1.7359861000441,3.2,"exp2",0,5.55111512312578e-17,0,1,0.75,0.75,2.22044604925031e-16,2.22044604925031e-16,5.55111512312578e-17
"p302","up_down_width","initial",9,4,3,0.660625100019388,1.1,0.4,0.4,0.35,1.12986109999474,3.7,"exp2",-1,-5.55111512312578e-17,-0.25,1,1.6,1.2,-0.4,-1.38777878078145e-16,5.55111512312578e-17
"p302","up_down_width","initial",10,4,4,0.502090899972245,0.9,0.4,0.35,0.35,0.880626199999824,3.1,"exp2",0,-0.05,0,0.875,1.6,1.4,-0.2,-0.125,0.05
"p302","up_down_width","initial",11,3,3,0.731210400001146,0.9,0.25,0.3,0.4,2.33253269997658,2.05,"exp2",0,0.05,0,1.2,0.75,0.9,0.15,0.2,0.05
"p302","up_down_width","match",12,3,3,0.480792700021993,1.8,0.25,0.25,0.3,1.14846510003554,3.85,"exp2",0,0,0,1,0.75,0.75,0,0,0
"p302","up_down_width","match",13,5,4,0.535163399996236,0.825,0.55,0.4,0.35,1.32960890000686,3.85,"exp2",-1,-0.15,-0.2,0.727272727272727,2.75,1.6,-1.15,-0.272727272727273,0.15
"p302","up_down_width","initial",14,4,4,0.797315300034825,1.1,0.25,0.25,0.35,1.89999110001372,3.55,"exp2",0,0,0,1,1,1,0,0,0
"p302","up_down_width","match",15,4,4,0.707686400040984,0.6,0.4,0.45,0.55,1.55828860000474,2.2,"exp2",0,0.05,0,1.125,1.6,1.8,0.2,0.125,0.05
"p302","up_down_width","initial",16,5,3,1.29013900004793,0.9,0.4,0.35,0.4,2.24694510002155,4,"exp2",-2,-0.05,-0.4,0.875,2,1.05,-0.95,-0.125,0.05
"p302","up_down_width","match",17,3,3,0.568864300032146,2.2,0.55,0.45,0.3,1.76221170002827,4.95,"exp2",0,-0.1,0,0.818181818181818,1.65,1.35,-0.3,-0.181818181818182,0.1
"p302","up_down_width","match",18,4,4,0.708053099981043,0.466666666666667,0.25,0.35,0.55,1.79935950000072,1.65,"exp2",0,0.1,0,1.4,1,1.4,0.4,0.4,0.1
"p302","up_down_width","match",19,3,3,0.603949200012721,1.8,0.55,0.55,0.45,1.31520399998408,4.15,"exp2",0,0,0,1,1.65,1.65,0,0,0
"p302","up_down_width","initial",20,3,3,0.764151500014123,0.7,0.4,0.3,0.35,1.06753160001244,1.8,"exp2",0,-0.1,0,0.75,1.2,0.9,-0.3,-0.25,0.1
"p302","up_down_width","match",21,4,4,0.53947210003389,0.783333333333333,0.25,0.2,0.2,0.899483599991072,2.6,"exp2",0,-0.05,0,0.8,1,0.8,-0.2,-0.2,0.05
"p302","up_down_width","initial",22,4,4,0.502803799987305,0.7,0.4,0.3,0.25,1.18629209999926,2.5,"exp2",0,-0.1,0,0.75,1.6,1.2,-0.4,-0.25,0.1
"p302","up_down_width","match",23,5,5,0.761592199967708,0.8625,0.25,0.25,0.25,0.922767199983355,3.7,"exp2",0,0,0,1,1.25,1.25,0,0,0
"p302","up_down_width","initial",24,5,5,0.782576499972492,1.1,0.55,0.35,0.5,1.69491799996467,4.95,"exp2",0,-0.2,0,0.636363636363636,2.75,1.75,-1,-0.363636363636364,0.2
"p302","up_down_width","match",25,5,4,0.744218999985605,0.675,0.55,0.45,0.5,1.03268469998147,3.25,"exp2",-1,-0.1,-0.2,0.818181818181818,2.75,1.8,-0.95,-0.181818181818182,0.1
"p302","up_down_width","initial",26,3,3,0.482385299983434,1.1,0.55,0.45,0.3,1.56748239998706,2.75,"exp2",0,-0.1,0,0.818181818181818,1.65,1.35,-0.3,-0.181818181818182,0.1
"p302","up_down_width","initial",27,3,3,0.548098400002345,0.7,0.25,0.35,0.35,1.05302759999176,1.65,"exp2",0,0.1,0,1.4,0.75,1.05,0.3,0.4,0.1
"p302","up_down_width","match",28,5,5,1.01144829997793,0.675,0.25,0.35,0.35,0.82683979999274,2.95,"exp2",0,0.1,0,1.4,1.25,1.75,0.5,0.4,0.1
"p302","up_down_width","initial",29,4,4,0.465538799995556,0.7,0.25,0.35,0.55,1.80627360002836,2.35,"exp2",0,0.1,0,1.4,1,1.4,0.4,0.4,0.1
"p302","up_down_width","initial",30,3,3,0.879675200034399,0.7,0.55,0.5,0.5,1.33957159996498,1.95,"exp2",0,-0.05,0,0.909090909090909,1.65,1.5,-0.15,-0.090909090909091,0.05
"p302","up_down_width","initial",31,4,4,0.696953399979975,0.9,0.25,0.25,0.25,0.924991100037005,2.95,"exp2",0,0,0,1,1,1,0,0,0
"p302","up_down_width","initial",32,5,5,0.685495099984109,0.7,0.25,0.25,0.45,2.93028369999956,3.05,"exp2",0,5.55111512312578e-17,0,1,1.25,1.25,2.22044604925031e-16,2.22044604925031e-16,5.55111512312578e-17
"p302","up_down_width","initial",33,5,5,0.892786500044167,1.1,0.25,0.25,0.45,1.36883880000096,4.65,"exp2",0,5.55111512312578e-17,0,1,1.25,1.25,2.22044604925031e-16,2.22044604925031e-16,5.55111512312578e-17
"p302","up_down_width","initial",34,3,3,0.58086710004136,1.1,0.4,0.25,0.3,0.844733300036751,2.6,"exp2",0,-0.15,0,0.625,1.2,0.75,-0.45,-0.375,0.15
"p302","up_down_width","match",35,3,3,0.764667899988126,1.4,0.55,0.5,0.55,1.38952130003599,3.35,"exp2",0,-0.05,0,0.909090909090909,1.65,1.5,-0.15,-0.090909090909091,0.05
"p302","up_down_width","match",36,5,5,0.808537300035823,0.525,0.4,0.3,0.35,0.967335699999239,2.5,"exp2",0,-0.1,0,0.75,2,1.5,-0.5,-0.25,0.1
"p302","up_down_width","match",37,4,3,0.584577899950091,0.733333333333333,0.55,0.55,0.55,0.847611500008497,2.75,"exp2",-1,0,-0.25,1,2.2,1.65,-0.55,0,0
"p302","up_down_width","initial",38,3,3,0.734503499988932,0.9,0.55,0.55,0.25,1.95121959998505,2.35,"exp2",0,-1.11022302462516e-16,0,1,1.65,1.65,-2.22044604925031e-16,-2.01858731750028e-16,1.11022302462516e-16
"p302","up_down_width","initial",39,5,5,1.05816419998882,0.9,0.55,0.55,0.4,1.33595019998029,4.15,"exp2",0,0,0,1,2.75,2.75,0,0,0
"p302","up_down_width","initial",40,5,5,1.36602380004479,0.9,0.25,0.25,0.5,1.88512130000163,3.85,"exp2",0,5.55111512312578e-17,0,1,1.25,1.25,2.22044604925031e-16,2.22044604925031e-16,5.55111512312578e-17
"p302","up_down_width","initial",41,5,5,1.08735420001904,1.1,0.4,0.35,0.2,1.33019889995921,4.8,"exp2",0,-0.05,0,0.875,2,1.75,-0.25,-0.125,0.05
"p302","up_down_width","match",42,3,3,0.454103600000963,1.4,0.25,0.25,0.25,0.979375599999912,3.05,"exp2",0,0,0,1,0.75,0.75,0,0,0
"p302","up_down_width","match",43,3,3,0.562791600008495,2.2,0.4,0.3,0.35,1.80404260003706,4.8,"exp2",0,-0.1,0,0.75,1.2,0.9,-0.3,-0.25,0.1
"p302","up_down_width","initial",44,4,3,1.05093710002257,1.1,0.55,0.5,0.5,2.83148640004219,3.85,"exp2",-1,-0.05,-0.25,0.909090909090909,2.2,1.5,-0.7,-0.090909090909091,0.05
"p302","up_down_width","match",45,5,5,0.772792600037064,0.525,0.25,0.2,0.45,1.73220620001666,2.35,"exp2",0,-0.0499999999999999,0,0.8,1.25,1,-0.25,-0.2,0.0499999999999999
"p302","up_down_width","match",46,5,5,0.999313600012101,0.825,0.25,0.2,0.2,1.27801790001104,3.55,"exp2",0,-0.05,0,0.8,1.25,1,-0.25,-0.2,0.05
"p302","up_down_width","initial",47,5,4,1.19258159998572,0.7,0.55,0.4,0.25,1.35104799998226,3.35,"exp2",-1,-0.15,-0.2,0.727272727272727,2.75,1.6,-1.15,-0.272727272727273,0.15
"p302","up_down_width","initial",48,5,5,0.581320700002834,0.7,0.4,0.3,0.25,1.13290219998453,3.2,"exp2",0,-0.1,0,0.75,2,1.5,-0.5,-0.25,0.1
"p302","up_down_width","initial",49,4,3,0.620302000024822,0.9,0.55,0.5,0.45,0.995288099977188,3.25,"exp2",-1,-0.05,-0.25,0.909090909090909,2.2,1.5,-0.7,-0.090909090909091,0.05
"p302","up_down_width","match",50,3,3,0.444086099974811,1.8,0.4,0.35,0.2,1.94569010002306,4,"exp2",0,-0.05,0,0.875,1.2,1.05,-0.15,-0.125,0.05
"p302","up_down_width","match",51,4,4,0.451315100013744,0.6,0.25,0.25,0.4,1.32684789999621,2.05,"exp2",0,5.55111512312578e-17,0,1,1,1,2.22044604925031e-16,2.22044604925031e-16,5.55111512312578e-17
"p302","up_down_width","match",52,4,4,0.851155399985146,0.6,0.55,0.5,0.5,1.04082450002898,2.35,"exp2",0,-0.05,0,0.909090909090909,2.2,2,-0.2,-0.090909090909091,0.05
"p302","up_down_width","match",1,5,5,0.972309299977496,0.675,0.25,0.2,0.2,1.84474860003684,2.95,"exp2",0,-0.05,0,0.8,1.25,1,-0.25,-0.2,0.05
"p302","up_down_width","match",2,4,4,0.497522299992852,0.733333333333333,0.55,0.5,0.5,1.14966100000311,2.75,"exp2",0,-0.05,0,0.909090909090909,2.2,2,-0.2,-0.090909090909091,0.05
"p302","up_down_width","match",3,3,3,0.641432400036138,2.2,0.25,0.2,0.4,1.22387180000078,4.65,"exp2",0,-0.0499999999999999,0,0.8,0.75,0.6,-0.15,-0.2,0.0499999999999999
"p302","up_down_width","initial",4,5,5,0.742843999993056,0.9,0.25,0.25,0.5,1.36958230001619,3.85,"exp2",0,5.55111512312578e-17,0,1,1.25,1.25,2.22044604925031e-16,2.22044604925031e-16,5.55111512312578e-17
"p302","up_down_width","initial",5,3,3,0.644171499996446,1.1,0.55,0.45,0.2,1.44995720003499,2.75,"exp2",0,-0.1,0,0.818181818181818,1.65,1.35,-0.3,-0.181818181818182,0.1
"p302","up_down_width","match",6,3,3,0.579739800014067,2.2,0.4,0.3,0.2,1.30836539994925,4.8,"exp2",0,-0.1,0,0.75,1.2,0.9,-0.3,-0.25,0.1
"p302","up_down_width","initial",7,4,3,0.53829830000177,1.1,0.55,0.5,0.55,1.73259759997018,3.85,"exp2",-1,-0.05,-0.25,0.909090909090909,2.2,1.5,-0.7,-0.090909090909091,0.05
"p302","up_down_width","initial",8,5,5,0.688902000023518,0.9,0.55,0.5,0.2,1.79730509995716,4.15,"exp2",0,-0.0500000000000001,0,0.909090909090909,2.75,2.5,-0.25,-0.0909090909090911,0.0500000000000001
"p302","up_down_width","match",9,5,5,0.790062999993097,0.525,0.25,0.2,0.2,1.22266729996772,2.35,"exp2",0,-0.05,0,0.8,1.25,1,-0.25,-0.2,0.05
"p302","up_down_width","match",10,4,4,0.519588900031522,0.783333333333333,0.25,0.2,0.3,1.02585179999005,2.6,"exp2",0,-0.05,0,0.8,1,0.8,-0.2,-0.2,0.05
"p302","up_down_width","match",11,5,5,0.752966300002299,0.675,0.4,0.3,0.3,0.755329699954018,3.1,"exp2",0,-0.1,0,0.75,2,1.5,-0.5,-0.25,0.1
"p302","up_down_width","match",12,3,3,0.502213100029621,1.8,0.25,0.15,0.55,2.28974279999966,3.85,"exp2",0,-0.0999999999999999,0,0.6,0.75,0.45,-0.3,-0.4,0.0999999999999999
"p302","up_down_width","match",13,3,3,0.519104600010905,1.4,0.25,0.2,0.2,0.993584000039846,3.05,"exp2",0,-0.05,0,0.8,0.75,0.6,-0.15,-0.2,0.05
"p302","up_down_width","match",14,3,3,0.42229940003017,1.4,0.55,0.55,0.3,1.30086389998905,3.35,"exp2",0,-1.11022302462516e-16,0,1,1.65,1.65,-2.22044604925031e-16,-2.01858731750028e-16,1.11022302462516e-16
"p302","up_down_width","match",15,3,3,0.473461900022812,2.2,0.55,0.45,0.4,0.917508999991696,4.95,"exp2",0,-0.1,0,0.818181818181818,1.65,1.35,-0.3,-0.181818181818182,0.1
"p302","up_down_width","match",16,4,4,1.30076029995689,0.6,0.4,0.35,0.5,1.18295039999066,2.2,"exp2",0,-0.05,0,0.875,1.6,1.4,-0.2,-0.125,0.05
"p302","up_down_width","initial",17,3,3,0.488941100018565,1.1,0.4,0.35,0.3,1.01274620002368,2.6,"exp2",0,-0.05,0,0.875,1.2,1.05,-0.15,-0.125,0.05
"p302","up_down_width","initial",18,5,4,0.77358609996736,1.1,0.25,0.2,0.25,1.82825189997675,4.65,"exp2",-1,-0.05,-0.2,0.8,1.25,0.8,-0.45,-0.2,0.05
"p302","up_down_width","initial",19,4,4,0.639059700013604,0.9,0.4,0.35,0.2,1.37998090003384,3.1,"exp2",0,-0.05,0,0.875,1.6,1.4,-0.2,-0.125,0.05
"p302","up_down_width","initial",20,5,5,0.606642300030217,0.7,0.25,0.2,0.35,1.01227000000654,3.05,"exp2",0,-0.05,0,0.8,1.25,1,-0.25,-0.2,0.05
"p302","up_down_width","match",21,4,4,0.563493199995719,0.6,0.25,0.25,0.45,1.38828780001495,2.05,"exp2",0,5.55111512312578e-17,0,1,1,1,2.22044604925031e-16,2.22044604925031e-16,5.55111512312578e-17
"p302","up_down_width","initial",22,3,3,0.87826240004506,0.7,0.55,0.45,0.4,1.05065210000612,1.95,"exp2",0,-0.1,0,0.818181818181818,1.65,1.35,-0.3,-0.181818181818182,0.1
"p302","up_down_width","initial",23,4,3,0.528778499981854,0.7,0.55,0.55,0.2,1.81847699999344,2.65,"exp2",-1,-1.11022302462516e-16,-0.25,1,2.2,1.65,-0.55,-2.01858731750028e-16,1.11022302462516e-16
"p302","up_down_width","match",24,5,4,0.617799900006503,0.525,0.4,0.45,0.35,0.927118999999948,2.5,"exp2",-1,0.0499999999999999,-0.2,1.125,2,1.8,-0.2,0.125,0.0499999999999999
"p302","up_down_width","initial",25,3,3,0.523321800050326,1.1,0.25,0.2,0.5,1.46087419998366,2.45,"exp2",0,-0.0499999999999999,0,0.8,0.75,0.6,-0.15,-0.2,0.0499999999999999
"p302","up_down_width","match",26,4,3,0.55611989996396,0.733333333333333,0.25,0.15,0.5,2.88432240003021,2.45,"exp2",-1,-0.0999999999999999,-0.25,0.6,1,0.45,-0.55,-0.4,0.0999999999999999
"p302","up_down_width","initial",27,5,4,0.729306699999142,0.7,0.55,0.55,0.45,1.09845059999498,3.35,"exp2",-1,0,-0.2,1,2.75,2.2,-0.55,0,0
"p302","up_down_width","initial",28,5,5,0.662803399958648,1.1,0.55,0.5,0.45,1.16445569996722,4.95,"exp2",0,-0.05,0,0.909090909090909,2.75,2.5,-0.25,-0.090909090909091,0.05
"p302","up_down_width","match",29,3,3,0.52340639999602,1.475,0.25,0.25,0.25,0.997670999960974,3.2,"exp2",0,0,0,1,0.75,0.75,0,0,0
"p302","up_down_width","match",30,4,4,0.725506499991752,0.6,0.55,0.55,0.35,1.20839949999936,2.35,"exp2",0,-1.11022302462516e-16,0,1,2.2,2.2,-4.44089209850063e-16,-2.01858731750028e-16,1.11022302462516e-16
"p302","up_down_width","initial",31,5,5,0.856159399962053,1.1,0.4,0.4,0.35,1.04490239999723,4.8,"exp2",0,-5.55111512312578e-17,0,1,2,2,-2.22044604925031e-16,-1.38777878078145e-16,5.55111512312578e-17
"p302","up_down_width","match",32,5,5,0.568498699984048,0.8625,0.25,0.3,0.5,1.42494210001314,3.7,"exp2",0,0.05,0,1.2,1.25,1.5,0.25,0.2,0.05
"p302","up_down_width","match",33,3,3,0.570924600004219,1.8,0.55,0.45,0.4,1.42695880000247,4.15,"exp2",0,-0.1,0,0.818181818181818,1.65,1.35,-0.3,-0.181818181818182,0.1
"p302","up_down_width","initial",34,5,5,0.588913100014906,0.7,0.4,0.4,0.5,1.06022609997308,3.2,"exp2",0,0,0,1,2,2,0,0,0
"p302","up_down_width","initial",35,3,3,0.493118800048251,0.9,0.4,0.4,0.35,0.919431399961468,2.2,"exp2",0,-5.55111512312578e-17,0,1,1.2,1.2,-2.22044604925031e-16,-1.38777878078145e-16,5.55111512312578e-17
"p302","up_down_width","match",36,4,4,0.662707999988925,0.466666666666667,0.25,0.3,0.35,0.986823599960189,1.65,"exp2",0,0.05,0,1.2,1,1.2,0.2,0.2,0.05
"p302","up_down_width","initial",37,5,5,0.523111600021366,0.9,0.4,0.3,0.4,0.900014500017278,4,"exp2",0,-0.1,0,0.75,2,1.5,-0.5,-0.25,0.1
"p302","up_down_width","match",38,3,3,0.430043399974238,1.8,0.4,0.3,0.4,1.08398369996576,4,"exp2",0,-0.1,0,0.75,1.2,0.9,-0.3,-0.25,0.1
"p302","up_down_width","initial",39,4,4,0.442350100027397,1.1,0.4,0.3,0.35,0.758962400024757,3.7,"exp2",0,-0.1,0,0.75,1.6,1.2,-0.4,-0.25,0.1
"p302","up_down_width","match",40,4,4,0.648924700042699,0.466666666666667,0.4,0.35,0.45,1.43869670003187,1.8,"exp2",0,-0.05,0,0.875,1.6,1.4,-0.2,-0.125,0.05
"p302","up_down_width","match",41,5,4,0.758038899977691,0.825,0.25,0.25,0.25,0.775120300007984,3.55,"exp2",-1,0,-0.2,1,1.25,1,-0.25,0,0
"p302","up_down_width","match",42,5,4,0.811554000014439,0.675,0.55,0.45,0.3,1.16220660001272,3.25,"exp2",-1,-0.1,-0.2,0.818181818181818,2.75,1.8,-0.95,-0.181818181818182,0.1
"p302","up_down_width","match",43,5,4,0.651993999956176,0.825,0.55,0.45,0.35,1.12075540004298,3.85,"exp2",-1,-0.1,-0.2,0.818181818181818,2.75,1.8,-0.95,-0.181818181818182,0.1
"p302","up_down_width","initial",44,4,4,0.620145199995022,0.9,0.55,0.45,0.3,1.2827501000138,3.25,"exp2",0,-0.1,0,0.818181818181818,2.2,1.8,-0.4,-0.181818181818182,0.1
"p302","up_down_width","initial",45,4,4,0.615923699981067,0.9,0.25,0.2,0.3,1.05422910000198,2.95,"exp2",0,-0.05,0,0.8,1,0.8,-0.2,-0.2,0.05
"p302","up_down_width","initial",46,4,4,0.875442999997176,0.7,0.4,0.3,0.25,0.904152100032661,2.5,"exp2",0,-0.1,0,0.75,1.6,1.2,-0.4,-0.25,0.1
"p302","up_down_width","initial",47,4,3,0.597126399981789,1.1,0.25,0.25,0.45,1.41989369998919,3.55,"exp2",-1,5.55111512312578e-17,-0.25,1,1,0.75,-0.25,2.22044604925031e-16,5.55111512312578e-17
"p302","up_down_width","initial",48,3,3,0.576389900001232,0.9,0.25,0.15,0.35,1.22483510000166,2.05,"exp2",0,-0.1,0,0.6,0.75,0.45,-0.3,-0.4,0.1
"p302","up_down_width","initial",49,3,3,0.446248700027354,0.7,0.25,0.15,0.2,0.747613099985756,1.65,"exp2",0,-0.1,0,0.6,0.75,0.45,-0.3,-0.4,0.1
"p302","up_down_width","initial",50,3,3,0.891726100002415,0.9,0.55,0.45,0.5,1.31762990000425,2.35,"exp2",0,-0.1,0,0.818181818181818,1.65,1.35,-0.3,-0.181818181818182,0.1
"p302","up_down_width","initial",51,3,3,0.490275499993004,0.7,0.4,0.35,0.4,0.774491500051226,1.8,"exp2",0,-0.05,0,0.875,1.2,1.05,-0.15,-0.125,0.05
"p302","up_down_width","initial",52,4,4,0.430610100040212,0.7,0.25,0.25,0.35,1.13279319996946,2.35,"exp2",0,0,0,1,1,1,0,0,0
"p302","up_down_width","match",1,3,3,0.509122100018431,1.8,0.4,0.25,0.35,1.19086430000607,4,"exp2",0,-0.15,0,0.625,1.2,0.75,-0.45,-0.375,0.15
"p302","up_down_width","initial",2,4,3,0.494786700000986,1.1,0.55,0.4,0.5,1.91291010001441,3.85,"exp2",-1,-0.15,-0.25,0.727272727272727,2.2,1.2,-1,-0.272727272727273,0.15
"p302","up_down_width","match",3,5,4,0.4356187999947,0.825,0.55,0.5,0.5,0.866050500015263,3.85,"exp2",-1,-0.05,-0.2,0.909090909090909,2.75,2,-0.75,-0.090909090909091,0.05
"p302","up_down_width","initial",4,3,3,0.520149799995124,0.7,0.4,0.3,0.25,1.25144349999027,1.8,"exp2",0,-0.1,0,0.75,1.2,0.9,-0.3,-0.25,0.1
"p302","up_down_width","initial",5,3,3,0.489414800016675,0.7,0.55,0.4,0.2,1.20550849998835,1.95,"exp2",0,-0.15,0,0.727272727272727,1.65,1.2,-0.45,-0.272727272727273,0.15
"p302","up_down_width","initial",6,5,5,0.629069700022228,0.7,0.4,0.3,0.25,0.955438900040463,3.2,"exp2",0,-0.1,0,0.75,2,1.5,-0.5,-0.25,0.1
"p302","up_down_width","match",7,3,3,0.418127099983394,2.2,0.25,0.25,0.45,1.51881039998261,4.65,"exp2",0,5.55111512312578e-17,0,1,0.75,0.75,2.22044604925031e-16,2.22044604925031e-16,5.55111512312578e-17
"p302","up_down_width","initial",8,4,4,0.698894599976484,0.7,0.4,0.4,0.45,1.85563569999067,2.5,"exp2",0,0,0,1,1.6,1.6,0,0,0
"p302","up_down_width","match",9,4,4,0.493955700017978,0.466666666666667,0.25,0.25,0.45,1.30414170003496,1.65,"exp2",0,5.55111512312578e-17,0,1,1,1,2.22044604925031e-16,2.22044604925031e-16,5.55111512312578e-17
"p302","up_down_width","match",10,4,4,0.968326299975161,0.466666666666667,0.4,0.3,0.35,0.816347300016787,1.8,"exp2",0,-0.1,0,0.75,1.6,1.2,-0.4,-0.25,0.1
"p302","up_down_width","initial",11,3,3,0.598557299992535,1.1,0.25,0.2,0.4,1.56614920002175,2.45,"exp2",0,-0.0499999999999999,0,0.8,0.75,0.6,-0.15,-0.2,0.0499999999999999
"p302","up_down_width","initial",12,5,4,0.502257200016174,1.1,0.55,0.4,0.25,1.29620650003199,4.95,"exp2",-1,-0.15,-0.2,0.727272727272727,2.75,1.6,-1.15,-0.272727272727273,0.15
"p302","up_down_width","initial",13,4,4,0.387569400016218,0.9,0.55,0.45,0.55,0.96352469996782,3.25,"exp2",0,-0.1,0,0.818181818181818,2.2,1.8,-0.4,-0.181818181818182,0.1
"p302","up_down_width","initial",14,4,4,0.464517599961255,0.9,0.4,0.3,0.2,1.10081179998815,3.1,"exp2",0,-0.1,0,0.75,1.6,1.2,-0.4,-0.25,0.1
"p302","up_down_width","initial",15,4,3,0.482679699955042,1.1,0.4,0.4,0.5,1.13493960001506,3.7,"exp2",-1,0,-0.25,1,1.6,1.2,-0.4,0,0
"p302","up_down_width","initial",16,3,3,0.466290300013497,1.1,0.4,0.4,0.35,0.87815830000909,2.6,"exp2",0,-5.55111512312578e-17,0,1,1.2,1.2,-2.22044604925031e-16,-1.38777878078145e-16,5.55111512312578e-17
"p302","up_down_width","match",17,4,4,0.434659600025043,0.733333333333333,0.25,0.3,0.5,1.43888889998198,2.45,"exp2",0,0.05,0,1.2,1,1.2,0.2,0.2,0.05
"p302","up_down_width","match",18,4,4,0.567823999968823,0.783333333333333,0.25,0.2,0.2,0.76731700001983,2.6,"exp2",0,-0.05,0,0.8,1,0.8,-0.2,-0.2,0.05
"p302","up_down_width","match",19,3,4,0.682011900003999,1.4,0.25,0.2,0.2,1.13371560000814,3.05,"exp2",1,-0.05,0.333333333333333,0.8,0.75,0.8,0.05,-0.2,0.05
"p302","up_down_width","initial",20,5,4,0.430018700018991,0.9,0.25,0.15,0.3,1.08443309995346,3.85,"exp2",-1,-0.1,-0.2,0.6,1.25,0.6,-0.65,-0.4,0.1
"p302","up_down_width","initial",21,4,4,0.599094400007743,0.7,0.25,0.2,0.25,1.19751249998808,2.35,"exp2",0,-0.05,0,0.8,1,0.8,-0.2,-0.2,0.05
"p302","up_down_width","match",22,3,3,0.439768099982757,1.8,0.55,0.5,0.4,0.868370099982712,4.15,"exp2",0,-0.05,0,0.909090909090909,1.65,1.5,-0.15,-0.090909090909091,0.05
"p302","up_down_width","match",23,4,4,0.464512900041882,0.6,0.4,0.25,0.2,1.03637320001144,2.2,"exp2",0,-0.15,0,0.625,1.6,1,-0.6,-0.375,0.15
"p302","up_down_width","match",24,3,3,0.426257900020573,1.8,0.25,0.15,0.4,1.49621599999955,3.85,"exp2",0,-0.0999999999999999,0,0.6,0.75,0.45,-0.3,-0.4,0.0999999999999999
"p302","up_down_width","match",25,5,5,0.693322699982673,0.675,0.4,0.3,0.2,0.968009200005326,3.1,"exp2",0,-0.1,0,0.75,2,1.5,-0.5,-0.25,0.1
"p302","up_down_width","match",26,3,3,0.463614300009795,1.475,0.25,0.2,0.5,2.66752349998569,3.2,"exp2",0,-0.0499999999999999,0,0.8,0.75,0.6,-0.15,-0.2,0.0499999999999999
"p302","up_down_width","match",27,3,3,0.467897800030187,2.2,0.55,0.35,0.45,0.992648100014776,4.95,"exp2",0,-0.2,0,0.636363636363636,1.65,1.05,-0.6,-0.363636363636364,0.2
"p302","up_down_width","initial",28,4,4,0.645962999959011,1.1,0.25,0.2,0.25,0.858292800025083,3.55,"exp2",0,-0.05,0,0.8,1,0.8,-0.2,-0.2,0.05
"p302","up_down_width","initial",29,5,5,0.635993000003509,1.1,0.4,0.35,0.25,0.912790899979882,4.8,"exp2",0,-0.05,0,0.875,2,1.75,-0.25,-0.125,0.05
"p302","up_down_width","initial",30,5,5,0.533204499981366,0.7,0.55,0.55,0.55,0.784359199984465,3.35,"exp2",0,0,0,1,2.75,2.75,0,0,0
"p302","up_down_width","initial",31,3,3,0.557625100016594,0.7,0.25,0.2,0.4,1.41347630001837,1.65,"exp2",0,-0.0499999999999999,0,0.8,0.75,0.6,-0.15,-0.2,0.0499999999999999
"p302","up_down_width","initial",32,5,4,0.559118600038346,0.7,0.25,0.2,0.45,1.62393089995021,3.05,"exp2",-1,-0.0499999999999999,-0.2,0.8,1.25,0.8,-0.45,-0.2,0.0499999999999999
"p302","up_down_width","match",33,5,4,0.589498899993487,0.525,0.4,0.45,0.45,0.660418399958871,2.5,"exp2",-1,0.05,-0.2,1.125,2,1.8,-0.2,0.125,0.05
"p302","up_down_width","match",34,4,3,0.923443600011524,0.733333333333333,0.55,0.4,0.2,1.20430959999794,2.75,"exp2",-1,-0.15,-0.25,0.727272727272727,2.2,1.2,-1,-0.272727272727273,0.15
"p302","up_down_width","initial",35,3,3,0.478275100002065,0.9,0.55,0.45,0.4,1.36891110002762,2.35,"exp2",0,-0.1,0,0.818181818181818,1.65,1.35,-0.3,-0.181818181818182,0.1
"p302","up_down_width","initial",36,3,3,0.48480269999709,1.1,0.55,0.5,0.55,1.04080990003422,2.75,"exp2",0,-0.05,0,0.909090909090909,1.65,1.5,-0.15,-0.090909090909091,0.05
"p302","up_down_width","initial",37,5,5,0.705044500005897,1.1,0.25,0.2,0.5,1.76365149999037,4.65,"exp2",0,-0.0499999999999999,0,0.8,1.25,1,-0.25,-0.2,0.0499999999999999
"p302","up_down_width","initial",38,5,5,0.59139720001258,0.9,0.4,0.4,0.2,1.25428919994738,4,"exp2",0,-5.55111512312578e-17,0,1,2,2,-2.22044604925031e-16,-1.38777878078145e-16,5.55111512312578e-17
"p302","up_down_width","initial",39,5,5,0.540311800024938,0.9,0.55,0.5,0.2,1.49290220002877,4.15,"exp2",0,-0.0500000000000001,0,0.909090909090909,2.75,2.5,-0.25,-0.0909090909090911,0.0500000000000001
"p302","up_down_width","initial",40,4,3,0.618447899993043,0.7,0.55,0.45,0.2,1.28002890001517,2.65,"exp2",-1,-0.1,-0.25,0.818181818181818,2.2,1.35,-0.85,-0.181818181818182,0.1
"p302","up_down_width","match",41,5,4,0.644903799984604,0.675,0.25,0.2,0.25,0.842262100020889,2.95,"exp2",-1,-0.05,-0.2,0.8,1.25,0.8,-0.45,-0.2,0.05
"p302","up_down_width","match",42,4,4,0.830128400004469,0.6,0.55,0.5,0.25,1.7413530999911,2.35,"exp2",0,-0.0500000000000001,0,0.909090909090909,2.2,2,-0.2,-0.0909090909090911,0.0500000000000001
"p302","up_down_width","match",43,5,5,0.699289600015618,0.8625,0.25,0.15,0.3,0.830165999999736,3.7,"exp2",0,-0.1,0,0.6,1.25,0.75,-0.5,-0.4,0.1
"p302","up_down_width","match",44,3,3,0.585606799984816,1.4,0.55,0.5,0.3,1.26525750005385,3.35,"exp2",0,-0.0500000000000001,0,0.909090909090909,1.65,1.5,-0.15,-0.0909090909090911,0.0500000000000001
"p302","up_down_width","match",45,5,4,0.529406999994535,0.525,0.25,0.2,0.25,0.763016099983361,2.35,"exp2",-1,-0.05,-0.2,0.8,1.25,0.8,-0.45,-0.2,0.05
"p302","up_down_width","match",46,4,4,0.662868399987929,0.6,0.25,0.2,0.55,1.72360820003087,2.05,"exp2",0,-0.0499999999999999,0,0.8,1,0.8,-0.2,-0.2,0.0499999999999999
"p302","up_down_width","match",47,5,4,0.678842400026042,0.675,0.55,0.5,0.45,1.4182981000049,3.25,"exp2",-1,-0.05,-0.2,0.909090909090909,2.75,2,-0.75,-0.090909090909091,0.05
"p302","up_down_width","match",48,5,4,0.81165319995489,0.825,0.25,0.25,0.35,1.33759459998691,3.55,"exp2",-1,0,-0.2,1,1.25,1,-0.25,0,0
"p302","up_down_width","match",49,3,3,0.497871000028681,2.2,0.4,0.35,0.3,1.2287617000402,4.8,"exp2",0,-0.05,0,0.875,1.2,1.05,-0.15,-0.125,0.05
"p302","up_down_width","initial",50,4,4,0.581030000001192,0.9,0.25,0.2,0.2,0.684208100021351,2.95,"exp2",0,-0.05,0,0.8,1,0.8,-0.2,-0.2,0.05
"p302","up_down_width","initial",51,3,3,0.554450499999803,0.9,0.4,0.3,0.2,0.996154099993873,2.2,"exp2",0,-0.1,0,0.75,1.2,0.9,-0.3,-0.25,0.1
"p302","up_down_width","initial",52,3,3,0.680186299956404,0.9,0.25,0.2,0.35,1.45329070003936,2.05,"exp2",0,-0.05,0,0.8,0.75,0.6,-0.15,-0.2,0.05
"p302","up_down_width","match",1,4,4,0.579319699958432,0.6,0.25,0.25,0.45,1.21143690001918,2.05,"exp2",0,5.55111512312578e-17,0,1,1,1,2.22044604925031e-16,2.22044604925031e-16,5.55111512312578e-17
"p302","up_down_width","match",2,5,4,0.638235200021882,0.825,0.55,0.55,0.5,0.834699900005944,3.85,"exp2",-1,0,-0.2,1,2.75,2.2,-0.55,0,0
"p302","up_down_width","initial",3,4,3,0.638782599999104,1.1,0.4,0.45,0.5,1.07493160001468,3.7,"exp2",-1,0.05,-0.25,1.125,1.6,1.35,-0.25,0.125,0.05
"p302","up_down_width","initial",4,5,4,0.511678799986839,0.9,0.55,0.45,0.35,0.87487770000007,4.15,"exp2",-1,-0.1,-0.2,0.818181818181818,2.75,1.8,-0.95,-0.181818181818182,0.1
"p302","up_down_width","match",5,5,4,0.474842100054957,0.675,0.55,0.6,0.2,1.55845060001593,3.25,"exp2",-1,0.0499999999999999,-0.2,1.09090909090909,2.75,2.4,-0.35,0.0909090909090908,0.0499999999999999
"p302","up_down_width","initial",6,5,5,0.670327000028919,0.7,0.4,0.45,0.25,1.01034979999531,3.2,"exp2",0,0.0499999999999999,0,1.125,2,2.25,0.25,0.125,0.0499999999999999
"p302","up_down_width","match",7,5,5,0.612100199970882,0.8625,0.25,0.2,0.25,0.811235899978783,3.7,"exp2",0,-0.05,0,0.8,1.25,1,-0.25,-0.2,0.05
"p302","up_down_width","initial",8,5,5,0.737577699997928,0.9,0.4,0.4,0.55,0.945577400038019,4,"exp2",0,0,0,1,2,2,0,0,0
"p302","up_down_width","match",9,4,4,0.71764719998464,0.466666666666667,0.4,0.2,0.25,0.719788499991409,1.8,"exp2",0,-0.2,0,0.5,1.6,0.8,-0.8,-0.5,0.2
"p302","up_down_width","match",10,5,4,0.735903499997221,0.675,0.4,0.25,0.25,0.68878709996352,3.1,"exp2",-1,-0.15,-0.2,0.625,2,1,-1,-0.375,0.15
"p302","up_down_width","initial",11,4,4,0.525667300040368,0.7,0.25,0.25,0.35,1.25704799999949,2.35,"exp2",0,0,0,1,1,1,0,0,0
"p302","up_down_width","initial",12,4,4,0.478181099984795,0.9,0.4,0.25,0.3,0.698837400006596,3.1,"exp2",0,-0.15,0,0.625,1.6,1,-0.6,-0.375,0.15
"p302","up_down_width","initial",13,3,3,0.944234800001141,0.9,0.25,0.25,0.5,2.42590609996114,2.05,"exp2",0,5.55111512312578e-17,0,1,0.75,0.75,2.22044604925031e-16,2.22044604925031e-16,5.55111512312578e-17
"p302","up_down_width","match",14,3,3,0.54291880002711,2.2,0.4,0.3,0.55,1.57771659997525,4.8,"exp2",0,-0.1,0,0.75,1.2,0.9,-0.3,-0.25,0.1
"p302","up_down_width","initial",15,3,3,0.609655599982943,0.7,0.4,0.35,0.25,1.14380920003168,1.8,"exp2",0,-0.05,0,0.875,1.2,1.05,-0.15,-0.125,0.05
"p302","up_down_width","match",16,3,3,0.603022800001781,1.8,0.4,0.4,0.2,0.993506500031799,4,"exp2",0,-5.55111512312578e-17,0,1,1.2,1.2,-2.22044604925031e-16,-1.38777878078145e-16,5.55111512312578e-17
"p302","up_down_width","match",17,3,3,0.555412899993826,2.2,0.25,0.15,0.45,1.71544249996077,4.65,"exp2",0,-0.0999999999999999,0,0.6,0.75,0.45,-0.3,-0.4,0.0999999999999999
"p302","up_down_width","initial",18,4,3,1.12548789998982,1.1,0.55,0.45,0.4,1.00076309998985,3.85,"exp2",-1,-0.1,-0.25,0.818181818181818,2.2,1.35,-0.85,-0.181818181818182,0.1
"p302","up_down_width","match",19,4,3,0.696149200026412,0.733333333333333,0.25,0.2,0.5,1.73903830000199,2.45,"exp2",-1,-0.0499999999999999,-0.25,0.8,1,0.6,-0.4,-0.2,0.0499999999999999
"p302","up_down_width","initial",20,3,3,0.478314100007992,0.7,0.25,0.15,0.35,1.30650629999582,1.65,"exp2",0,-0.1,0,0.6,0.75,0.45,-0.3,-0.4,0.1
"p302","up_down_width","initial",21,4,3,0.792965400032699,0.7,0.55,0.6,0.55,0.792828600038774,2.65,"exp2",-1,0.05,-0.25,1.09090909090909,2.2,1.8,-0.4,0.090909090909091,0.05
"p302","up_down_width","match",22,5,4,0.517996900016442,0.525,0.4,0.4,0.35,1.16759730002377,2.5,"exp2",-1,-5.55111512312578e-17,-0.2,1,2,1.6,-0.4,-1.38777878078145e-16,5.55111512312578e-17
"p302","up_down_width","match",23,5,4,0.499224299972411,0.525,0.25,0.25,0.3,0.766078700020444,2.35,"exp2",-1,0,-0.2,1,1.25,1,-0.25,0,0
"p302","up_down_width","match",24,4,4,0.4964274999802,0.733333333333333,0.55,0.5,0.45,0.698922900017351,2.75,"exp2",0,-0.05,0,0.909090909090909,2.2,2,-0.2,-0.090909090909091,0.05
"p302","up_down_width","initial",25,5,5,0.627650700043887,1.1,0.25,0.25,0.25,0.809583500027657,4.65,"exp2",0,0,0,1,1.25,1.25,0,0,0
"p302","up_down_width","initial",26,3,3,0.514159699960146,0.9,0.55,0.5,0.5,0.700809700007085,2.35,"exp2",0,-0.05,0,0.909090909090909,1.65,1.5,-0.15,-0.090909090909091,0.05
"p302","up_down_width","initial",27,5,4,0.449691299989354,0.7,0.55,0.5,0.3,1.08663080004044,3.35,"exp2",-1,-0.0500000000000001,-0.2,0.909090909090909,2.75,2,-0.75,-0.0909090909090911,0.0500000000000001
"p302","up_down_width","initial",28,5,5,0.635656200058293,1.1,0.55,0.45,0.2,1.23415290005505,4.95,"exp2",0,-0.1,0,0.818181818181818,2.75,2.25,-0.5,-0.181818181818182,0.1
"p302","up_down_width","initial",29,5,5,0.637172199960332,1.1,0.4,0.45,0.3,0.930285099952016,4.8,"exp2",0,0.0499999999999999,0,1.125,2,2.25,0.25,0.125,0.0499999999999999
"p302","up_down_width","match",30,5,4,0.73469249997288,0.825,0.25,0.3,0.45,1.88754339999286,3.55,"exp2",-1,0.05,-0.2,1.2,1.25,1.2,-0.0499999999999998,0.2,0.05
"p302","up_down_width","initial",31,3,3,0.976797700044699,1.1,0.4,0.35,0.25,1.01745169999776,2.6,"exp2",0,-0.05,0,0.875,1.2,1.05,-0.15,-0.125,0.05
"p302","up_down_width","initial",32,5,4,0.553622799983714,0.7,0.25,0.25,0.45,1.68262209999375,3.05,"exp2",-1,5.55111512312578e-17,-0.2,1,1.25,1,-0.25,2.22044604925031e-16,5.55111512312578e-17
"p302","up_down_width","match",33,4,3,0.689604000013787,0.6,0.4,0.35,0.3,1.01220230001491,2.2,"exp2",-1,-0.05,-0.25,0.875,1.6,1.05,-0.55,-0.125,0.05
"p302","up_down_width","match",34,3,3,0.661019399994984,1.475,0.25,0.2,0.5,1.70623320003506,3.2,"exp2",0,-0.0499999999999999,0,0.8,0.75,0.6,-0.15,-0.2,0.0499999999999999
"p302","up_down_width","initial",35,4,4,0.655029100016691,0.9,0.25,0.2,0.2,0.642936300020665,2.95,"exp2",0,-0.05,0,0.8,1,0.8,-0.2,-0.2,0.05
"p302","up_down_width","initial",36,3,3,0.645552800036967,0.9,0.4,0.3,0.35,0.812085999990813,2.2,"exp2",0,-0.1,0,0.75,1.2,0.9,-0.3,-0.25,0.1
"p302","up_down_width","initial",37,4,4,0.492291799979284,0.9,0.55,0.4,0.4,0.727709400001913,3.25,"exp2",0,-0.15,0,0.727272727272727,2.2,1.6,-0.6,-0.272727272727273,0.15
"p302","up_down_width","match",38,5,5,0.621558399987407,0.675,0.25,0.2,0.45,1.44474579999223,2.95,"exp2",0,-0.0499999999999999,0,0.8,1.25,1,-0.25,-0.2,0.0499999999999999
"p302","up_down_width","match",39,3,3,0.477643099962734,1.8,0.25,0.2,0.55,2.05828080000356,3.85,"exp2",0,-0.0499999999999999,0,0.8,0.75,0.6,-0.15,-0.2,0.0499999999999999
"p302","up_down_width","initial",40,3,3,0.474170400004368,1.1,0.25,0.15,0.45,1.60662149998825,2.45,"exp2",0,-0.0999999999999999,0,0.6,0.75,0.45,-0.3,-0.4,0.0999999999999999
"p302","up_down_width","match",41,4,4,0.494732700055465,0.783333333333333,0.25,0.15,0.4,1.28970360005042,2.6,"exp2",0,-0.0999999999999999,0,0.6,1,0.6,-0.4,-0.4,0.0999999999999999
"p302","up_down_width","match",42,4,4,0.729440600029193,0.6,0.55,0.5,0.25,1.45117960002972,2.35,"exp2",0,-0.0500000000000001,0,0.909090909090909,2.2,2,-0.2,-0.0909090909090911,0.0500000000000001
"p302","up_down_width","match",43,3,3,0.584371999953873,1.4,0.25,0.2,0.3,0.976923400012311,3.05,"exp2",0,-0.05,0,0.8,0.75,0.6,-0.15,-0.2,0.05
"p302","up_down_width","match",44,3,3,0.742198600026313,1.4,0.55,0.5,0.2,1.46429790003458,3.35,"exp2",0,-0.0500000000000001,0,0.909090909090909,1.65,1.5,-0.15,-0.0909090909090911,0.0500000000000001
"p302","up_down_width","match",45,4,4,0.534372400026768,0.466666666666667,0.25,0.2,0.55,1.96767199999886,1.65,"exp2",0,-0.0499999999999999,0,0.8,1,0.8,-0.2,-0.2,0.0499999999999999
"p302","up_down_width","initial",46,3,3,0.429453300021123,1.1,0.55,0.5,0.25,1.22684989997651,2.75,"exp2",0,-0.0500000000000001,0,0.909090909090909,1.65,1.5,-0.15,-0.0909090909090911,0.0500000000000001
"p302","up_down_width","match",47,3,3,0.56176690000575,2.2,0.55,0.55,0.55,1.11485319997882,4.95,"exp2",0,0,0,1,1.65,1.65,0,0,0
"p302","up_down_width","match",48,3,3,0.416931200015824,1.8,0.55,0.5,0.5,0.656314499967266,4.15,"exp2",0,-0.05,0,0.909090909090909,1.65,1.5,-0.15,-0.090909090909091,0.05
"p302","up_down_width","initial",49,5,5,1.16609180002706,0.9,0.25,0.3,0.55,1.56733910000185,3.85,"exp2",0,0.05,0,1.2,1.25,1.5,0.25,0.2,0.05
"p302","up_down_width","initial",50,3,3,1.04297060001409,0.7,0.55,0.4,0.4,0.761744900024496,1.95,"exp2",0,-0.15,0,0.727272727272727,1.65,1.2,-0.45,-0.272727272727273,0.15
"p302","up_down_width","initial",51,4,3,0.49880529998336,1.1,0.25,0.3,0.5,1.42306589998771,3.55,"exp2",-1,0.05,-0.25,1.2,1,0.9,-0.0999999999999999,0.2,0.05
"p302","up_down_width","initial",52,4,4,0.646267499949317,0.7,0.4,0.4,0.45,0.781115100020543,2.5,"exp2",0,0,0,1,1.6,1.6,0,0,0
"p302","up_down_width","match",1,5,4,0.53254059999017,0.675,0.4,0.35,0.4,1.39040790003492,3.1,"exp2",-1,-0.05,-0.2,0.875,2,1.4,-0.6,-0.125,0.05
"p302","up_down_width","match",2,3,3,0.514249500003643,1.475,0.25,0.2,0.45,1.5653226999566,3.2,"exp2",0,-0.0499999999999999,0,0.8,0.75,0.6,-0.15,-0.2,0.0499999999999999
"p302","up_down_width","match",3,3,4,0.386972799955402,1.4,0.55,0.3,0.3,1.04094820003957,3.35,"exp2",1,-0.25,0.333333333333333,0.545454545454545,1.65,1.2,-0.45,-0.454545454545455,0.25
"p302","up_down_width","match",4,3,3,0.345519500027876,1.4,0.25,0.25,0.3,0.84280270000454,3.05,"exp2",0,0,0,1,0.75,0.75,0,0,0
"p302","up_down_width","initial",5,4,4,0.587604900007136,0.9,0.55,0.45,0.2,1.42741180001758,3.25,"exp2",0,-0.1,0,0.818181818181818,2.2,1.8,-0.4,-0.181818181818182,0.1
"p302","up_down_width","initial",6,3,3,0.522951200022362,0.7,0.25,0.2,0.25,0.741679399972782,1.65,"exp2",0,-0.05,0,0.8,0.75,0.6,-0.15,-0.2,0.05
"p302","up_down_width","initial",7,5,5,0.654870399972424,0.7,0.4,0.3,0.35,0.707536200003233,3.2,"exp2",0,-0.1,0,0.75,2,1.5,-0.5,-0.25,0.1
"p302","up_down_width","match",8,3,3,0.388313200033735,2.2,0.4,0.3,0.25,1.1863139999914,4.8,"exp2",0,-0.1,0,0.75,1.2,0.9,-0.3,-0.25,0.1
"p302","up_down_width","initial",9,3,3,0.395017900038511,1.1,0.4,0.35,0.25,0.969181600026786,2.6,"exp2",0,-0.05,0,0.875,1.2,1.05,-0.15,-0.125,0.05
"p302","up_down_width","match",10,4,4,0.635826599958818,0.6,0.55,0.55,0.55,1.18468049995136,2.35,"exp2",0,0,0,1,2.2,2.2,0,0,0
"p302","up_down_width","match",11,5,4,0.889788500033319,0.525,0.25,0.25,0.45,1.31590639997739,2.35,"exp2",-1,5.55111512312578e-17,-0.2,1,1.25,1,-0.25,2.22044604925031e-16,5.55111512312578e-17
"p302","up_down_width","initial",12,5,5,0.689249899995048,1.1,0.4,0.35,0.3,0.884205599955749,4.8,"exp2",0,-0.05,0,0.875,2,1.75,-0.25,-0.125,0.05
"p302","up_down_width","match",13,5,5,0.942836000001989,0.825,0.25,0.2,0.55,2.27968410000904,3.55,"exp2",0,-0.0499999999999999,0,0.8,1.25,1,-0.25,-0.2,0.0499999999999999
"p302","up_down_width","initial",14,3,3,0.553699199983384,0.9,0.55,0.5,0.25,1.36213179997867,2.35,"exp2",0,-0.0500000000000001,0,0.909090909090909,1.65,1.5,-0.15,-0.0909090909090911,0.0500000000000001
"p302","up_down_width","initial",15,3,3,0.526305999956094,0.7,0.55,0.5,0.55,0.905275500030257,1.95,"exp2",0,-0.05,0,0.909090909090909,1.65,1.5,-0.15,-0.090909090909091,0.05
"p302","up_down_width","initial",16,5,5,0.525606399984099,1.1,0.55,0.45,0.4,0.80689569999231,4.95,"exp2",0,-0.1,0,0.818181818181818,2.75,2.25,-0.5,-0.181818181818182,0.1
"p302","up_down_width","match",17,4,3,0.680372599978,0.466666666666667,0.4,0.25,0.3,0.747593300009612,1.8,"exp2",-1,-0.15,-0.25,0.625,1.6,0.75,-0.85,-0.375,0.15
"p302","up_down_width","match",18,3,3,0.488048199971672,1.8,0.4,0.25,0.3,0.786339699989185,4,"exp2",0,-0.15,0,0.625,1.2,0.75,-0.45,-0.375,0.15
"p302","up_down_width","match",19,4,3,0.912943500035908,0.466666666666667,0.25,0.2,0.4,1.29192419996252,1.65,"exp2",-1,-0.0499999999999999,-0.25,0.8,1,0.6,-0.4,-0.2,0.0499999999999999
"p302","up_down_width","initial",20,5,5,0.702400799957104,1.1,0.25,0.15,0.3,1.56819140003063,4.65,"exp2",0,-0.1,0,0.6,1.25,0.75,-0.5,-0.4,0.1
"p302","up_down_width","match",21,5,4,0.709167400025763,0.825,0.55,0.4,0.45,0.824138599971775,3.85,"exp2",-1,-0.15,-0.2,0.727272727272727,2.75,1.6,-1.15,-0.272727272727273,0.15
"p302","up_down_width","initial",22,5,4,0.701284999959171,0.9,0.25,0.2,0.2,0.73602380004013,3.85,"exp2",-1,-0.05,-0.2,0.8,1.25,0.8,-0.45,-0.2,0.05
"p302","up_down_width","match",23,4,3,0.548113400000148,0.733333333333333,0.25,0.2,0.55,2.6363017000258,2.45,"exp2",-1,-0.0499999999999999,-0.25,0.8,1,0.6,-0.4,-0.2,0.0499999999999999
"p302","up_down_width","initial",24,3,3,0.463470999966376,1.1,0.25,0.2,0.35,1.21306709997589,2.45,"exp2",0,-0.05,0,0.8,0.75,0.6,-0.15,-0.2,0.05
"p302","up_down_width","match",25,4,4,0.703887599986047,0.6,0.4,0.3,0.35,1.29867869999725,2.2,"exp2",0,-0.1,0,0.75,1.6,1.2,-0.4,-0.25,0.1
"p302","up_down_width","match",26,3,3,0.373715300054755,1.8,0.55,0.4,0.35,0.901310499990359,4.15,"exp2",0,-0.15,0,0.727272727272727,1.65,1.2,-0.45,-0.272727272727273,0.15
"p302","up_down_width","match",27,5,4,0.563574300031178,0.8625,0.25,0.2,0.2,0.79553569998825,3.7,"exp2",-1,-0.05,-0.2,0.8,1.25,0.8,-0.45,-0.2,0.05
"p302","up_down_width","initial",28,5,4,0.515957800031174,0.7,0.55,0.45,0.55,0.974081100022886,3.35,"exp2",-1,-0.1,-0.2,0.818181818181818,2.75,1.8,-0.95,-0.181818181818182,0.1
"p302","up_down_width","initial",29,5,4,0.569073499995284,0.7,0.25,0.3,0.4,1.23417949996656,3.05,"exp2",-1,0.05,-0.2,1.2,1.25,1.2,-0.0499999999999998,0.2,0.05
"p302","up_down_width","initial",30,4,4,0.451749800005928,0.7,0.4,0.4,0.45,1.00827679998474,2.5,"exp2",0,0,0,1,1.6,1.6,0,0,0
"p302","up_down_width","initial",31,4,4,0.442924900038633,1.1,0.4,0.4,0.5,1.2092638000031,3.7,"exp2",0,0,0,1,1.6,1.6,0,0,0
"p302","up_down_width","match",32,4,3,0.602328500011936,0.733333333333333,0.55,0.4,0.45,0.72147569997469,2.75,"exp2",-1,-0.15,-0.25,0.727272727272727,2.2,1.2,-1,-0.272727272727273,0.15
"p302","up_down_width","match",33,3,3,0.439558600017335,2.2,0.55,0.5,0.55,1.04511449998245,4.95,"exp2",0,-0.05,0,0.909090909090909,1.65,1.5,-0.15,-0.090909090909091,0.05
"p302","up_down_width","initial",34,3,3,0.440607200027443,0.9,0.4,0.35,0.4,0.660844199999701,2.2,"exp2",0,-0.05,0,0.875,1.2,1.05,-0.15,-0.125,0.05
"p302","up_down_width","initial",35,5,5,0.626752200012561,0.9,0.55,0.3,0.3,1.06361539999489,4.15,"exp2",0,-0.25,0,0.545454545454545,2.75,1.5,-1.25,-0.454545454545455,0.25
"p302","up_down_width","match",36,5,4,0.527313000056893,0.675,0.55,0.4,0.35,0.952844700019341,3.25,"exp2",-1,-0.15,-0.2,0.727272727272727,2.75,1.6,-1.15,-0.272727272727273,0.15
"p302","up_down_width","match",37,3,3,0.419847999990452,2.2,0.25,0.15,0.3,0.914292200002819,4.65,"exp2",0,-0.1,0,0.6,0.75,0.45,-0.3,-0.4,0.1
"p302","up_down_width","initial",38,4,4,0.714400400058366,0.7,0.25,0.35,0.5,1.94968379999045,2.35,"exp2",0,0.1,0,1.4,1,1.4,0.4,0.4,0.1
"p302","up_down_width","match",39,3,3,0.416296799958218,1.8,0.25,0.15,0.2,0.846965399978217,3.85,"exp2",0,-0.1,0,0.6,0.75,0.45,-0.3,-0.4,0.1
"p302","up_down_width","initial",40,4,3,0.746855299978051,0.7,0.55,0.5,0.5,0.892690300010145,2.65,"exp2",-1,-0.05,-0.25,0.909090909090909,2.2,1.5,-0.7,-0.090909090909091,0.05
"p302","up_down_width","initial",41,3,3,0.43107599997893,1.1,0.55,0.45,0.2,1.78968039999017,2.75,"exp2",0,-0.1,0,0.818181818181818,1.65,1.35,-0.3,-0.181818181818182,0.1
"p302","up_down_width","match",42,5,4,0.475734799983911,0.525,0.4,0.25,0.25,2.55188430001726,2.5,"exp2",-1,-0.15,-0.2,0.625,2,1,-1,-0.375,0.15
"p302","up_down_width","match",43,4,3,0.895117599982768,0.783333333333333,0.25,0.15,0.2,0.971630799991544,2.6,"exp2",-1,-0.1,-0.25,0.6,1,0.45,-0.55,-0.4,0.1
"p302","up_down_width","initial",44,4,4,0.586112399992999,0.9,0.4,0.35,0.4,0.882068600039929,3.1,"exp2",0,-0.05,0,0.875,1.6,1.4,-0.2,-0.125,0.05
"p302","up_down_width","initial",45,3,3,0.438368500035722,0.7,0.4,0.35,0.2,1.28235830005724,1.8,"exp2",0,-0.05,0,0.875,1.2,1.05,-0.15,-0.125,0.05
"p302","up_down_width","initial",46,5,4,0.496895199990831,0.9,0.4,0.35,0.5,1.03659180004615,4,"exp2",-1,-0.05,-0.2,0.875,2,1.4,-0.6,-0.125,0.05
"p302","up_down_width","match",47,5,4,0.453643299988471,0.675,0.25,0.25,0.55,1.82691820000764,2.95,"exp2",-1,5.55111512312578e-17,-0.2,1,1.25,1,-0.25,2.22044604925031e-16,5.55111512312578e-17
