amount_p,posx1_p,posx2_p,posx3_p,posx4_p,posx5_p,center_to_center_p,edge_to_edge_p,w_p,stim_lengt_p,eccentricity_p,line1_p,line2_p,line3_p,line4_p,line5_p,amount,posx1,posx2,posx3,posx4,posx5,center_to_center,edge_to_edge,w,stim_length,eccentricity,trial_type,deg_to_pix_index,posx1_in_pix,posx2_in_pix,posx3_in_pix,posx4_in_pix,posx5_in_pix,line1,line2,line3,line4,line5,trials.thisRepN,trials.thisTrialN,trials.thisN,trials.thisIndex,blocks.thisRepN,blocks.thisTrialN,blocks.thisN,blocks.thisIndex,loop.thisRepN,loop.thisTrialN,loop.thisN,loop.thisIndex,key_resp_3.keys,key_resp_3.rt,key_resp_3.started,key_resp_3.stopped,key_resp.keys,key_resp.rt,response,starting_width_deg,starting_space_deg,response_width_degree,response_spacing_degree,response_width_pixel,response_spacing_pixel,next_5.keys,next_5.rt,key_resp_4.keys,key_resp_4.rt,text_3.started,text_3.stopped,text_4.started,text_4.stopped,participant,age,gender,resp_group,date,expName,psychopyVersion,frameRate,
,,,,,,,,,,,,,,,,,,,,,,,,,,,,,,,,,,,,,,,,,,,,,,,,,,,c,133.06138450000435,14.433198499958962,None,,,,,,,,,,,,,,,,,,701,22,female,left_right_width,2024-05-09_10h45.13.192,exp1,2021.2.3,59.99570430280008,
4,8.65,9.55,10.45,11.35,0,0.9,0.5,0.4,3.1,10,9,9,9,9,0,,,,,,,,,,,,,,,,,,,,,,,,0,0,0,5,,,,,,,,,,,,,num_3,5.632723400136456,num_3,0.25,1.2,0.39999999999999997,1.2,15.2822,45.8466,return,11.438758000032976,,,,,,,701,22,female,left_right_width,2024-05-09_10h45.13.192,exp1,2021.2.3,59.99570430280008,
4,9.25,9.75,10.25,10.75,0,0.5,0.25,0.25,1.75,10,9,9,9,9,0,,,,,,,,,,,,,,,,,,,,,,,,0,1,1,4,,,,,,,,,,,,,num_3,3.0384943999815732,num_3,0.15,0.6,0.15,0.7,5.73083,26.74385,return,5.507777400081977,,,,,,,701,22,female,left_right_width,2024-05-09_10h45.13.192,exp1,2021.2.3,59.99570430280008,
5,9.25,9.625,10,10.375,10.75,0.375,0.125,0.25,1.75,10,9,9,9,9,9,,,,,,,,,,,,,,,,,,,,,,,,0,2,2,6,,,,,,,,,,,,,num_4,3.342264899984002,num_4,0.25,1.3,0.25,0.8,9.55138,30.5644,return,5.799561500083655,,,,,,,701,22,female,left_right_width,2024-05-09_10h45.13.192,exp1,2021.2.3,59.99570430280008,
3,8.2,10,11.8,0,0,1.7999999999999998,1.4,0.4,4,10,9,9,9,0,0,,,,,,,,,,,,,,,,,,,,,,,,0,3,3,2,,,,,,,,,,,,,num_3,2.7069470998831093,num_3,0.2,0.8,0.3,1.25,11.46165,47.75688,return,6.78944809990935,,,,,,,701,22,female,left_right_width,2024-05-09_10h45.13.192,exp1,2021.2.3,59.99570430280008,
5,9,9.5,10,10.5,11,0.5,0.09999999999999998,0.4,2.4,10,9,9,9,9,9,,,,,,,,,,,,,,,,,,,,,,,,0,4,4,8,,,,,,,,,,,,,num_4,4.905107200145721,num_4,0.1,0.7,0.39999999999999997,0.8,15.2822,30.5644,return,9.715698700165376,,,,,,,701,22,female,left_right_width,2024-05-09_10h45.13.192,exp1,2021.2.3,59.99570430280008,
4,9.5,9.833333333333334,10.166666666666666,10.5,0,0.33333333333333337,0.23333333333333336,0.1,1.1,10,9,9,9,9,0,,,,,,,,,,,,,,,,,,,,,,,,0,5,5,3,,,,,,,,,,,,,num_4,2.220218400005251,num_4,0.4,1.0,0.10000000000000007,0.8,3.82055,30.5644,return,10.706101399846375,,,,,,,701,22,female,left_right_width,2024-05-09_10h45.13.192,exp1,2021.2.3,59.99570430280008,
3,9.5,10,10.5,0,0,0.5,0.4,0.1,1.1,10,9,9,9,0,0,,,,,,,,,,,,,,,,,,,,,,,,0,6,6,0,,,,,,,,,,,,,num_3,1.6551393000409007,num_3,0.35,1.1,0.10000000000000002,0.95,3.82055,36.29523,return,6.547822399996221,,,,,,,701,22,female,left_right_width,2024-05-09_10h45.13.192,exp1,2021.2.3,59.99570430280008,
5,8.6,9.3,10,10.7,11.4,0.7,0.29999999999999993,0.4,3.1999999999999997,10,9,9,9,9,9,,,,,,,,,,,,,,,,,,,,,,,,0,7,7,7,,,,,,,,,,,,,num_5,2.181129799922928,num_5,0.1,0.7,0.3,0.75,11.46165,28.65413,return,10.908906700089574,,,,,,,701,22,female,left_right_width,2024-05-09_10h45.13.192,exp1,2021.2.3,59.99570430280008,
3,9,10,11,0,0,1,0.9,0.1,2.1,10,9,9,9,0,0,,,,,,,,,,,,,,,,,,,,,,,,0,8,8,1,,,,,,,,,,,,,num_3,3.545542099978775,num_3,0.4,1,0.25000000000000006,0.95,9.55138,36.29523,return,6.186777300201356,,,,,,,701,22,female,left_right_width,2024-05-09_10h45.13.192,exp1,2021.2.3,59.99570430280008,
,,,,,,,,,,,,,,,,,,,,,,,,,,,,,,,,,,,,,,,,,,,,,,,,,,,,,,,,,,,,,,,,,,c,94.2415517999325,,,,,701,22,female,left_right_width,2024-05-09_10h45.13.192,exp1,2021.2.3,59.99570430280008,
,,,,,,,,,,,,,,,,3,7.800000000000001,10,12.2,0,0,2.1999999999999997,1.7999999999999998,0.4,4.8,10,match,36.05,281,361,440,0,0,9,9,9,0,0,,,,,0,0,0,0,0,0,0,39,,,,,num_3,1.8545515001751482,num_3,0.4,0.7,0.15000000000000008,1.1,5.73083,42.02605,return,5.683017200091854,,,,,,,701,22,female,left_right_width,2024-05-09_10h45.13.192,exp1,2021.2.3,59.99570430280008,
,,,,,,,,,,,,,,,,5,8.6,9.3,10,10.7,11.4,0.7,0.44999999999999996,0.25,3.05,10,initial,36.05,310,335,361,386,411,9,9,9,9,9,,,,,0,0,0,0,0,1,1,42,,,,,num_4,1.395089300116524,num_4,0.2,0.9,0.2,0.9,7.6411,34.38495,return,2.1221422001253814,,,,,,,701,22,female,left_right_width,2024-05-09_10h45.13.192,exp1,2021.2.3,59.99570430280008,
,,,,,,,,,,,,,,,,4,8.35,9.45,10.55,11.65,0,1.1,0.8500000000000001,0.25,3.5500000000000003,10,initial,36.05,301,341,380,420,0,9,9,9,9,0,,,,,0,0,0,0,0,2,2,19,,,,,num_4,1.5803361998405308,num_4,0.4,0.7,0.15000000000000008,0.8,5.73083,30.5644,return,5.916218099882826,,,,,,,701,22,female,left_right_width,2024-05-09_10h45.13.192,exp1,2021.2.3,59.99570430280008,
,,,,,,,,,,,,,,,,4,8.95,9.65,10.35,11.05,0,0.7,0.1499999999999999,0.55,2.65,10,initial,36.05,323,348,373,398,0,9,9,9,9,0,,,,,0,0,0,0,0,3,3,23,,,,,num_4,2.04115549987182,num_4,0.45,0.8,0.55,0.8,21.01303,30.5644,return,3.3341465999837965,,,,,,,701,22,female,left_right_width,2024-05-09_10h45.13.192,exp1,2021.2.3,59.99570430280008,
,,,,,,,,,,,,,,,,3,9.1,10,10.9,0,0,0.9,0.5,0.4,2.2,10,initial,36.05,328,361,393,0,0,9,9,9,0,0,,,,,0,0,0,0,0,4,4,15,,,,,num_3,1.433998900000006,num_3,0.35,0.4,1.4000000000000006,0.1,53.48771,3.82055,return,23.983520899899304,,,,,,,701,22,female,left_right_width,2024-05-09_10h45.13.192,exp1,2021.2.3,59.99570430280008,
,,,,,,,,,,,,,,,,3,8.2,10,11.8,0,0,1.7999999999999998,1.4,0.4,4,10,match,36.05,296,361,425,0,0,9,9,9,0,0,,,,,0,0,0,0,0,5,5,51,,,,,num_3,1.2838817997835577,num_3,0.15,0.7,0.25,1.3,9.55138,49.66716,return,6.51104800007306,,,,,,,701,22,female,left_right_width,2024-05-09_10h45.13.192,exp1,2021.2.3,59.99570430280008,
,,,,,,,,,,,,,,,,4,8.35,9.45,10.55,11.65,0,1.1,0.7000000000000001,0.4,3.7,10,initial,36.05,301,341,380,420,0,9,9,9,9,0,,,,,0,0,0,0,0,6,6,21,,,,,num_4,2.1739932000637054,num_4,0.3,0.8,0.2,1.7,7.6411,64.94936,return,4.96557080000639,,,,,,,701,22,female,left_right_width,2024-05-09_10h45.13.192,exp1,2021.2.3,59.99570430280008,
,,,,,,,,,,,,,,,,5,8.2,9.1,10,10.9,11.8,0.9,0.35,0.55,4.15,10,initial,36.05,296,328,361,393,425,9,9,9,9,9,,,,,0,0,0,0,0,7,7,46,,,,,num_4,2.19425980001688,num_4,0.45,0.8,0.45,0.8,17.19248,30.5644,return,1.5777037001680583,,,,,,,701,22,female,left_right_width,2024-05-09_10h45.13.192,exp1,2021.2.3,59.99570430280008,
,,,,,,,,,,,,,,,,3,8.2,10,11.8,0,0,1.8,1.25,0.55,4.15,10,match,36.05,296,361,425,0,0,9,9,9,0,0,,,,,0,0,0,0,0,8,8,47,,,,,num_3,1.107572800014168,num_3,0.45,0.8,0.35000000000000003,1.2,13.37193,45.8466,return,5.4146538998465985,,,,,,,701,22,female,left_right_width,2024-05-09_10h45.13.192,exp1,2021.2.3,59.99570430280008,
,,,,,,,,,,,,,,,,3,7.8,10,12.2,0,0,2.2,1.9500000000000002,0.25,4.65,10,match,36.05,281,361,440,0,0,9,9,9,0,0,,,,,0,0,0,0,0,9,9,37,,,,,num_4,1.8790144000668079,num_4,0.45,0.7,0.15000000000000008,1.1,5.73083,42.02605,return,5.754793300060555,,,,,,,701,22,female,left_right_width,2024-05-09_10h45.13.192,exp1,2021.2.3,59.99570430280008,
,,,,,,,,,,,,,,,,4,8.65,9.55,10.45,11.35,0,0.9,0.35,0.55,3.25,10,initial,36.05,312,344,377,409,0,9,9,9,9,0,,,,,0,0,0,0,0,10,10,28,,,,,num_3,1.2978219999931753,num_3,0.3,0.9,0.49999999999999994,1.05,19.10275,40.11578,return,5.05264709983021,,,,,,,701,22,female,left_right_width,2024-05-09_10h45.13.192,exp1,2021.2.3,59.99570430280008,
,,,,,,,,,,,,,,,,4,9.3,9.766666666666667,10.233333333333333,10.7,0,0.4666666666666667,0.06666666666666665,0.4,1.8,10,match,36.05,335,352,369,386,0,9,9,9,9,0,,,,,0,0,0,0,0,11,11,10,,,,,num_4,1.2221368001773953,num_4,0.25,1.3,0.3,0.5,11.46165,19.10275,return,5.796394599834457,,,,,,,701,22,female,left_right_width,2024-05-09_10h45.13.192,exp1,2021.2.3,59.99570430280008,
,,,,,,,,,,,,,,,,5,8.65,9.325,10,10.675,11.35,0.675,0.125,0.55,3.25,10,match,36.05,312,336,361,385,409,9,9,9,9,9,,,,,0,0,0,0,0,12,12,29,,,,,num_5,1.363902600016445,num_5,0.15,1.0,0.35,0.6,13.37193,22.9233,return,5.308061399962753,,,,,,,701,22,female,left_right_width,2024-05-09_10h45.13.192,exp1,2021.2.3,59.99570430280008,
,,,,,,,,,,,,,,,,3,8.9,10,11.1,0,0,1.1,0.8500000000000001,0.25,2.45,10,initial,36.05,321,361,400,0,0,9,9,9,0,0,,,,,0,0,0,0,0,13,13,2,,,,,num_3,1.09287939989008,num_3,0.2,1.3,0.2,1.0,7.6411,38.2055,return,4.456087100086734,,,,,,,701,22,female,left_right_width,2024-05-09_10h45.13.192,exp1,2021.2.3,59.99570430280008,
,,,,,,,,,,,,,,,,3,9.3,10,10.7,0,0,0.7,0.29999999999999993,0.4,1.8,10,initial,36.05,335,361,386,0,0,9,9,9,0,0,,,,,0,0,0,0,0,14,14,9,,,,,num_3,1.129050699993968,num_3,0.45,1.3,0.45,1.0,17.19248,38.2055,return,2.2188109001144767,,,,,,,701,22,female,left_right_width,2024-05-09_10h45.13.192,exp1,2021.2.3,59.99570430280008,
,,,,,,,,,,,,,,,,4,9.1,9.7,10.3,10.9,0,0.6,0.04999999999999997,0.55,2.35,10,match,36.05,328,350,371,393,0,9,9,9,9,0,,,,,0,0,0,0,0,15,15,12,,,,,num_4,1.487822099821642,num_4,0.35,0.4,0.35,0.4,13.37193,15.2822,return,4.211201900150627,,,,,,,701,22,female,left_right_width,2024-05-09_10h45.13.192,exp1,2021.2.3,59.99570430280008,
,,,,,,,,,,,,,,,,5,7.8,8.9,10,11.1,12.2,1.1,0.8500000000000001,0.25,4.65,10,initial,36.05,281,321,361,400,440,9,9,9,9,9,,,,,0,0,0,0,0,16,16,36,,,,,num_5,1.073625500081107,num_5,0.2,0.8,0.2,0.8,7.6411,30.5644,return,1.317504599923268,,,,,,,701,22,female,left_right_width,2024-05-09_10h45.13.192,exp1,2021.2.3,59.99570430280008,
,,,,,,,,,,,,,,,,4,9.1,9.7,10.3,10.9,0,0.5999999999999999,0.3499999999999999,0.25,2.05,10,match,36.05,328,350,371,393,0,9,9,9,9,0,,,,,0,0,0,0,0,17,17,14,,,,,num_4,1.0443569999188185,num_4,0.45,0.5,0.15000000000000008,0.9,5.73083,34.38495,return,5.86570670013316,,,,,,,701,22,female,left_right_width,2024-05-09_10h45.13.192,exp1,2021.2.3,59.99570430280008,
,,,,,,,,,,,,,,,,3,9.3,10,10.7,0,0,0.7,0.44999999999999996,0.25,1.65,10,initial,36.05,335,361,386,0,0,9,9,9,0,0,,,,,0,0,0,0,0,18,18,7,,,,,num_3,1.1763480000663549,num_3,0.35,0.5,0.2,0.65,7.6411,24.83358,return,5.128404800081626,,,,,,,701,22,female,left_right_width,2024-05-09_10h45.13.192,exp1,2021.2.3,59.99570430280008,
,,,,,,,,,,,,,,,,4,9.3,9.766666666666667,10.233333333333333,10.7,0,0.4666666666666667,0.21666666666666665,0.25,1.65,10,match,36.05,335,352,369,386,0,9,9,9,9,0,,,,,0,0,0,0,0,19,19,8,,,,,num_4,0.978429599897936,num_4,0.1,1.2,0.2,0.7,7.6411,26.74385,return,5.242369400104508,,,,,,,701,22,female,left_right_width,2024-05-09_10h45.13.192,exp1,2021.2.3,59.99570430280008,
,,,,,,,,,,,,,,,,5,8.275,9.1375,10,10.8625,11.725,0.8625,0.6125,0.25,3.7,10,match,36.05,298,329,361,392,423,9,9,9,9,9,,,,,0,0,0,0,0,20,20,22,,,,,num_5,1.0738957000430673,num_5,0.35,1.2,0.2,0.75,7.6411,28.65413,return,5.87770239985548,,,,,,,701,22,female,left_right_width,2024-05-09_10h45.13.192,exp1,2021.2.3,59.99570430280008,
,,,,,,,,,,,,,,,,5,8.2,9.1,10,10.9,11.8,0.9,0.5,0.4,4,10,initial,36.05,296,328,361,393,425,9,9,9,9,9,,,,,0,0,0,0,0,21,21,50,,,,,num_5,1.069740200182423,num_5,0.25,0.9,0.35,0.9,13.37193,34.38495,return,5.24884059978649,,,,,,,701,22,female,left_right_width,2024-05-09_10h45.13.192,exp1,2021.2.3,59.99570430280008,
,,,,,,,,,,,,,,,,5,8.6,9.3,10,10.7,11.4,0.7,0.1499999999999999,0.55,3.3499999999999996,10,initial,36.05,310,335,361,386,411,9,9,9,9,9,,,,,0,0,0,0,0,22,22,40,,,,,num_5,0.8772754000965506,num_5,0.3,0.6,0.39999999999999997,0.55,15.2822,21.01303,return,3.9450792998541147,,,,,,,701,22,female,left_right_width,2024-05-09_10h45.13.192,exp1,2021.2.3,59.99570430280008,
,,,,,,,,,,,,,,,,3,7.8,10,12.2,0,0,2.2,1.65,0.55,4.95,10,match,36.05,281,361,440,0,0,9,9,9,0,0,,,,,0,0,0,0,0,23,23,35,,,,,num_3,1.1082787001505494,num_3,0.25,1,0.7000000000000001,1.4,26.74385,53.48771,return,6.07082109991461,,,,,,,701,22,female,left_right_width,2024-05-09_10h45.13.192,exp1,2021.2.3,59.99570430280008,
,,,,,,,,,,,,,,,,5,8.2,9.1,10,10.9,11.8,0.9,0.65,0.25,3.85,10,initial,36.05,296,328,361,393,425,9,9,9,9,9,,,,,0,0,0,0,0,24,24,48,,,,,num_5,1.2814310998655856,num_5,0.3,0.9,0.15000000000000002,0.9,5.73083,34.38495,return,2.3489333998877555,,,,,,,701,22,female,left_right_width,2024-05-09_10h45.13.192,exp1,2021.2.3,59.99570430280008,
,,,,,,,,,,,,,,,,3,8.2,10,11.8,0,0,1.8,1.55,0.25,3.85,10,match,36.05,296,361,425,0,0,9,9,9,0,0,,,,,0,0,0,0,0,25,25,49,,,,,num_3,1.0322624000255018,num_3,0.45,0.6,0.10000000000000007,1.35,3.82055,51.57743,return,8.446441899985075,,,,,,,701,22,female,left_right_width,2024-05-09_10h45.13.192,exp1,2021.2.3,59.99570430280008,
,,,,,,,,,,,,,,,,5,8.6,9.3,10,10.7,11.4,0.7,0.29999999999999993,0.4,3.1999999999999997,10,initial,36.05,310,335,361,386,411,9,9,9,9,9,,,,,0,0,0,0,0,26,26,44,,,,,num_4,1.5979980998672545,num_4,0.1,0.9,0.39999999999999997,0.7,15.2822,26.74385,return,4.461196100106463,,,,,,,701,22,female,left_right_width,2024-05-09_10h45.13.192,exp1,2021.2.3,59.99570430280008,
,,,,,,,,,,,,,,,,3,8.9,10,11.1,0,0,1.1,0.55,0.55,2.75,10,initial,36.05,321,361,400,0,0,9,9,9,0,0,,,,,0,0,0,0,0,27,27,0,,,,,num_3,1.165567300049588,num_3,0.45,1.1,0.55,1.1,21.01303,42.02605,return,3.491266399854794,,,,,,,701,22,female,left_right_width,2024-05-09_10h45.13.192,exp1,2021.2.3,59.99570430280008,
,,,,,,,,,,,,,,,,5,8.95,9.475,10,10.525,11.05,0.525,0.275,0.25,2.35,10,match,36.05,323,342,361,379,398,9,9,9,9,9,,,,,0,0,0,0,0,28,28,25,,,,,num_4,0.9815354999154806,num_4,0.15,0.6,0.15,0.6,5.73083,22.9233,return,0.9459911999292672,,,,,,,701,22,female,left_right_width,2024-05-09_10h45.13.192,exp1,2021.2.3,59.99570430280008,
,,,,,,,,,,,,,,,,4,8.95,9.65,10.35,11.05,0,0.7,0.29999999999999993,0.4,2.5,10,initial,36.05,323,348,373,398,0,9,9,9,9,0,,,,,0,0,0,0,0,29,29,26,,,,,num_3,1.0661621999461204,num_3,0.4,0.8,0.5,0.75,19.10275,28.65413,return,4.8048841001000255,,,,,,,701,22,female,left_right_width,2024-05-09_10h45.13.192,exp1,2021.2.3,59.99570430280008,
,,,,,,,,,,,,,,,,5,8.35,9.175,10,10.825,11.65,0.825,0.575,0.25,3.55,10,match,36.05,301,331,361,390,420,9,9,9,9,9,,,,,0,0,0,0,0,30,30,20,,,,,num_5,2.161642000079155,num_5,0.45,0.6,0.10000000000000007,0.6,3.82055,22.9233,return,5.38608460011892,,,,,,,701,22,female,left_right_width,2024-05-09_10h45.13.192,exp1,2021.2.3,59.99570430280008,
,,,,,,,,,,,,,,,,5,8.95,9.475,10,10.525,11.05,0.525,0.125,0.4,2.5,10,match,36.05,323,342,361,379,398,9,9,9,9,9,,,,,0,0,0,0,0,31,31,27,,,,,num_4,1.7821718999184668,num_4,0.45,1.0,0.5,0.7,19.10275,26.74385,return,2.9745349001605064,,,,,,,701,22,female,left_right_width,2024-05-09_10h45.13.192,exp1,2021.2.3,59.99570430280008,
,,,,,,,,,,,,,,,,4,8.9,9.633333333333333,10.366666666666667,11.1,0,0.7333333333333333,0.18333333333333326,0.55,2.75,10,match,36.05,321,347,374,400,0,9,9,9,9,0,,,,,0,0,0,0,0,32,32,1,,,,,num_4,1.092133899917826,num_4,0.2,1.0,0.65,0.9,24.83358,34.38495,return,5.0472762999124825,,,,,,,701,22,female,left_right_width,2024-05-09_10h45.13.192,exp1,2021.2.3,59.99570430280008,
,,,,,,,,,,,,,,,,5,8.65,9.325,10,10.675,11.35,0.675,0.42500000000000004,0.25,2.95,10,match,36.05,312,336,361,385,409,9,9,9,9,9,,,,,0,0,0,0,0,33,33,31,,,,,num_5,1.34292189986445,num_5,0.3,0.7,0.3,0.7,11.46165,26.74385,return,1.2882652999833226,,,,,,,701,22,female,left_right_width,2024-05-09_10h45.13.192,exp1,2021.2.3,59.99570430280008,
,,,,,,,,,,,,,,,,5,8.65,9.325,10,10.675,11.35,0.675,0.275,0.4,3.1,10,match,36.05,312,336,361,385,409,9,9,9,9,9,,,,,0,0,0,0,0,34,34,33,,,,,num_5,1.9815015001222491,num_5,0.1,0.7,0.35,0.7,13.37193,26.74385,return,3.325695199891925,,,,,,,701,22,female,left_right_width,2024-05-09_10h45.13.192,exp1,2021.2.3,59.99570430280008,
,,,,,,,,,,,,,,,,4,8.65,9.55,10.45,11.35,0,0.9,0.65,0.25,2.95,10,initial,36.05,312,344,377,409,0,9,9,9,9,0,,,,,0,0,0,0,0,35,35,30,,,,,num_4,1.0397767000831664,num_4,0.35,0.8,0.10000000000000002,0.7,3.82055,26.74385,return,2.6291057001799345,,,,,,,701,22,female,left_right_width,2024-05-09_10h45.13.192,exp1,2021.2.3,59.99570430280008,
,,,,,,,,,,,,,,,,4,8.9,9.633333333333333,10.366666666666667,11.1,0,0.7333333333333334,0.4833333333333334,0.25,2.45,10,match,36.05,321,347,374,400,0,9,9,9,9,0,,,,,0,0,0,0,0,36,36,3,,,,,num_4,0.7871566000394523,num_4,0.2,0.7,0.15000000000000002,0.5,5.73083,19.10275,return,5.1862081999424845,,,,,,,701,22,female,left_right_width,2024-05-09_10h45.13.192,exp1,2021.2.3,59.99570430280008,
,,,,,,,,,,,,,,,,5,7.8,8.9,10,11.1,12.2,1.1,0.55,0.55,4.95,10,initial,36.05,281,321,361,400,440,9,9,9,9,9,,,,,0,0,0,0,0,37,37,34,,,,,num_4,0.9925450999289751,num_4,0.1,0.6,0.49999999999999994,0.9,19.10275,34.38495,return,5.831627999898046,,,,,,,701,22,female,left_right_width,2024-05-09_10h45.13.192,exp1,2021.2.3,59.99570430280008,
,,,,,,,,,,,,,,,,4,8.65,9.55,10.45,11.35,0,0.9,0.5,0.4,3.1,10,initial,36.05,312,344,377,409,0,9,9,9,9,0,,,,,0,0,0,0,0,38,38,32,,,,,num_4,0.997858100105077,num_4,0.25,0.6,0.3,0.7,11.46165,26.74385,return,3.228940499946475,,,,,,,701,22,female,left_right_width,2024-05-09_10h45.13.192,exp1,2021.2.3,59.99570430280008,
,,,,,,,,,,,,,,,,5,8.35,9.175,10,10.825,11.65,0.8250000000000001,0.275,0.55,3.85,10,match,36.05,301,331,361,390,420,9,9,9,9,9,,,,,0,0,0,0,0,39,39,18,,,,,num_4,1.3010458999779075,num_4,0.4,0.8,0.55,0.9,21.01303,34.38495,return,3.6157666000071913,,,,,,,701,22,female,left_right_width,2024-05-09_10h45.13.192,exp1,2021.2.3,59.99570430280008,
,,,,,,,,,,,,,,,,3,8.9,10,11.1,0,0,1.1,0.7000000000000001,0.4,2.6000000000000005,10,initial,36.05,321,361,400,0,0,9,9,9,0,0,,,,,0,0,0,0,0,40,40,4,,,,,num_3,1.126573600107804,num_3,0.15,1,0.6,0.95,22.9233,36.29523,return,4.488049200037494,,,,,,,701,22,female,left_right_width,2024-05-09_10h45.13.192,exp1,2021.2.3,59.99570430280008,
,,,,,,,,,,,,,,,,3,9.1,10,10.9,0,0,0.9,0.65,0.25,2.05,10,initial,36.05,328,361,393,0,0,9,9,9,0,0,,,,,0,0,0,0,0,41,41,13,,,,,num_3,1.275574899977073,num_3,0.45,1,0.20000000000000007,0.85,7.6411,32.47468,return,2.9354950000997633,,,,,,,701,22,female,left_right_width,2024-05-09_10h45.13.192,exp1,2021.2.3,59.99570430280008,
,,,,,,,,,,,,,,,,4,9.1,9.7,10.3,10.9,0,0.6000000000000001,0.20000000000000004,0.4,2.2,10,match,36.05,328,350,371,393,0,9,9,9,9,0,,,,,0,0,0,0,0,42,42,16,,,,,num_3,0.9597646999172866,num_3,0.35,1.1,0.65,1.05,24.83358,40.11578,return,4.152188500156626,,,,,,,701,22,female,left_right_width,2024-05-09_10h45.13.192,exp1,2021.2.3,59.99570430280008,
,,,,,,,,,,,,,,,,4,8.825,9.608333333333333,10.391666666666667,11.175,0,0.7833333333333333,0.5333333333333333,0.25,2.6,10,match,36.05,318,346,375,403,0,9,9,9,9,0,,,,,0,0,0,0,0,43,43,5,,,,,num_4,1.227853300049901,num_4,0.2,0.9,0.2,0.9,7.6411,34.38495,return,0.9417896999511868,,,,,,,701,22,female,left_right_width,2024-05-09_10h45.13.192,exp1,2021.2.3,59.99570430280008,
,,,,,,,,,,,,,,,,3,8.6,10,11.4,0,0,1.4,0.85,0.55,3.35,10,match,36.05,310,361,411,0,0,9,9,9,0,0,,,,,0,0,0,0,0,44,44,41,,,,,num_3,0.8322379000019282,num_3,0.35,0.4,0.7000000000000001,1.05,26.74385,40.11578,return,7.278470600023866,,,,,,,701,22,female,left_right_width,2024-05-09_10h45.13.192,exp1,2021.2.3,59.99570430280008,
,,,,,,,,,,,,,,,,4,8.95,9.65,10.35,11.05,0,0.7,0.44999999999999996,0.25,2.3499999999999996,10,initial,36.05,323,348,373,398,0,9,9,9,9,0,,,,,0,0,0,0,0,45,45,24,,,,,num_3,0.8925516000017524,num_3,0.3,0.6,0.25,0.9,9.55138,34.38495,return,4.727772000012919,,,,,,,701,22,female,left_right_width,2024-05-09_10h45.13.192,exp1,2021.2.3,59.99570430280008,
,,,,,,,,,,,,,,,,4,8.35,9.45,10.55,11.65,0,1.1,0.55,0.55,3.8500000000000005,10,initial,36.05,301,341,380,420,0,9,9,9,9,0,,,,,0,0,0,0,0,46,46,17,,,,,num_4,1.1718617998994887,num_4,0.1,1.1,0.7000000000000001,1.1,26.74385,42.02605,return,3.89170809998177,,,,,,,701,22,female,left_right_width,2024-05-09_10h45.13.192,exp1,2021.2.3,59.99570430280008,
,,,,,,,,,,,,,,,,3,8.525,10,11.475,0,0,1.475,1.225,0.25,3.2,10,match,36.05,307,361,414,0,0,9,9,9,0,0,,,,,0,0,0,0,0,47,47,45,,,,,num_3,0.9130082000046968,num_3,0.35,1.3,0.10000000000000002,1.3,3.82055,49.66716,return,2.827858499949798,,,,,,,701,22,female,left_right_width,2024-05-09_10h45.13.192,exp1,2021.2.3,59.99570430280008,
,,,,,,,,,,,,,,,,5,7.8,8.9,10,11.1,12.2,1.1,0.7000000000000001,0.4,4.800000000000001,10,initial,36.05,281,321,361,400,440,9,9,9,9,9,,,,,0,0,0,0,0,48,48,38,,,,,num_4,1.5157226000446826,num_4,0.35,1.3,0.39999999999999997,1.3,15.2822,49.66716,return,3.310502100037411,,,,,,,701,22,female,left_right_width,2024-05-09_10h45.13.192,exp1,2021.2.3,59.99570430280008,
,,,,,,,,,,,,,,,,3,8.6,10,11.4,0,0,1.4,1.15,0.25,3.05,10,match,36.05,310,361,411,0,0,9,9,9,0,0,,,,,0,0,0,0,0,49,49,43,,,,,num_3,1.2609188000205904,num_3,0.45,1.1,0.20000000000000007,1.0,7.6411,38.2055,return,3.2735650001559407,,,,,,,701,22,female,left_right_width,2024-05-09_10h45.13.192,exp1,2021.2.3,59.99570430280008,
,,,,,,,,,,,,,,,,3,9.1,10,10.9,0,0,0.9,0.35,0.55,2.35,10,initial,36.05,328,361,393,0,0,9,9,9,0,0,,,,,0,0,0,0,0,50,50,11,,,,,num_3,0.8478415000718087,num_3,0.25,0.7,0.5499999999999999,0.75,21.01303,28.65413,return,3.052862700074911,,,,,,,701,22,female,left_right_width,2024-05-09_10h45.13.192,exp1,2021.2.3,59.99570430280008,
,,,,,,,,,,,,,,,,3,9.3,10,10.7,0,0,0.7,0.1499999999999999,0.55,1.95,10,initial,36.05,335,361,386,0,0,9,9,9,0,0,,,,,0,0,0,0,0,51,51,6,,,,,num_3,0.9723248998634517,num_3,0.3,1,0.65,0.85,24.83358,32.47468,return,5.012455199845135,,,,,,,701,22,female,left_right_width,2024-05-09_10h45.13.192,exp1,2021.2.3,59.99570430280008,
,,,,,,,,,,,,,,,,,,,,,,,,,,,,,,,,,,,,,,,,,,,0,0,0,0,,,,,,,,,,,,,,,,,,,,,,760.8103755000047,None,760.8103755000047,None,701,22,female,left_right_width,2024-05-09_10h45.13.192,exp1,2021.2.3,59.99570430280008,
,,,,,,,,,,,,,,,,5,8.95,9.475,10,10.525,11.05,0.525,0.125,0.4,2.5,10,match,36.05,323,342,361,379,398,9,9,9,9,9,,,,,1,0,1,0,0,0,0,27,,,,,num_4,1.3509542001411319,num_4,0.15,0.7,0.39999999999999997,0.7,15.2822,26.74385,return,3.3597897000145167,,,,,,,701,22,female,left_right_width,2024-05-09_10h45.13.192,exp1,2021.2.3,59.99570430280008,
,,,,,,,,,,,,,,,,5,8.2,9.1,10,10.9,11.8,0.9,0.35,0.55,4.15,10,initial,36.05,296,328,361,393,425,9,9,9,9,9,,,,,1,0,1,0,0,1,1,46,,,,,num_4,0.9704515000339597,num_4,0.15,1.2,0.65,1.0,24.83358,38.2055,return,3.2664163999725133,,,,,,,701,22,female,left_right_width,2024-05-09_10h45.13.192,exp1,2021.2.3,59.99570430280008,
,,,,,,,,,,,,,,,,4,8.65,9.55,10.45,11.35,0,0.9,0.5,0.4,3.1,10,initial,36.05,312,344,377,409,0,9,9,9,9,0,,,,,1,0,1,0,0,2,2,32,,,,,num_4,1.1852237998973578,num_4,0.45,1.0,0.25000000000000006,0.9,9.55138,34.38495,return,4.8483047999907285,,,,,,,701,22,female,left_right_width,2024-05-09_10h45.13.192,exp1,2021.2.3,59.99570430280008,
,,,,,,,,,,,,,,,,5,8.65,9.325,10,10.675,11.35,0.675,0.275,0.4,3.1,10,match,36.05,312,336,361,385,409,9,9,9,9,9,,,,,1,0,1,0,0,3,3,33,,,,,num_4,0.8437606999650598,num_4,0.45,1.2,0.55,0.9,21.01303,34.38495,return,2.6813125999178737,,,,,,,701,22,female,left_right_width,2024-05-09_10h45.13.192,exp1,2021.2.3,59.99570430280008,
,,,,,,,,,,,,,,,,3,7.8,10,12.2,0,0,2.2,1.65,0.55,4.95,10,match,36.05,281,361,440,0,0,9,9,9,0,0,,,,,1,0,1,0,0,4,4,35,,,,,num_3,1.1791286999359727,num_3,0.3,1.2,0.7000000000000001,1.45,26.74385,55.39798,return,5.850875800009817,,,,,,,701,22,female,left_right_width,2024-05-09_10h45.13.192,exp1,2021.2.3,59.99570430280008,
,,,,,,,,,,,,,,,,3,8.525,10,11.475,0,0,1.475,1.225,0.25,3.2,10,match,36.05,307,361,414,0,0,9,9,9,0,0,,,,,1,0,1,0,0,5,5,45,,,,,num_3,0.9863680999260396,num_3,0.35,0.4,0.2,1.05,7.6411,40.11578,return,8.14576520002447,,,,,,,701,22,female,left_right_width,2024-05-09_10h45.13.192,exp1,2021.2.3,59.99570430280008,
,,,,,,,,,,,,,,,,4,8.35,9.45,10.55,11.65,0,1.1,0.7000000000000001,0.4,3.7,10,initial,36.05,301,341,380,420,0,9,9,9,9,0,,,,,1,0,1,0,0,6,6,21,,,,,num_4,1.005218799924478,num_4,0.35,0.4,0.39999999999999997,1.0,15.2822,38.2055,return,11.315738799981773,,,,,,,701,22,female,left_right_width,2024-05-09_10h45.13.192,exp1,2021.2.3,59.99570430280008,
,,,,,,,,,,,,,,,,4,9.1,9.7,10.3,10.9,0,0.5999999999999999,0.3499999999999999,0.25,2.05,10,match,36.05,328,350,371,393,0,9,9,9,9,0,,,,,1,0,1,0,0,7,7,14,,,,,num_4,0.866284699877724,num_4,0.3,1.3,0.2,0.9,7.6411,34.38495,return,3.9670058998744935,,,,,,,701,22,female,left_right_width,2024-05-09_10h45.13.192,exp1,2021.2.3,59.99570430280008,
,,,,,,,,,,,,,,,,3,8.2,10,11.8,0,0,1.8,1.25,0.55,4.15,10,match,36.05,296,361,425,0,0,9,9,9,0,0,,,,,1,0,1,0,0,8,8,47,,,,,num_3,1.0977306999266148,num_3,0.35,0.4,0.5499999999999999,1.0,21.01303,38.2055,return,10.78125930018723,,,,,,,701,22,female,left_right_width,2024-05-09_10h45.13.192,exp1,2021.2.3,59.99570430280008,
,,,,,,,,,,,,,,,,4,8.9,9.633333333333333,10.366666666666667,11.1,0,0.7333333333333333,0.18333333333333326,0.55,2.75,10,match,36.05,321,347,374,400,0,9,9,9,9,0,,,,,1,0,1,0,0,9,9,1,,,,,num_3,0.9991537001915276,num_3,0.35,1.2,0.6,0.9,22.9233,34.38495,return,5.390229299897328,,,,,,,701,22,female,left_right_width,2024-05-09_10h45.13.192,exp1,2021.2.3,59.99570430280008,
,,,,,,,,,,,,,,,,3,8.9,10,11.1,0,0,1.1,0.8500000000000001,0.25,2.45,10,initial,36.05,321,361,400,0,0,9,9,9,0,0,,,,,1,0,1,0,0,10,10,2,,,,,num_3,0.9038543000351638,num_3,0.2,0.7,0.15000000000000002,1.0,5.73083,38.2055,return,5.778264299966395,,,,,,,701,22,female,left_right_width,2024-05-09_10h45.13.192,exp1,2021.2.3,59.99570430280008,
,,,,,,,,,,,,,,,,4,8.65,9.55,10.45,11.35,0,0.9,0.65,0.25,2.95,10,initial,36.05,312,344,377,409,0,9,9,9,9,0,,,,,1,0,1,0,0,11,11,30,,,,,num_4,1.1921926999930292,num_4,0.25,0.6,0.15000000000000002,0.8,5.73083,30.5644,return,2.8716329999733716,,,,,,,701,22,female,left_right_width,2024-05-09_10h45.13.192,exp1,2021.2.3,59.99570430280008,
,,,,,,,,,,,,,,,,3,8.9,10,11.1,0,0,1.1,0.55,0.55,2.75,10,initial,36.05,321,361,400,0,0,9,9,9,0,0,,,,,1,0,1,0,0,12,12,0,,,,,num_3,0.8755517997778952,num_3,0.15,1,0.5499999999999999,0.95,21.01303,36.29523,return,4.743672000011429,,,,,,,701,22,female,left_right_width,2024-05-09_10h45.13.192,exp1,2021.2.3,59.99570430280008,
,,,,,,,,,,,,,,,,4,8.825,9.608333333333333,10.391666666666667,11.175,0,0.7833333333333333,0.5333333333333333,0.25,2.6,10,match,36.05,318,346,375,403,0,9,9,9,9,0,,,,,1,0,1,0,0,13,13,5,,,,,num_4,0.9570182999596,num_4,0.15,0.9,0.15000000000000002,0.7,5.73083,26.74385,return,4.069510400062427,,,,,,,701,22,female,left_right_width,2024-05-09_10h45.13.192,exp1,2021.2.3,59.99570430280008,
,,,,,,,,,,,,,,,,4,8.35,9.45,10.55,11.65,0,1.1,0.55,0.55,3.8500000000000005,10,initial,36.05,301,341,380,420,0,9,9,9,9,0,,,,,1,0,1,0,0,14,14,17,,,,,num_3,1.1585999999660999,num_3,0.2,0.3,1.0500000000000003,1.3,40.11578,49.66716,return,8.583161799935624,,,,,,,701,22,female,left_right_width,2024-05-09_10h45.13.192,exp1,2021.2.3,59.99570430280008,
,,,,,,,,,,,,,,,,3,9.1,10,10.9,0,0,0.9,0.65,0.25,2.05,10,initial,36.05,328,361,393,0,0,9,9,9,0,0,,,,,1,0,1,0,0,15,15,13,,,,,num_3,1.1610411999281496,num_3,0.2,0.3,0.25,1.15,9.55138,43.93633,return,4.665610100142658,,,,,,,701,22,female,left_right_width,2024-05-09_10h45.13.192,exp1,2021.2.3,59.99570430280008,
,,,,,,,,,,,,,,,,4,9.3,9.766666666666667,10.233333333333333,10.7,0,0.4666666666666667,0.21666666666666665,0.25,1.65,10,match,36.05,335,352,369,386,0,9,9,9,9,0,,,,,1,0,1,0,0,16,16,8,,,,,num_4,0.8984502998646349,num_4,0.25,0.6,0.15000000000000002,0.4,5.73083,15.2822,return,3.9015778000466526,,,,,,,701,22,female,left_right_width,2024-05-09_10h45.13.192,exp1,2021.2.3,59.99570430280008,
,,,,,,,,,,,,,,,,3,8.2,10,11.8,0,0,1.8,1.55,0.25,3.85,10,match,36.05,296,361,425,0,0,9,9,9,0,0,,,,,1,0,1,0,0,17,17,49,,,,,num_3,0.9313442998100072,num_3,0.45,0.9,0.10000000000000007,1.05,3.82055,40.11578,return,4.941105800215155,,,,,,,701,22,female,left_right_width,2024-05-09_10h45.13.192,exp1,2021.2.3,59.99570430280008,
,,,,,,,,,,,,,,,,5,8.35,9.175,10,10.825,11.65,0.825,0.575,0.25,3.55,10,match,36.05,301,331,361,390,420,9,9,9,9,9,,,,,1,0,1,0,0,18,18,20,,,,,num_5,1.9306143000721931,num_5,0.45,1.3,0.10000000000000007,0.95,3.82055,36.29523,return,7.628398499917239,,,,,,,701,22,female,left_right_width,2024-05-09_10h45.13.192,exp1,2021.2.3,59.99570430280008,
,,,,,,,,,,,,,,,,5,7.8,8.9,10,11.1,12.2,1.1,0.8500000000000001,0.25,4.65,10,initial,36.05,281,321,361,400,440,9,9,9,9,9,,,,,1,0,1,0,0,19,19,36,,,,,num_4,1.412429800024256,num_4,0.45,0.6,0.15000000000000008,0.7,5.73083,26.74385,return,5.83490450005047,,,,,,,701,22,female,left_right_width,2024-05-09_10h45.13.192,exp1,2021.2.3,59.99570430280008,
,,,,,,,,,,,,,,,,4,9.1,9.7,10.3,10.9,0,0.6000000000000001,0.20000000000000004,0.4,2.2,10,match,36.05,328,350,371,393,0,9,9,9,9,0,,,,,1,0,1,0,0,20,20,16,,,,,num_4,1.0511987002100796,num_4,0.35,0.9,0.35,0.7,13.37193,26.74385,return,5.375820899847895,,,,,,,701,22,female,left_right_width,2024-05-09_10h45.13.192,exp1,2021.2.3,59.99570430280008,
,,,,,,,,,,,,,,,,3,8.9,10,11.1,0,0,1.1,0.7000000000000001,0.4,2.6000000000000005,10,initial,36.05,321,361,400,0,0,9,9,9,0,0,,,,,1,0,1,0,0,21,21,4,,,,,num_3,1.8495222001802176,num_3,0.25,1.2,0.49999999999999994,1.0,19.10275,38.2055,return,6.014914799947292,,,,,,,701,22,female,left_right_width,2024-05-09_10h45.13.192,exp1,2021.2.3,59.99570430280008,
,,,,,,,,,,,,,,,,5,8.95,9.475,10,10.525,11.05,0.525,0.275,0.25,2.35,10,match,36.05,323,342,361,379,398,9,9,9,9,9,,,,,1,0,1,0,0,22,22,25,,,,,num_5,2.235753499902785,num_5,0.3,0.5,0.25,0.45,9.55138,17.19248,return,2.577011600136757,,,,,,,701,22,female,left_right_width,2024-05-09_10h45.13.192,exp1,2021.2.3,59.99570430280008,
,,,,,,,,,,,,,,,,3,9.1,10,10.9,0,0,0.9,0.35,0.55,2.35,10,initial,36.05,328,361,393,0,0,9,9,9,0,0,,,,,1,0,1,0,0,23,23,11,,,,,num_3,0.9149033001158386,num_3,0.1,0.7,0.49999999999999994,0.75,19.10275,28.65413,return,3.853491600137204,,,,,,,701,22,female,left_right_width,2024-05-09_10h45.13.192,exp1,2021.2.3,59.99570430280008,
,,,,,,,,,,,,,,,,5,8.275,9.1375,10,10.8625,11.725,0.8625,0.6125,0.25,3.7,10,match,36.05,298,329,361,392,423,9,9,9,9,9,,,,,1,0,1,0,0,24,24,22,,,,,num_5,0.9663363001309335,num_5,0.2,1.0,0.2,0.9,7.6411,34.38495,return,2.1910385999362916,,,,,,,701,22,female,left_right_width,2024-05-09_10h45.13.192,exp1,2021.2.3,59.99570430280008,
,,,,,,,,,,,,,,,,3,7.800000000000001,10,12.2,0,0,2.1999999999999997,1.7999999999999998,0.4,4.8,10,match,36.05,281,361,440,0,0,9,9,9,0,0,,,,,1,0,1,0,0,25,25,39,,,,,num_3,0.9285995000973344,num_3,0.45,0.7,0.35000000000000003,1.5,13.37193,57.30826,return,6.170415800064802,,,,,,,701,22,female,left_right_width,2024-05-09_10h45.13.192,exp1,2021.2.3,59.99570430280008,
,,,,,,,,,,,,,,,,4,8.9,9.633333333333333,10.366666666666667,11.1,0,0.7333333333333334,0.4833333333333334,0.25,2.45,10,match,36.05,321,347,374,400,0,9,9,9,9,0,,,,,1,0,1,0,0,26,26,3,,,,,num_4,3.0821501999162138,num_4,0.15,1.3,0.3,0.8,11.46165,30.5644,return,3.870423899963498,,,,,,,701,22,female,left_right_width,2024-05-09_10h45.13.192,exp1,2021.2.3,59.99570430280008,
,,,,,,,,,,,,,,,,3,9.1,10,10.9,0,0,0.9,0.5,0.4,2.2,10,initial,36.05,328,361,393,0,0,9,9,9,0,0,,,,,1,0,1,0,0,27,27,15,,,,,num_3,1.196753199910745,num_3,0.1,1.2,0.49999999999999994,1.05,19.10275,40.11578,return,3.3876103998627514,,,,,,,701,22,female,left_right_width,2024-05-09_10h45.13.192,exp1,2021.2.3,59.99570430280008,
,,,,,,,,,,,,,,,,5,8.65,9.325,10,10.675,11.35,0.675,0.125,0.55,3.25,10,match,36.05,312,336,361,385,409,9,9,9,9,9,,,,,1,0,1,0,0,28,28,29,,,,,num_4,1.1592841998208314,num_4,0.25,1.2,0.44999999999999996,0.8,17.19248,30.5644,return,3.3195776999928057,,,,,,,701,22,female,left_right_width,2024-05-09_10h45.13.192,exp1,2021.2.3,59.99570430280008,
,,,,,,,,,,,,,,,,4,9.3,9.766666666666667,10.233333333333333,10.7,0,0.4666666666666667,0.06666666666666665,0.4,1.8,10,match,36.05,335,352,369,386,0,9,9,9,9,0,,,,,1,0,1,0,0,29,29,10,,,,,num_4,1.6483388000633568,num_4,0.25,1.1,0.39999999999999997,0.6,15.2822,22.9233,return,6.71755599998869,,,,,,,701,22,female,left_right_width,2024-05-09_10h45.13.192,exp1,2021.2.3,59.99570430280008,
,,,,,,,,,,,,,,,,5,8.65,9.325,10,10.675,11.35,0.675,0.42500000000000004,0.25,2.95,10,match,36.05,312,336,361,385,409,9,9,9,9,9,,,,,1,0,1,0,0,30,30,31,,,,,num_4,0.9964868000242859,num_4,0.15,1.2,0.15,0.7,5.73083,26.74385,return,3.0195163001772016,,,,,,,701,22,female,left_right_width,2024-05-09_10h45.13.192,exp1,2021.2.3,59.99570430280008,
,,,,,,,,,,,,,,,,4,8.35,9.45,10.55,11.65,0,1.1,0.8500000000000001,0.25,3.5500000000000003,10,initial,36.05,301,341,380,420,0,9,9,9,9,0,,,,,1,0,1,0,0,31,31,19,,,,,num_4,0.8844526999164373,num_4,0.35,1.3,0.2,1.3,7.6411,49.66716,return,6.671693800017238,,,,,,,701,22,female,left_right_width,2024-05-09_10h45.13.192,exp1,2021.2.3,59.99570430280008,
,,,,,,,,,,,,,,,,3,8.2,10,11.8,0,0,1.7999999999999998,1.4,0.4,4,10,match,36.05,296,361,425,0,0,9,9,9,0,0,,,,,1,0,1,0,0,32,32,51,,,,,num_3,0.8236275999806821,num_3,0.3,0.5,0.39999999999999997,1.25,15.2822,47.75688,return,4.198060799855739,,,,,,,701,22,female,left_right_width,2024-05-09_10h45.13.192,exp1,2021.2.3,59.99570430280008,
,,,,,,,,,,,,,,,,5,7.8,8.9,10,11.1,12.2,1.1,0.55,0.55,4.95,10,initial,36.05,281,321,361,400,440,9,9,9,9,9,,,,,1,0,1,0,0,33,33,34,,,,,num_4,1.0293037998490036,num_4,0.25,0.6,0.49999999999999994,1.1,19.10275,42.02605,return,4.475088399834931,,,,,,,701,22,female,left_right_width,2024-05-09_10h45.13.192,exp1,2021.2.3,59.99570430280008,
,,,,,,,,,,,,,,,,5,8.2,9.1,10,10.9,11.8,0.9,0.5,0.4,4,10,initial,36.05,296,328,361,393,425,9,9,9,9,9,,,,,1,0,1,0,0,34,34,50,,,,,num_5,1.9792284001596272,num_5,0.25,0.3,0.39999999999999997,1.2,15.2822,45.8466,return,5.834873900050297,,,,,,,701,22,female,left_right_width,2024-05-09_10h45.13.192,exp1,2021.2.3,59.99570430280008,
,,,,,,,,,,,,,,,,4,9.1,9.7,10.3,10.9,0,0.6,0.04999999999999997,0.55,2.35,10,match,36.05,328,350,371,393,0,9,9,9,9,0,,,,,1,0,1,0,0,35,35,12,,,,,num_4,1.9631268999073654,num_4,0.3,1.1,0.39999999999999997,0.5,15.2822,19.10275,return,7.083672999870032,,,,,,,701,22,female,left_right_width,2024-05-09_10h45.13.192,exp1,2021.2.3,59.99570430280008,
,,,,,,,,,,,,,,,,3,8.6,10,11.4,0,0,1.4,0.85,0.55,3.35,10,match,36.05,310,361,411,0,0,9,9,9,0,0,,,,,1,0,1,0,0,36,36,41,,,,,num_3,1.0796633998397738,num_3,0.25,0.9,0.39999999999999997,1.15,15.2822,43.93633,return,9.403594100149348,,,,,,,701,22,female,left_right_width,2024-05-09_10h45.13.192,exp1,2021.2.3,59.99570430280008,
,,,,,,,,,,,,,,,,4,8.95,9.65,10.35,11.05,0,0.7,0.44999999999999996,0.25,2.3499999999999996,10,initial,36.05,323,348,373,398,0,9,9,9,9,0,,,,,1,0,1,0,0,37,37,24,,,,,num_4,1.1523681001272053,num_4,0.3,0.8,0.15000000000000002,0.9,5.73083,34.38495,return,2.7848900000099093,,,,,,,701,22,female,left_right_width,2024-05-09_10h45.13.192,exp1,2021.2.3,59.99570430280008,
,,,,,,,,,,,,,,,,4,8.65,9.55,10.45,11.35,0,0.9,0.35,0.55,3.25,10,initial,36.05,312,344,377,409,0,9,9,9,9,0,,,,,1,0,1,0,0,38,38,28,,,,,num_3,1.3151853000745177,num_3,0.45,0.6,0.5,1.05,19.10275,40.11578,return,6.509674899978563,,,,,,,701,22,female,left_right_width,2024-05-09_10h45.13.192,exp1,2021.2.3,59.99570430280008,
,,,,,,,,,,,,,,,,5,8.35,9.175,10,10.825,11.65,0.8250000000000001,0.275,0.55,3.85,10,match,36.05,301,331,361,390,420,9,9,9,9,9,,,,,1,0,1,0,0,39,39,18,,,,,num_4,1.0106210000813007,num_4,0.4,0.7,0.55,0.7,21.01303,26.74385,return,2.025093900039792,,,,,,,701,22,female,left_right_width,2024-05-09_10h45.13.192,exp1,2021.2.3,59.99570430280008,
,,,,,,,,,,,,,,,,3,7.8,10,12.2,0,0,2.2,1.9500000000000002,0.25,4.65,10,match,36.05,281,361,440,0,0,9,9,9,0,0,,,,,1,0,1,0,0,40,40,37,,,,,num_3,1.0390389999374747,num_3,0.3,1.2,0.10000000000000002,1.6,3.82055,61.12881,return,6.660493900068104,,,,,,,701,22,female,left_right_width,2024-05-09_10h45.13.192,exp1,2021.2.3,59.99570430280008,
,,,,,,,,,,,,,,,,3,9.3,10,10.7,0,0,0.7,0.1499999999999999,0.55,1.95,10,initial,36.05,335,361,386,0,0,9,9,9,0,0,,,,,1,0,1,0,0,41,41,6,,,,,num_3,0.827543499879539,num_3,0.3,1.2,0.49999999999999994,0.55,19.10275,21.01303,return,5.4009374000597745,,,,,,,701,22,female,left_right_width,2024-05-09_10h45.13.192,exp1,2021.2.3,59.99570430280008,
,,,,,,,,,,,,,,,,4,8.95,9.65,10.35,11.05,0,0.7,0.29999999999999993,0.4,2.5,10,initial,36.05,323,348,373,398,0,9,9,9,9,0,,,,,1,0,1,0,0,42,42,26,,,,,num_3,2.146538099972531,num_3,0.35,1.1,0.39999999999999997,0.85,15.2822,32.47468,return,3.275884500006214,,,,,,,701,22,female,left_right_width,2024-05-09_10h45.13.192,exp1,2021.2.3,59.99570430280008,
,,,,,,,,,,,,,,,,3,8.6,10,11.4,0,0,1.4,1.15,0.25,3.05,10,match,36.05,310,361,411,0,0,9,9,9,0,0,,,,,1,0,1,0,0,43,43,43,,,,,num_3,0.7675687000155449,num_3,0.4,0.5,0.25000000000000006,0.7,9.55138,26.74385,return,7.695944800041616,,,,,,,701,22,female,left_right_width,2024-05-09_10h45.13.192,exp1,2021.2.3,59.99570430280008,
,,,,,,,,,,,,,,,,5,8.6,9.3,10,10.7,11.4,0.7,0.44999999999999996,0.25,3.05,10,initial,36.05,310,335,361,386,411,9,9,9,9,9,,,,,1,0,1,0,0,44,44,42,,,,,num_4,1.1971860998310149,num_4,0.25,0.3,0.2,1.2,7.6411,45.8466,return,5.116417499957606,,,,,,,701,22,female,left_right_width,2024-05-09_10h45.13.192,exp1,2021.2.3,59.99570430280008,
,,,,,,,,,,,,,,,,3,9.3,10,10.7,0,0,0.7,0.29999999999999993,0.4,1.8,10,initial,36.05,335,361,386,0,0,9,9,9,0,0,,,,,1,0,1,0,0,45,45,9,,,,,num_3,0.8230113999452442,num_3,0.45,0.6,0.35000000000000003,0.6,13.37193,22.9233,return,2.27715320000425,,,,,,,701,22,female,left_right_width,2024-05-09_10h45.13.192,exp1,2021.2.3,59.99570430280008,
,,,,,,,,,,,,,,,,5,7.8,8.9,10,11.1,12.2,1.1,0.7000000000000001,0.4,4.800000000000001,10,initial,36.05,281,321,361,400,440,9,9,9,9,9,,,,,1,0,1,0,0,46,46,38,,,,,num_5,1.1971531000453979,num_5,0.25,1.3,0.35,1.1,13.37193,42.02605,return,4.172178199980408,,,,,,,701,22,female,left_right_width,2024-05-09_10h45.13.192,exp1,2021.2.3,59.99570430280008,
,,,,,,,,,,,,,,,,5,8.6,9.3,10,10.7,11.4,0.7,0.1499999999999999,0.55,3.3499999999999996,10,initial,36.05,310,335,361,386,411,9,9,9,9,9,,,,,1,0,1,0,0,47,47,40,,,,,num_5,1.256680800113827,num_5,0.1,0.3,0.35,0.45,13.37193,17.19248,return,4.852783000096679,,,,,,,701,22,female,left_right_width,2024-05-09_10h45.13.192,exp1,2021.2.3,59.99570430280008,
,,,,,,,,,,,,,,,,4,8.95,9.65,10.35,11.05,0,0.7,0.1499999999999999,0.55,2.65,10,initial,36.05,323,348,373,398,0,9,9,9,9,0,,,,,1,0,1,0,0,48,48,23,,,,,num_4,1.1085217001382262,num_4,0.4,0.9,0.45,0.6,17.19248,22.9233,return,2.534933099988848,,,,,,,701,22,female,left_right_width,2024-05-09_10h45.13.192,exp1,2021.2.3,59.99570430280008,
,,,,,,,,,,,,,,,,3,9.3,10,10.7,0,0,0.7,0.44999999999999996,0.25,1.65,10,initial,36.05,335,361,386,0,0,9,9,9,0,0,,,,,1,0,1,0,0,49,49,7,,,,,num_3,1.7974058999679983,num_3,0.4,0.8,0.15000000000000008,0.7,5.73083,26.74385,return,3.532407799968496,,,,,,,701,22,female,left_right_width,2024-05-09_10h45.13.192,exp1,2021.2.3,59.99570430280008,
,,,,,,,,,,,,,,,,5,8.2,9.1,10,10.9,11.8,0.9,0.65,0.25,3.85,10,initial,36.05,296,328,361,393,425,9,9,9,9,9,,,,,1,0,1,0,0,50,50,48,,,,,num_5,0.9467134999576956,num_5,0.25,0.3,0.15000000000000002,0.75,5.73083,28.65413,return,4.411941800033674,,,,,,,701,22,female,left_right_width,2024-05-09_10h45.13.192,exp1,2021.2.3,59.99570430280008,
,,,,,,,,,,,,,,,,5,8.6,9.3,10,10.7,11.4,0.7,0.29999999999999993,0.4,3.1999999999999997,10,initial,36.05,310,335,361,386,411,9,9,9,9,9,,,,,1,0,1,0,0,51,51,44,,,,,num_5,1.8545882999897003,num_5,0.45,1.2,0.4,0.75,15.2822,28.65413,return,4.915000299923122,,,,,,,701,22,female,left_right_width,2024-05-09_10h45.13.192,exp1,2021.2.3,59.99570430280008,
,,,,,,,,,,,,,,,,,,,,,,,,,,,,,,,,,,,,,,,,,,,1,0,1,0,,,,,,,,,,,,,,,,,,,,,,1238.7430896000005,None,1238.7430896000005,None,701,22,female,left_right_width,2024-05-09_10h45.13.192,exp1,2021.2.3,59.99570430280008,
,,,,,,,,,,,,,,,,5,8.2,9.1,10,10.9,11.8,0.9,0.35,0.55,4.15,10,initial,36.05,296,328,361,393,425,9,9,9,9,9,,,,,2,0,2,0,0,0,0,46,,,,,num_4,1.2092311999294907,num_4,0.35,0.6,0.49999999999999994,0.9,19.10275,34.38495,return,3.448051800020039,,,,,,,701,22,female,left_right_width,2024-05-09_10h45.13.192,exp1,2021.2.3,59.99570430280008,
,,,,,,,,,,,,,,,,3,8.9,10,11.1,0,0,1.1,0.8500000000000001,0.25,2.45,10,initial,36.05,321,361,400,0,0,9,9,9,0,0,,,,,2,0,2,0,0,1,1,2,,,,,num_3,0.9391123000532389,num_3,0.1,1,0.2,1,7.6411,38.2055,return,1.9722308998461813,,,,,,,701,22,female,left_right_width,2024-05-09_10h45.13.192,exp1,2021.2.3,59.99570430280008,
,,,,,,,,,,,,,,,,3,9.1,10,10.9,0,0,0.9,0.5,0.4,2.2,10,initial,36.05,328,361,393,0,0,9,9,9,0,0,,,,,2,0,2,0,0,2,2,15,,,,,num_3,0.9783572000451386,num_3,0.15,1.2,0.39999999999999997,1.15,15.2822,43.93633,return,3.3543104000855237,,,,,,,701,22,female,left_right_width,2024-05-09_10h45.13.192,exp1,2021.2.3,59.99570430280008,
,,,,,,,,,,,,,,,,5,8.65,9.325,10,10.675,11.35,0.675,0.125,0.55,3.25,10,match,36.05,312,336,361,385,409,9,9,9,9,9,,,,,2,0,2,0,0,3,3,29,,,,,num_4,1.0471264000516385,num_4,0.4,1.2,0.5,0.7,19.10275,26.74385,return,5.2765702998731285,,,,,,,701,22,female,left_right_width,2024-05-09_10h45.13.192,exp1,2021.2.3,59.99570430280008,
,,,,,,,,,,,,,,,,5,7.8,8.9,10,11.1,12.2,1.1,0.7000000000000001,0.4,4.800000000000001,10,initial,36.05,281,321,361,400,440,9,9,9,9,9,,,,,2,0,2,0,0,4,4,38,,,,,num_4,1.0343547000084072,num_4,0.3,0.3,0.3,0.8,11.46165,30.5644,return,5.039787699934095,,,,,,,701,22,female,left_right_width,2024-05-09_10h45.13.192,exp1,2021.2.3,59.99570430280008,
,,,,,,,,,,,,,,,,3,8.6,10,11.4,0,0,1.4,0.85,0.55,3.35,10,match,36.05,310,361,411,0,0,9,9,9,0,0,,,,,2,0,2,0,0,5,5,41,,,,,num_3,0.7829416000749916,num_3,0.3,1.3,0.44999999999999996,1.3,17.19248,49.66716,return,2.079298499971628,,,,,,,701,22,female,left_right_width,2024-05-09_10h45.13.192,exp1,2021.2.3,59.99570430280008,
,,,,,,,,,,,,,,,,4,8.9,9.633333333333333,10.366666666666667,11.1,0,0.7333333333333334,0.4833333333333334,0.25,2.45,10,match,36.05,321,347,374,400,0,9,9,9,9,0,,,,,2,0,2,0,0,6,6,3,,,,,num_4,1.0711260000243783,num_4,0.25,1.1,0.25,0.9,9.55138,34.38495,return,2.3869666000828147,,,,,,,701,22,female,left_right_width,2024-05-09_10h45.13.192,exp1,2021.2.3,59.99570430280008,
,,,,,,,,,,,,,,,,4,8.95,9.65,10.35,11.05,0,0.7,0.44999999999999996,0.25,2.3499999999999996,10,initial,36.05,323,348,373,398,0,9,9,9,9,0,,,,,2,0,2,0,0,7,7,24,,,,,num_4,0.9022637999150902,num_4,0.25,0.9,0.10000000000000002,0.6,3.82055,22.9233,return,4.177131899865344,,,,,,,701,22,female,left_right_width,2024-05-09_10h45.13.192,exp1,2021.2.3,59.99570430280008,
,,,,,,,,,,,,,,,,3,8.2,10,11.8,0,0,1.7999999999999998,1.4,0.4,4,10,match,36.05,296,361,425,0,0,9,9,9,0,0,,,,,2,0,2,0,0,8,8,51,,,,,num_3,0.8330277998466045,num_3,0.35,0.7,0.35,1.35,13.37193,51.57743,return,3.1029354000929743,,,,,,,701,22,female,left_right_width,2024-05-09_10h45.13.192,exp1,2021.2.3,59.99570430280008,
,,,,,,,,,,,,,,,,3,7.8,10,12.2,0,0,2.2,1.9500000000000002,0.25,4.65,10,match,36.05,281,361,440,0,0,9,9,9,0,0,,,,,2,0,2,0,0,9,9,37,,,,,num_3,1.0189210001844913,num_3,0.2,0.9,0.2,1.7,7.6411,64.94936,return,5.3925312999635935,,,,,,,701,22,female,left_right_width,2024-05-09_10h45.13.192,exp1,2021.2.3,59.99570430280008,
,,,,,,,,,,,,,,,,4,9.1,9.7,10.3,10.9,0,0.6000000000000001,0.20000000000000004,0.4,2.2,10,match,36.05,328,350,371,393,0,9,9,9,9,0,,,,,2,0,2,0,0,10,10,16,,,,,num_4,1.5099917000625283,num_4,0.25,0.3,0.39999999999999997,0.5,15.2822,19.10275,return,4.232554699992761,,,,,,,701,22,female,left_right_width,2024-05-09_10h45.13.192,exp1,2021.2.3,59.99570430280008,
,,,,,,,,,,,,,,,,3,9.1,10,10.9,0,0,0.9,0.35,0.55,2.35,10,initial,36.05,328,361,393,0,0,9,9,9,0,0,,,,,2,0,2,0,0,11,11,11,,,,,num_3,0.8383067999966443,num_3,0.3,0.5,0.5499999999999999,0.75,21.01303,28.65413,return,4.2598643999081105,,,,,,,701,22,female,left_right_width,2024-05-09_10h45.13.192,exp1,2021.2.3,59.99570430280008,
,,,,,,,,,,,,,,,,5,7.8,8.9,10,11.1,12.2,1.1,0.8500000000000001,0.25,4.65,10,initial,36.05,281,321,361,400,440,9,9,9,9,9,,,,,2,0,2,0,0,12,12,36,,,,,num_6,2.218627099879086,num_6,0.35,1.1,0.2,0.6,7.6411,22.9233,return,7.168282400118187,,,,,,,701,22,female,left_right_width,2024-05-09_10h45.13.192,exp1,2021.2.3,59.99570430280008,
,,,,,,,,,,,,,,,,5,8.2,9.1,10,10.9,11.8,0.9,0.65,0.25,3.85,10,initial,36.05,296,328,361,393,425,9,9,9,9,9,,,,,2,0,2,0,0,13,13,48,,,,,num_5,1.045009900117293,num_5,0.1,1.1,0.15000000000000002,0.65,5.73083,24.83358,return,3.098305799998343,,,,,,,701,22,female,left_right_width,2024-05-09_10h45.13.192,exp1,2021.2.3,59.99570430280008,
,,,,,,,,,,,,,,,,5,8.35,9.175,10,10.825,11.65,0.8250000000000001,0.275,0.55,3.85,10,match,36.05,301,331,361,390,420,9,9,9,9,9,,,,,2,0,2,0,0,14,14,18,,,,,num_5,1.5197892000433058,num_5,0.4,0.5,0.35000000000000003,0.55,13.37193,21.01303,return,2.369619800010696,,,,,,,701,22,female,left_right_width,2024-05-09_10h45.13.192,exp1,2021.2.3,59.99570430280008,
,,,,,,,,,,,,,,,,3,8.6,10,11.4,0,0,1.4,1.15,0.25,3.05,10,match,36.05,310,361,411,0,0,9,9,9,0,0,,,,,2,0,2,0,0,15,15,43,,,,,num_4,0.9244659999385476,num_4,0.15,0.4,0.2,0.9,7.6411,34.38495,return,3.0465670998673886,,,,,,,701,22,female,left_right_width,2024-05-09_10h45.13.192,exp1,2021.2.3,59.99570430280008,
,,,,,,,,,,,,,,,,4,8.35,9.45,10.55,11.65,0,1.1,0.55,0.55,3.8500000000000005,10,initial,36.05,301,341,380,420,0,9,9,9,9,0,,,,,2,0,2,0,0,16,16,17,,,,,num_4,0.905959099996835,num_4,0.45,1.0,0.45,0.8,17.19248,30.5644,return,3.1882641999982297,,,,,,,701,22,female,left_right_width,2024-05-09_10h45.13.192,exp1,2021.2.3,59.99570430280008,
,,,,,,,,,,,,,,,,3,8.2,10,11.8,0,0,1.8,1.55,0.25,3.85,10,match,36.05,296,361,425,0,0,9,9,9,0,0,,,,,2,0,2,0,0,17,17,49,,,,,num_3,0.7917397001292557,num_3,0.1,0.9,0.3,1.0,11.46165,38.2055,return,2.4710178000386804,,,,,,,701,22,female,left_right_width,2024-05-09_10h45.13.192,exp1,2021.2.3,59.99570430280008,
,,,,,,,,,,,,,,,,4,8.65,9.55,10.45,11.35,0,0.9,0.65,0.25,2.95,10,initial,36.05,312,344,377,409,0,9,9,9,9,0,,,,,2,0,2,0,0,18,18,30,,,,,num_4,0.8690285999327898,num_4,0.1,0.7,0.2,0.8,7.6411,30.5644,return,3.409203300019726,,,,,,,701,22,female,left_right_width,2024-05-09_10h45.13.192,exp1,2021.2.3,59.99570430280008,
,,,,,,,,,,,,,,,,5,8.2,9.1,10,10.9,11.8,0.9,0.5,0.4,4,10,initial,36.05,296,328,361,393,425,9,9,9,9,9,,,,,2,0,2,0,0,19,19,50,,,,,num_5,0.934039399959147,num_5,0.4,1.0,0.35000000000000003,0.9,13.37193,34.38495,return,3.2631888000760227,,,,,,,701,22,female,left_right_width,2024-05-09_10h45.13.192,exp1,2021.2.3,59.99570430280008,
,,,,,,,,,,,,,,,,3,8.9,10,11.1,0,0,1.1,0.7000000000000001,0.4,2.6000000000000005,10,initial,36.05,321,361,400,0,0,9,9,9,0,0,,,,,2,0,2,0,0,20,20,4,,,,,num_3,1.021878399886191,num_3,0.15,0.8,0.39999999999999997,0.85,15.2822,32.47468,return,3.251647900091484,,,,,,,701,22,female,left_right_width,2024-05-09_10h45.13.192,exp1,2021.2.3,59.99570430280008,
,,,,,,,,,,,,,,,,5,8.275,9.1375,10,10.8625,11.725,0.8625,0.6125,0.25,3.7,10,match,36.05,298,329,361,392,423,9,9,9,9,9,,,,,2,0,2,0,0,21,21,22,,,,,num_5,0.9650117000564933,num_5,0.4,0.5,0.15000000000000008,0.7,5.73083,26.74385,return,9.581610300112516,,,,,,,701,22,female,left_right_width,2024-05-09_10h45.13.192,exp1,2021.2.3,59.99570430280008,
,,,,,,,,,,,,,,,,5,8.35,9.175,10,10.825,11.65,0.825,0.575,0.25,3.55,10,match,36.05,301,331,361,390,420,9,9,9,9,9,,,,,2,0,2,0,0,22,22,20,,,,,num_5,1.4959569000639021,num_5,0.15,0.9,0.15,0.75,5.73083,28.65413,return,2.0272429001051933,,,,,,,701,22,female,left_right_width,2024-05-09_10h45.13.192,exp1,2021.2.3,59.99570430280008,
,,,,,,,,,,,,,,,,4,8.35,9.45,10.55,11.65,0,1.1,0.8500000000000001,0.25,3.5500000000000003,10,initial,36.05,301,341,380,420,0,9,9,9,9,0,,,,,2,0,2,0,0,23,23,19,,,,,num_4,1.0091796000488102,num_4,0.25,0.7,0.15000000000000002,0.7,5.73083,26.74385,return,5.687651100102812,,,,,,,701,22,female,left_right_width,2024-05-09_10h45.13.192,exp1,2021.2.3,59.99570430280008,
,,,,,,,,,,,,,,,,4,8.65,9.55,10.45,11.35,0,0.9,0.35,0.55,3.25,10,initial,36.05,312,344,377,409,0,9,9,9,9,0,,,,,2,0,2,0,0,24,24,28,,,,,num_3,1.025051899952814,num_3,0.4,1,0.45,0.9,17.19248,34.38495,return,2.6149420000147074,,,,,,,701,22,female,left_right_width,2024-05-09_10h45.13.192,exp1,2021.2.3,59.99570430280008,
,,,,,,,,,,,,,,,,3,7.8,10,12.2,0,0,2.2,1.65,0.55,4.95,10,match,36.05,281,361,440,0,0,9,9,9,0,0,,,,,2,0,2,0,0,25,25,35,,,,,num_3,0.8696348001249135,num_3,0.45,0.7,0.6000000000000001,1.85,22.9233,70.68018,return,6.513898100005463,,,,,,,701,22,female,left_right_width,2024-05-09_10h45.13.192,exp1,2021.2.3,59.99570430280008,
,,,,,,,,,,,,,,,,5,8.6,9.3,10,10.7,11.4,0.7,0.29999999999999993,0.4,3.1999999999999997,10,initial,36.05,310,335,361,386,411,9,9,9,9,9,,,,,2,0,2,0,0,26,26,44,,,,,num_4,0.966400699922815,num_4,0.35,1.0,0.44999999999999996,0.7,17.19248,26.74385,return,3.2633131998591125,,,,,,,701,22,female,left_right_width,2024-05-09_10h45.13.192,exp1,2021.2.3,59.99570430280008,
,,,,,,,,,,,,,,,,5,8.6,9.3,10,10.7,11.4,0.7,0.44999999999999996,0.25,3.05,10,initial,36.05,310,335,361,386,411,9,9,9,9,9,,,,,2,0,2,0,0,27,27,42,,,,,num_4,1.022148200077936,num_4,0.35,0.7,0.15000000000000002,0.8,5.73083,30.5644,return,3.075797399971634,,,,,,,701,22,female,left_right_width,2024-05-09_10h45.13.192,exp1,2021.2.3,59.99570430280008,
,,,,,,,,,,,,,,,,4,9.3,9.766666666666667,10.233333333333333,10.7,0,0.4666666666666667,0.06666666666666665,0.4,1.8,10,match,36.05,335,352,369,386,0,9,9,9,9,0,,,,,2,0,2,0,0,28,28,10,,,,,num_4,0.9654029998928308,num_4,0.35,1.2,0.3,0.4,11.46165,15.2822,return,4.17463369993493,,,,,,,701,22,female,left_right_width,2024-05-09_10h45.13.192,exp1,2021.2.3,59.99570430280008,
,,,,,,,,,,,,,,,,4,9.3,9.766666666666667,10.233333333333333,10.7,0,0.4666666666666667,0.21666666666666665,0.25,1.65,10,match,36.05,335,352,369,386,0,9,9,9,9,0,,,,,2,0,2,0,0,29,29,8,,,,,num_4,1.1246817999053746,num_4,0.4,0.5,0.30000000000000004,0.6,11.46165,22.9233,return,2.934312399942428,,,,,,,701,22,female,left_right_width,2024-05-09_10h45.13.192,exp1,2021.2.3,59.99570430280008,
,,,,,,,,,,,,,,,,3,8.525,10,11.475,0,0,1.475,1.225,0.25,3.2,10,match,36.05,307,361,414,0,0,9,9,9,0,0,,,,,2,0,2,0,0,30,30,45,,,,,num_3,0.818984700134024,num_3,0.2,0.6,0.2,1.05,7.6411,40.11578,return,2.3043899999465793,,,,,,,701,22,female,left_right_width,2024-05-09_10h45.13.192,exp1,2021.2.3,59.99570430280008,
,,,,,,,,,,,,,,,,4,8.65,9.55,10.45,11.35,0,0.9,0.5,0.4,3.1,10,initial,36.05,312,344,377,409,0,9,9,9,9,0,,,,,2,0,2,0,0,31,31,32,,,,,num_3,1.7713372001890093,num_3,0.3,0.4,0.25,0.75,9.55138,28.65413,return,2.3070649998262525,,,,,,,701,22,female,left_right_width,2024-05-09_10h45.13.192,exp1,2021.2.3,59.99570430280008,
,,,,,,,,,,,,,,,,5,8.65,9.325,10,10.675,11.35,0.675,0.42500000000000004,0.25,2.95,10,match,36.05,312,336,361,385,409,9,9,9,9,9,,,,,2,0,2,0,0,32,32,31,,,,,num_5,0.9920000999700278,num_5,0.3,0.6,0.2,0.7,7.6411,26.74385,return,2.151063600089401,,,,,,,701,22,female,left_right_width,2024-05-09_10h45.13.192,exp1,2021.2.3,59.99570430280008,
,,,,,,,,,,,,,,,,5,8.95,9.475,10,10.525,11.05,0.525,0.275,0.25,2.35,10,match,36.05,323,342,361,379,398,9,9,9,9,9,,,,,2,0,2,0,0,33,33,25,,,,,num_4,1.0265349999535829,num_4,0.45,1.2,0.15000000000000008,0.8,5.73083,30.5644,return,3.416452399920672,,,,,,,701,22,female,left_right_width,2024-05-09_10h45.13.192,exp1,2021.2.3,59.99570430280008,
,,,,,,,,,,,,,,,,4,8.35,9.45,10.55,11.65,0,1.1,0.7000000000000001,0.4,3.7,10,initial,36.05,301,341,380,420,0,9,9,9,9,0,,,,,2,0,2,0,0,34,34,21,,,,,num_4,0.7931807001587003,num_4,0.3,0.6,0.3,1.0,11.46165,38.2055,return,1.8325111998710781,,,,,,,701,22,female,left_right_width,2024-05-09_10h45.13.192,exp1,2021.2.3,59.99570430280008,
,,,,,,,,,,,,,,,,3,9.3,10,10.7,0,0,0.7,0.29999999999999993,0.4,1.8,10,initial,36.05,335,361,386,0,0,9,9,9,0,0,,,,,2,0,2,0,0,35,35,9,,,,,num_3,1.0524615000467747,num_3,0.25,0.3,0.3,0.45,11.46165,17.19248,return,4.241185900056735,,,,,,,701,22,female,left_right_width,2024-05-09_10h45.13.192,exp1,2021.2.3,59.99570430280008,
,,,,,,,,,,,,,,,,3,8.2,10,11.8,0,0,1.8,1.25,0.55,4.15,10,match,36.05,296,361,425,0,0,9,9,9,0,0,,,,,2,0,2,0,0,36,36,47,,,,,num_3,0.7444866998121142,num_3,0.35,0.8,0.6,1.6,22.9233,61.12881,return,5.049945299979299,,,,,,,701,22,female,left_right_width,2024-05-09_10h45.13.192,exp1,2021.2.3,59.99570430280008,
,,,,,,,,,,,,,,,,4,8.95,9.65,10.35,11.05,0,0.7,0.29999999999999993,0.4,2.5,10,initial,36.05,323,348,373,398,0,9,9,9,9,0,,,,,2,0,2,0,0,37,37,26,,,,,num_4,0.8971898001618683,num_4,0.35,0.9,0.39999999999999997,0.7,15.2822,26.74385,return,2.4444690998643637,,,,,,,701,22,female,left_right_width,2024-05-09_10h45.13.192,exp1,2021.2.3,59.99570430280008,
,,,,,,,,,,,,,,,,5,8.6,9.3,10,10.7,11.4,0.7,0.1499999999999999,0.55,3.3499999999999996,10,initial,36.05,310,335,361,386,411,9,9,9,9,9,,,,,2,0,2,0,0,38,38,40,,,,,num_4,0.935677699977532,num_4,0.35,1.3,0.49999999999999994,0.7,19.10275,26.74385,return,5.18498869985342,,,,,,,701,22,female,left_right_width,2024-05-09_10h45.13.192,exp1,2021.2.3,59.99570430280008,
,,,,,,,,,,,,,,,,3,9.3,10,10.7,0,0,0.7,0.1499999999999999,0.55,1.95,10,initial,36.05,335,361,386,0,0,9,9,9,0,0,,,,,2,0,2,0,0,39,39,6,,,,,num_3,0.8409933000802994,num_3,0.1,0.4,0.35,0.4,13.37193,15.2822,return,2.859348899917677,,,,,,,701,22,female,left_right_width,2024-05-09_10h45.13.192,exp1,2021.2.3,59.99570430280008,
,,,,,,,,,,,,,,,,3,7.800000000000001,10,12.2,0,0,2.1999999999999997,1.7999999999999998,0.4,4.8,10,match,36.05,281,361,440,0,0,9,9,9,0,0,,,,,2,0,2,0,0,40,40,39,,,,,num_3,0.8544355002231896,num_3,0.35,0.7,0.35,1.7,13.37193,64.94936,return,5.283317500026897,,,,,,,701,22,female,left_right_width,2024-05-09_10h45.13.192,exp1,2021.2.3,59.99570430280008,
,,,,,,,,,,,,,,,,3,9.1,10,10.9,0,0,0.9,0.65,0.25,2.05,10,initial,36.05,328,361,393,0,0,9,9,9,0,0,,,,,2,0,2,0,0,41,41,13,,,,,num_3,0.835482400143519,num_3,0.25,1,0.15000000000000002,0.95,5.73083,36.29523,return,2.0965227999258786,,,,,,,701,22,female,left_right_width,2024-05-09_10h45.13.192,exp1,2021.2.3,59.99570430280008,
,,,,,,,,,,,,,,,,4,8.825,9.608333333333333,10.391666666666667,11.175,0,0.7833333333333333,0.5333333333333333,0.25,2.6,10,match,36.05,318,346,375,403,0,9,9,9,9,0,,,,,2,0,2,0,0,42,42,5,,,,,num_3,2.734007100109011,num_3,0.3,0.4,0.25,0.75,9.55138,28.65413,return,2.8471327000297606,,,,,,,701,22,female,left_right_width,2024-05-09_10h45.13.192,exp1,2021.2.3,59.99570430280008,
,,,,,,,,,,,,,,,,4,8.9,9.633333333333333,10.366666666666667,11.1,0,0.7333333333333333,0.18333333333333326,0.55,2.75,10,match,36.05,321,347,374,400,0,9,9,9,9,0,,,,,2,0,2,0,0,43,43,1,,,,,num_3,0.9004615999292582,num_3,0.2,0.9,0.5499999999999999,0.7,21.01303,26.74385,return,4.783271700143814,,,,,,,701,22,female,left_right_width,2024-05-09_10h45.13.192,exp1,2021.2.3,59.99570430280008,
,,,,,,,,,,,,,,,,4,9.1,9.7,10.3,10.9,0,0.5999999999999999,0.3499999999999999,0.25,2.05,10,match,36.05,328,350,371,393,0,9,9,9,9,0,,,,,2,0,2,0,0,44,44,14,,,,,num_4,1.19731909991242,num_4,0.35,0.9,0.15000000000000002,0.8,5.73083,30.5644,return,2.6043014000169933,,,,,,,701,22,female,left_right_width,2024-05-09_10h45.13.192,exp1,2021.2.3,59.99570430280008,
,,,,,,,,,,,,,,,,5,7.8,8.9,10,11.1,12.2,1.1,0.55,0.55,4.95,10,initial,36.05,281,321,361,400,440,9,9,9,9,9,,,,,2,0,2,0,0,45,45,34,,,,,num_5,0.8392107000108808,num_5,0.4,1.2,0.4,1.2,15.2822,45.8466,return,1.2843222999945283,,,,,,,701,22,female,left_right_width,2024-05-09_10h45.13.192,exp1,2021.2.3,59.99570430280008,
,,,,,,,,,,,,,,,,4,9.1,9.7,10.3,10.9,0,0.6,0.04999999999999997,0.55,2.35,10,match,36.05,328,350,371,393,0,9,9,9,9,0,,,,,2,0,2,0,0,46,46,12,,,,,num_4,0.9265439000446349,num_4,0.1,0.8,0.65,0.7,24.83358,26.74385,return,6.5043667000718415,,,,,,,701,22,female,left_right_width,2024-05-09_10h45.13.192,exp1,2021.2.3,59.99570430280008,
,,,,,,,,,,,,,,,,5,8.95,9.475,10,10.525,11.05,0.525,0.125,0.4,2.5,10,match,36.05,323,342,361,379,398,9,9,9,9,9,,,,,2,0,2,0,0,47,47,27,,,,,num_4,1.3190830000676215,num_4,0.1,0.7,0.35,0.4,13.37193,15.2822,return,10.081394399981946,,,,,,,701,22,female,left_right_width,2024-05-09_10h45.13.192,exp1,2021.2.3,59.99570430280008,
,,,,,,,,,,,,,,,,5,8.65,9.325,10,10.675,11.35,0.675,0.275,0.4,3.1,10,match,36.05,312,336,361,385,409,9,9,9,9,9,,,,,2,0,2,0,0,48,48,33,,,,,num_5,1.9152216000948101,num_5,0.35,0.7,0.25,0.5,9.55138,19.10275,return,3.8376403998117894,,,,,,,701,22,female,left_right_width,2024-05-09_10h45.13.192,exp1,2021.2.3,59.99570430280008,
,,,,,,,,,,,,,,,,4,8.95,9.65,10.35,11.05,0,0.7,0.1499999999999999,0.55,2.65,10,initial,36.05,323,348,373,398,0,9,9,9,9,0,,,,,2,0,2,0,0,49,49,23,,,,,num_4,0.9192804000340402,num_4,0.1,0.6,0.39999999999999997,0.5,15.2822,19.10275,return,3.440951199969277,,,,,,,701,22,female,left_right_width,2024-05-09_10h45.13.192,exp1,2021.2.3,59.99570430280008,
,,,,,,,,,,,,,,,,3,8.9,10,11.1,0,0,1.1,0.55,0.55,2.75,10,initial,36.05,321,361,400,0,0,9,9,9,0,0,,,,,2,0,2,0,0,50,50,0,,,,,num_3,0.7926564998924732,num_3,0.4,1,0.4,0.9,15.2822,34.38495,return,1.6876602000556886,,,,,,,701,22,female,left_right_width,2024-05-09_10h45.13.192,exp1,2021.2.3,59.99570430280008,
,,,,,,,,,,,,,,,,3,9.3,10,10.7,0,0,0.7,0.44999999999999996,0.25,1.65,10,initial,36.05,335,361,386,0,0,9,9,9,0,0,,,,,2,0,2,0,0,51,51,7,,,,,num_3,1.1315870999824256,num_3,0.15,1,0.15,0.8,5.73083,30.5644,return,1.8050391001161188,,,,,,,701,22,female,left_right_width,2024-05-09_10h45.13.192,exp1,2021.2.3,59.99570430280008,
,,,,,,,,,,,,,,,,,,,,,,,,,,,,,,,,,,,,,,,,,,,2,0,2,0,,,,,,,,,,,,,,,,,,,,,,1641.7922914000228,None,1641.7922914000228,None,701,22,female,left_right_width,2024-05-09_10h45.13.192,exp1,2021.2.3,59.99570430280008,
,,,,,,,,,,,,,,,,5,8.35,9.175,10,10.825,11.65,0.8250000000000001,0.275,0.55,3.85,10,match,36.05,301,331,361,390,420,9,9,9,9,9,,,,,3,0,3,0,0,0,0,18,,,,,num_4,1.3007757999002934,num_4,0.2,0.5,0.39999999999999997,0.8,15.2822,30.5644,return,3.3112344997934997,,,,,,,701,22,female,left_right_width,2024-05-09_10h45.13.192,exp1,2021.2.3,59.99570430280008,
,,,,,,,,,,,,,,,,4,8.9,9.633333333333333,10.366666666666667,11.1,0,0.7333333333333333,0.18333333333333326,0.55,2.75,10,match,36.05,321,347,374,400,0,9,9,9,9,0,,,,,3,0,3,0,0,1,1,1,,,,,num_4,1.0919170000124723,num_4,0.25,0.5,0.44999999999999996,0.6,17.19248,22.9233,return,2.1832530999090523,,,,,,,701,22,female,left_right_width,2024-05-09_10h45.13.192,exp1,2021.2.3,59.99570430280008,
,,,,,,,,,,,,,,,,4,8.825,9.608333333333333,10.391666666666667,11.175,0,0.7833333333333333,0.5333333333333333,0.25,2.6,10,match,36.05,318,346,375,403,0,9,9,9,9,0,,,,,3,0,3,0,0,2,2,5,,,,,num_4,0.7816188000142574,num_4,0.4,1.3,0.35000000000000003,0.7,13.37193,26.74385,return,2.765002500033006,,,,,,,701,22,female,left_right_width,2024-05-09_10h45.13.192,exp1,2021.2.3,59.99570430280008,
,,,,,,,,,,,,,,,,3,8.2,10,11.8,0,0,1.8,1.25,0.55,4.15,10,match,36.05,296,361,425,0,0,9,9,9,0,0,,,,,3,0,3,0,0,3,3,47,,,,,num_3,0.8438290001358837,num_3,0.45,0.7,0.45,1.2,17.19248,45.8466,return,2.713359599933028,,,,,,,701,22,female,left_right_width,2024-05-09_10h45.13.192,exp1,2021.2.3,59.99570430280008,
,,,,,,,,,,,,,,,,3,7.8,10,12.2,0,0,2.2,1.65,0.55,4.95,10,match,36.05,281,361,440,0,0,9,9,9,0,0,,,,,3,0,3,0,0,4,4,35,,,,,num_3,1.1559081999585032,num_3,0.35,1,0.44999999999999996,2.25,17.19248,85.96238,return,6.77242000005208,,,,,,,701,22,female,left_right_width,2024-05-09_10h45.13.192,exp1,2021.2.3,59.99570430280008,
,,,,,,,,,,,,,,,,5,8.6,9.3,10,10.7,11.4,0.7,0.29999999999999993,0.4,3.1999999999999997,10,initial,36.05,310,335,361,386,411,9,9,9,9,9,,,,,3,0,3,0,0,5,5,44,,,,,num_4,0.8149153999984264,num_4,0.45,0.9,0.4,0.7,15.2822,26.74385,return,2.269051800016314,,,,,,,701,22,female,left_right_width,2024-05-09_10h45.13.192,exp1,2021.2.3,59.99570430280008,
,,,,,,,,,,,,,,,,4,9.1,9.7,10.3,10.9,0,0.6000000000000001,0.20000000000000004,0.4,2.2,10,match,36.05,328,350,371,393,0,9,9,9,9,0,,,,,3,0,3,0,0,6,6,16,,,,,num_4,0.8280523999128491,num_4,0.15,0.5,0.35,0.5,13.37193,19.10275,return,2.617701700190082,,,,,,,701,22,female,left_right_width,2024-05-09_10h45.13.192,exp1,2021.2.3,59.99570430280008,
,,,,,,,,,,,,,,,,4,8.35,9.45,10.55,11.65,0,1.1,0.55,0.55,3.8500000000000005,10,initial,36.05,301,341,380,420,0,9,9,9,9,0,,,,,3,0,3,0,0,7,7,17,,,,,num_4,0.9484286000952125,num_4,0.35,0.6,0.39999999999999997,1.1,15.2822,42.02605,return,3.198094099992886,,,,,,,701,22,female,left_right_width,2024-05-09_10h45.13.192,exp1,2021.2.3,59.99570430280008,
,,,,,,,,,,,,,,,,5,8.95,9.475,10,10.525,11.05,0.525,0.275,0.25,2.35,10,match,36.05,323,342,361,379,398,9,9,9,9,9,,,,,3,0,3,0,0,8,8,25,,,,,num_4,0.8692847001366317,num_4,0.45,1.0,0.20000000000000007,0.7,7.6411,26.74385,return,3.3293300999794155,,,,,,,701,22,female,left_right_width,2024-05-09_10h45.13.192,exp1,2021.2.3,59.99570430280008,
,,,,,,,,,,,,,,,,5,8.6,9.3,10,10.7,11.4,0.7,0.1499999999999999,0.55,3.3499999999999996,10,initial,36.05,310,335,361,386,411,9,9,9,9,9,,,,,3,0,3,0,0,9,9,40,,,,,num_4,0.9093210999853909,num_4,0.45,1.0,0.45,0.6,17.19248,22.9233,return,2.839607800124213,,,,,,,701,22,female,left_right_width,2024-05-09_10h45.13.192,exp1,2021.2.3,59.99570430280008,
,,,,,,,,,,,,,,,,5,8.65,9.325,10,10.675,11.35,0.675,0.125,0.55,3.25,10,match,36.05,312,336,361,385,409,9,9,9,9,9,,,,,3,0,3,0,0,10,10,29,,,,,num_5,0.8553456999361515,num_5,0.35,0.8,0.44999999999999996,0.55,17.19248,21.01303,return,5.171801800141111,,,,,,,701,22,female,left_right_width,2024-05-09_10h45.13.192,exp1,2021.2.3,59.99570430280008,
,,,,,,,,,,,,,,,,3,9.3,10,10.7,0,0,0.7,0.44999999999999996,0.25,1.65,10,initial,36.05,335,361,386,0,0,9,9,9,0,0,,,,,3,0,3,0,0,11,11,7,,,,,num_3,0.7981202001683414,num_3,0.25,0.7,0.25,0.7,9.55138,26.74385,return,1.165032299933955,,,,,,,701,22,female,left_right_width,2024-05-09_10h45.13.192,exp1,2021.2.3,59.99570430280008,
,,,,,,,,,,,,,,,,5,8.2,9.1,10,10.9,11.8,0.9,0.5,0.4,4,10,initial,36.05,296,328,361,393,425,9,9,9,9,9,,,,,3,0,3,0,0,12,12,50,,,,,num_4,0.8960325000807643,num_4,0.25,0.3,0.3,1.1,11.46165,42.02605,return,3.2113273998256773,,,,,,,701,22,female,left_right_width,2024-05-09_10h45.13.192,exp1,2021.2.3,59.99570430280008,
,,,,,,,,,,,,,,,,5,8.35,9.175,10,10.825,11.65,0.825,0.575,0.25,3.55,10,match,36.05,301,331,361,390,420,9,9,9,9,9,,,,,3,0,3,0,0,13,13,20,,,,,num_5,0.7859084000810981,num_5,0.4,1.0,0.25000000000000006,0.9,9.55138,34.38495,return,1.6814427999779582,,,,,,,701,22,female,left_right_width,2024-05-09_10h45.13.192,exp1,2021.2.3,59.99570430280008,
,,,,,,,,,,,,,,,,5,8.6,9.3,10,10.7,11.4,0.7,0.44999999999999996,0.25,3.05,10,initial,36.05,310,335,361,386,411,9,9,9,9,9,,,,,3,0,3,0,0,14,14,42,,,,,num_5,1.3654267999809235,num_5,0.2,1.3,0.2,0.95,7.6411,36.29523,return,2.5418991001788527,,,,,,,701,22,female,left_right_width,2024-05-09_10h45.13.192,exp1,2021.2.3,59.99570430280008,
,,,,,,,,,,,,,,,,5,8.65,9.325,10,10.675,11.35,0.675,0.42500000000000004,0.25,2.95,10,match,36.05,312,336,361,385,409,9,9,9,9,9,,,,,3,0,3,0,0,15,15,31,,,,,num_4,0.8912300998345017,num_4,0.3,1.1,0.3,0.8,11.46165,30.5644,return,1.0626185999717563,,,,,,,701,22,female,left_right_width,2024-05-09_10h45.13.192,exp1,2021.2.3,59.99570430280008,
,,,,,,,,,,,,,,,,4,9.3,9.766666666666667,10.233333333333333,10.7,0,0.4666666666666667,0.06666666666666665,0.4,1.8,10,match,36.05,335,352,369,386,0,9,9,9,9,0,,,,,3,0,3,0,0,16,16,10,,,,,num_5,1.3689294999931008,num_5,0.25,0.6,0.35,0.4,13.37193,15.2822,return,3.985033599892631,,,,,,,701,22,female,left_right_width,2024-05-09_10h45.13.192,exp1,2021.2.3,59.99570430280008,
,,,,,,,,,,,,,,,,5,7.8,8.9,10,11.1,12.2,1.1,0.7000000000000001,0.4,4.800000000000001,10,initial,36.05,281,321,361,400,440,9,9,9,9,9,,,,,3,0,3,0,0,17,17,38,,,,,num_5,0.835660999873653,num_5,0.2,0.3,0.3,0.9,11.46165,34.38495,return,3.8243662999011576,,,,,,,701,22,female,left_right_width,2024-05-09_10h45.13.192,exp1,2021.2.3,59.99570430280008,
,,,,,,,,,,,,,,,,3,8.9,10,11.1,0,0,1.1,0.8500000000000001,0.25,2.45,10,initial,36.05,321,361,400,0,0,9,9,9,0,0,,,,,3,0,3,0,0,18,18,2,,,,,num_3,0.8164072998333722,num_3,0.3,1.2,0.2,1.15,7.6411,43.93633,return,1.8057384002022445,,,,,,,701,22,female,left_right_width,2024-05-09_10h45.13.192,exp1,2021.2.3,59.99570430280008,
,,,,,,,,,,,,,,,,3,8.525,10,11.475,0,0,1.475,1.225,0.25,3.2,10,match,36.05,307,361,414,0,0,9,9,9,0,0,,,,,3,0,3,0,0,19,19,45,,,,,num_3,0.8777950999792665,num_3,0.25,1.3,0.15000000000000002,1.35,5.73083,51.57743,return,2.4098145999014378,,,,,,,701,22,female,left_right_width,2024-05-09_10h45.13.192,exp1,2021.2.3,59.99570430280008,
,,,,,,,,,,,,,,,,4,8.95,9.65,10.35,11.05,0,0.7,0.44999999999999996,0.25,2.3499999999999996,10,initial,36.05,323,348,373,398,0,9,9,9,9,0,,,,,3,0,3,0,0,20,20,24,,,,,num_4,1.8688127000350505,num_4,0.3,0.9,0.3,0.9,11.46165,34.38495,return,1.9364593999926,,,,,,,701,22,female,left_right_width,2024-05-09_10h45.13.192,exp1,2021.2.3,59.99570430280008,
,,,,,,,,,,,,,,,,4,9.1,9.7,10.3,10.9,0,0.6,0.04999999999999997,0.55,2.35,10,match,36.05,328,350,371,393,0,9,9,9,9,0,,,,,3,0,3,0,0,21,21,12,,,,,num_4,1.5561859000008553,num_4,0.2,0.6,0.39999999999999997,0.5,15.2822,19.10275,return,6.692598999943584,,,,,,,701,22,female,left_right_width,2024-05-09_10h45.13.192,exp1,2021.2.3,59.99570430280008,
,,,,,,,,,,,,,,,,4,8.9,9.633333333333333,10.366666666666667,11.1,0,0.7333333333333334,0.4833333333333334,0.25,2.45,10,match,36.05,321,347,374,400,0,9,9,9,9,0,,,,,3,0,3,0,0,22,22,3,,,,,num_4,1.008067199960351,num_4,0.1,0.4,0.25,0.6,9.55138,22.9233,return,3.190382699947804,,,,,,,701,22,female,left_right_width,2024-05-09_10h45.13.192,exp1,2021.2.3,59.99570430280008,
,,,,,,,,,,,,,,,,3,8.6,10,11.4,0,0,1.4,0.85,0.55,3.35,10,match,36.05,310,361,411,0,0,9,9,9,0,0,,,,,3,0,3,0,0,23,23,41,,,,,num_3,0.7881722999736667,num_3,0.3,0.7,0.44999999999999996,1.5,17.19248,57.30826,return,4.707045800052583,,,,,,,701,22,female,left_right_width,2024-05-09_10h45.13.192,exp1,2021.2.3,59.99570430280008,
,,,,,,,,,,,,,,,,5,8.95,9.475,10,10.525,11.05,0.525,0.125,0.4,2.5,10,match,36.05,323,342,361,379,398,9,9,9,9,9,,,,,3,0,3,0,0,24,24,27,,,,,num_4,1.5021906001493335,num_4,0.1,0.5,0.44999999999999996,0.7,17.19248,26.74385,return,3.7607364000286907,,,,,,,701,22,female,left_right_width,2024-05-09_10h45.13.192,exp1,2021.2.3,59.99570430280008,
,,,,,,,,,,,,,,,,5,7.8,8.9,10,11.1,12.2,1.1,0.55,0.55,4.95,10,initial,36.05,281,321,361,400,440,9,9,9,9,9,,,,,3,0,3,0,0,25,25,34,,,,,num_5,0.8331587000284344,num_5,0.2,0.5,0.44999999999999996,0.65,17.19248,24.83358,return,3.7911564998794347,,,,,,,701,22,female,left_right_width,2024-05-09_10h45.13.192,exp1,2021.2.3,59.99570430280008,
,,,,,,,,,,,,,,,,5,8.2,9.1,10,10.9,11.8,0.9,0.35,0.55,4.15,10,initial,36.05,296,328,361,393,425,9,9,9,9,9,,,,,3,0,3,0,0,26,26,46,,,,,num_5,1.118751100031659,num_5,0.3,1.0,0.6,0.85,22.9233,32.47468,return,3.488488599890843,,,,,,,701,22,female,left_right_width,2024-05-09_10h45.13.192,exp1,2021.2.3,59.99570430280008,
,,,,,,,,,,,,,,,,4,8.35,9.45,10.55,11.65,0,1.1,0.7000000000000001,0.4,3.7,10,initial,36.05,301,341,380,420,0,9,9,9,9,0,,,,,3,0,3,0,0,27,27,21,,,,,num_5,1.0320607000030577,num_5,0.45,1.1,0.35000000000000003,0.85,13.37193,32.47468,return,5.629998199874535,,,,,,,701,22,female,left_right_width,2024-05-09_10h45.13.192,exp1,2021.2.3,59.99570430280008,
,,,,,,,,,,,,,,,,3,9.3,10,10.7,0,0,0.7,0.29999999999999993,0.4,1.8,10,initial,36.05,335,361,386,0,0,9,9,9,0,0,,,,,3,0,3,0,0,28,28,9,,,,,num_3,0.8777985998895019,num_3,0.4,1.1,0.4,0.75,15.2822,28.65413,return,3.57814500015229,,,,,,,701,22,female,left_right_width,2024-05-09_10h45.13.192,exp1,2021.2.3,59.99570430280008,
,,,,,,,,,,,,,,,,5,7.8,8.9,10,11.1,12.2,1.1,0.8500000000000001,0.25,4.65,10,initial,36.05,281,321,361,400,440,9,9,9,9,9,,,,,3,0,3,0,0,29,29,36,,,,,num_5,0.9461091000121087,num_5,0.15,1.1,0.15,1.1,5.73083,42.02605,return,0.8753263999242336,,,,,,,701,22,female,left_right_width,2024-05-09_10h45.13.192,exp1,2021.2.3,59.99570430280008,
,,,,,,,,,,,,,,,,3,9.3,10,10.7,0,0,0.7,0.1499999999999999,0.55,1.95,10,initial,36.05,335,361,386,0,0,9,9,9,0,0,,,,,3,0,3,0,0,30,30,6,,,,,num_3,0.8253260999917984,num_3,0.2,0.3,0.3,0.35,11.46165,13.37193,return,3.2551605000626296,,,,,,,701,22,female,left_right_width,2024-05-09_10h45.13.192,exp1,2021.2.3,59.99570430280008,
,,,,,,,,,,,,,,,,4,8.35,9.45,10.55,11.65,0,1.1,0.8500000000000001,0.25,3.5500000000000003,10,initial,36.05,301,341,380,420,0,9,9,9,9,0,,,,,3,0,3,0,0,31,31,19,,,,,num_5,1.3098055999726057,num_5,0.1,0.8,0.1,0.8,3.82055,30.5644,return,1.3843927001580596,,,,,,,701,22,female,left_right_width,2024-05-09_10h45.13.192,exp1,2021.2.3,59.99570430280008,
,,,,,,,,,,,,,,,,3,8.9,10,11.1,0,0,1.1,0.55,0.55,2.75,10,initial,36.05,321,361,400,0,0,9,9,9,0,0,,,,,3,0,3,0,0,32,32,0,,,,,num_3,0.7826820998452604,num_3,0.3,0.9,0.39999999999999997,0.9,15.2822,34.38495,return,2.686413199873641,,,,,,,701,22,female,left_right_width,2024-05-09_10h45.13.192,exp1,2021.2.3,59.99570430280008,
,,,,,,,,,,,,,,,,5,8.275,9.1375,10,10.8625,11.725,0.8625,0.6125,0.25,3.7,10,match,36.05,298,329,361,392,423,9,9,9,9,9,,,,,3,0,3,0,0,33,33,22,,,,,num_5,0.8688802998512983,num_5,0.3,0.4,0.2,0.8,7.6411,30.5644,return,4.560608899919316,,,,,,,701,22,female,left_right_width,2024-05-09_10h45.13.192,exp1,2021.2.3,59.99570430280008,
,,,,,,,,,,,,,,,,4,8.65,9.55,10.45,11.35,0,0.9,0.65,0.25,2.95,10,initial,36.05,312,344,377,409,0,9,9,9,9,0,,,,,3,0,3,0,0,34,34,30,,,,,num_5,0.8394190999679267,num_5,0.4,1.2,0.15000000000000008,0.7,5.73083,26.74385,return,7.284431600011885,,,,,,,701,22,female,left_right_width,2024-05-09_10h45.13.192,exp1,2021.2.3,59.99570430280008,
,,,,,,,,,,,,,,,,5,8.65,9.325,10,10.675,11.35,0.675,0.275,0.4,3.1,10,match,36.05,312,336,361,385,409,9,9,9,9,9,,,,,3,0,3,0,0,35,35,33,,,,,num_5,0.9166091999504715,num_5,0.3,1.0,0.3,0.65,11.46165,24.83358,return,1.9832560999784619,,,,,,,701,22,female,left_right_width,2024-05-09_10h45.13.192,exp1,2021.2.3,59.99570430280008,
,,,,,,,,,,,,,,,,3,8.6,10,11.4,0,0,1.4,1.15,0.25,3.05,10,match,36.05,310,361,411,0,0,9,9,9,0,0,,,,,3,0,3,0,0,36,36,43,,,,,num_3,0.759414599975571,num_3,0.4,1.1,0.15000000000000008,1.05,5.73083,40.11578,return,2.7599573999177665,,,,,,,701,22,female,left_right_width,2024-05-09_10h45.13.192,exp1,2021.2.3,59.99570430280008,
,,,,,,,,,,,,,,,,3,8.2,10,11.8,0,0,1.7999999999999998,1.4,0.4,4,10,match,36.05,296,361,425,0,0,9,9,9,0,0,,,,,3,0,3,0,0,37,37,51,,,,,num_3,0.7324163001030684,num_3,0.1,1.3,0.44999999999999996,1.35,17.19248,51.57743,return,4.126640400150791,,,,,,,701,22,female,left_right_width,2024-05-09_10h45.13.192,exp1,2021.2.3,59.99570430280008,
,,,,,,,,,,,,,,,,4,8.95,9.65,10.35,11.05,0,0.7,0.1499999999999999,0.55,2.65,10,initial,36.05,323,348,373,398,0,9,9,9,9,0,,,,,3,0,3,0,0,38,38,23,,,,,num_3,0.7626316999085248,num_3,0.2,0.6,0.44999999999999996,0.6,17.19248,22.9233,return,4.171163100050762,,,,,,,701,22,female,left_right_width,2024-05-09_10h45.13.192,exp1,2021.2.3,59.99570430280008,
,,,,,,,,,,,,,,,,3,7.8,10,12.2,0,0,2.2,1.9500000000000002,0.25,4.65,10,match,36.05,281,361,440,0,0,9,9,9,0,0,,,,,3,0,3,0,0,39,39,37,,,,,num_3,0.7092199001926929,num_3,0.3,0.6,0.2,1.35,7.6411,51.57743,return,4.51968999998644,,,,,,,701,22,female,left_right_width,2024-05-09_10h45.13.192,exp1,2021.2.3,59.99570430280008,
,,,,,,,,,,,,,,,,3,9.1,10,10.9,0,0,0.9,0.35,0.55,2.35,10,initial,36.05,328,361,393,0,0,9,9,9,0,0,,,,,3,0,3,0,0,40,40,11,,,,,num_3,0.6785267000086606,num_3,0.4,0.9,0.45,0.9,17.19248,34.38495,return,1.8826536000706255,,,,,,,701,22,female,left_right_width,2024-05-09_10h45.13.192,exp1,2021.2.3,59.99570430280008,
,,,,,,,,,,,,,,,,4,8.65,9.55,10.45,11.35,0,0.9,0.5,0.4,3.1,10,initial,36.05,312,344,377,409,0,9,9,9,9,0,,,,,3,0,3,0,0,41,41,32,,,,,num_4,1.0905854001175612,num_4,0.3,0.4,0.3,0.9,11.46165,34.38495,return,4.166075000073761,,,,,,,701,22,female,left_right_width,2024-05-09_10h45.13.192,exp1,2021.2.3,59.99570430280008,
,,,,,,,,,,,,,,,,3,9.1,10,10.9,0,0,0.9,0.5,0.4,2.2,10,initial,36.05,328,361,393,0,0,9,9,9,0,0,,,,,3,0,3,0,0,42,42,15,,,,,num_3,1.0405206999275833,num_3,0.2,0.4,0.44999999999999996,0.65,17.19248,24.83358,return,3.3499692000914365,,,,,,,701,22,female,left_right_width,2024-05-09_10h45.13.192,exp1,2021.2.3,59.99570430280008,
,,,,,,,,,,,,,,,,5,8.2,9.1,10,10.9,11.8,0.9,0.65,0.25,3.85,10,initial,36.05,296,328,361,393,425,9,9,9,9,9,,,,,3,0,3,0,0,43,43,48,,,,,num_5,1.0273356998804957,num_5,0.2,1.1,0.15000000000000002,0.8,5.73083,30.5644,return,5.417461300035939,,,,,,,701,22,female,left_right_width,2024-05-09_10h45.13.192,exp1,2021.2.3,59.99570430280008,
,,,,,,,,,,,,,,,,4,8.95,9.65,10.35,11.05,0,0.7,0.29999999999999993,0.4,2.5,10,initial,36.05,323,348,373,398,0,9,9,9,9,0,,,,,3,0,3,0,0,44,44,26,,,,,num_4,1.0379141999874264,num_4,0.35,0.9,0.3,0.6,11.46165,22.9233,return,3.3151191000360996,,,,,,,701,22,female,left_right_width,2024-05-09_10h45.13.192,exp1,2021.2.3,59.99570430280008,
,,,,,,,,,,,,,,,,3,8.9,10,11.1,0,0,1.1,0.7000000000000001,0.4,2.6000000000000005,10,initial,36.05,321,361,400,0,0,9,9,9,0,0,,,,,3,0,3,0,0,45,45,4,,,,,num_3,0.699833600083366,num_3,0.1,0.7,0.39999999999999997,0.8,15.2822,30.5644,return,2.4632979000452906,,,,,,,701,22,female,left_right_width,2024-05-09_10h45.13.192,exp1,2021.2.3,59.99570430280008,
,,,,,,,,,,,,,,,,4,9.1,9.7,10.3,10.9,0,0.5999999999999999,0.3499999999999999,0.25,2.05,10,match,36.05,328,350,371,393,0,9,9,9,9,0,,,,,3,0,3,0,0,46,46,14,,,,,num_4,1.0540626998990774,num_4,0.3,1.1,0.25,0.5,9.55138,19.10275,return,3.4426039000973105,,,,,,,701,22,female,left_right_width,2024-05-09_10h45.13.192,exp1,2021.2.3,59.99570430280008,
,,,,,,,,,,,,,,,,3,8.2,10,11.8,0,0,1.8,1.55,0.25,3.85,10,match,36.05,296,361,425,0,0,9,9,9,0,0,,,,,3,0,3,0,0,47,47,49,,,,,num_4,1.0738542000763118,num_4,0.3,1.0,0.15000000000000002,0.6,5.73083,22.9233,return,2.3580217000562698,,,,,,,701,22,female,left_right_width,2024-05-09_10h45.13.192,exp1,2021.2.3,59.99570430280008,
,,,,,,,,,,,,,,,,3,9.1,10,10.9,0,0,0.9,0.65,0.25,2.05,10,initial,36.05,328,361,393,0,0,9,9,9,0,0,,,,,3,0,3,0,0,48,48,13,,,,,num_3,0.792553500039503,num_3,0.1,0.4,0.15000000000000002,0.4,5.73083,15.2822,return,4.0716913000214845,,,,,,,701,22,female,left_right_width,2024-05-09_10h45.13.192,exp1,2021.2.3,59.99570430280008,
,,,,,,,,,,,,,,,,4,8.65,9.55,10.45,11.35,0,0.9,0.35,0.55,3.25,10,initial,36.05,312,344,377,409,0,9,9,9,9,0,,,,,3,0,3,0,0,49,49,28,,,,,num_4,0.8940612999722362,num_4,0.35,1.1,0.35,0.8,13.37193,30.5644,return,1.4492960998322815,,,,,,,701,22,female,left_right_width,2024-05-09_10h45.13.192,exp1,2021.2.3,59.99570430280008,
,,,,,,,,,,,,,,,,3,7.800000000000001,10,12.2,0,0,2.1999999999999997,1.7999999999999998,0.4,4.8,10,match,36.05,281,361,440,0,0,9,9,9,0,0,,,,,3,0,3,0,0,50,50,39,,,,,num_4,1.1008113999851048,num_4,0.25,0.5,0.3,1.0,11.46165,38.2055,return,2.7672162000089884,,,,,,,701,22,female,left_right_width,2024-05-09_10h45.13.192,exp1,2021.2.3,59.99570430280008,
,,,,,,,,,,,,,,,,4,9.3,9.766666666666667,10.233333333333333,10.7,0,0.4666666666666667,0.21666666666666665,0.25,1.65,10,match,36.05,335,352,369,386,0,9,9,9,9,0,,,,,3,0,3,0,0,51,51,8,,,,,num_4,0.983669500099495,num_4,0.3,0.9,0.39999999999999997,0.7,15.2822,26.74385,return,1.7911749000195414,,,,,,,701,22,female,left_right_width,2024-05-09_10h45.13.192,exp1,2021.2.3,59.99570430280008,
,,,,,,,,,,,,,,,,,,,,,,,,,,,,,,,,,,,,,,,,,,,3,0,3,0,,,,,,,,,,,,,,,,,,,,,,2086.5248249999713,None,2086.5248249999713,None,701,22,female,left_right_width,2024-05-09_10h45.13.192,exp1,2021.2.3,59.99570430280008,
,,,,,,,,,,,,,,,,3,9.3,10,10.7,0,0,0.7,0.1499999999999999,0.55,1.95,10,initial,36.05,335,361,386,0,0,9,9,9,0,0,,,,,4,0,4,0,0,0,0,6,,,,,num_3,1.1918635999318212,num_3,0.25,1.2,0.39999999999999997,0.9,15.2822,34.38495,return,6.823098100023344,,,,,,,701,22,female,left_right_width,2024-05-09_10h45.13.192,exp1,2021.2.3,59.99570430280008,
,,,,,,,,,,,,,,,,3,9.3,10,10.7,0,0,0.7,0.29999999999999993,0.4,1.8,10,initial,36.05,335,361,386,0,0,9,9,9,0,0,,,,,4,0,4,0,0,1,1,9,,,,,num_3,0.9151701000519097,num_3,0.1,1.3,0.3,0.8,11.46165,30.5644,return,3.16606010007672,,,,,,,701,22,female,left_right_width,2024-05-09_10h45.13.192,exp1,2021.2.3,59.99570430280008,
,,,,,,,,,,,,,,,,5,8.65,9.325,10,10.675,11.35,0.675,0.125,0.55,3.25,10,match,36.05,312,336,361,385,409,9,9,9,9,9,,,,,4,0,4,0,0,2,2,29,,,,,num_4,0.9206531001254916,num_4,0.2,1.0,0.39999999999999997,1.0,15.2822,38.2055,return,2.834450799971819,,,,,,,701,22,female,left_right_width,2024-05-09_10h45.13.192,exp1,2021.2.3,59.99570430280008,
,,,,,,,,,,,,,,,,4,8.35,9.45,10.55,11.65,0,1.1,0.55,0.55,3.8500000000000005,10,initial,36.05,301,341,380,420,0,9,9,9,9,0,,,,,4,0,4,0,0,3,3,17,,,,,num_4,0.9524189999792725,num_4,0.25,1.3,0.44999999999999996,1.0,17.19248,38.2055,return,2.129399700090289,,,,,,,701,22,female,left_right_width,2024-05-09_10h45.13.192,exp1,2021.2.3,59.99570430280008,
,,,,,,,,,,,,,,,,4,9.3,9.766666666666667,10.233333333333333,10.7,0,0.4666666666666667,0.06666666666666665,0.4,1.8,10,match,36.05,335,352,369,386,0,9,9,9,9,0,,,,,4,0,4,0,0,4,4,10,,,,,num_4,0.8357042998541147,num_4,0.25,1.0,0.35,0.6,13.37193,22.9233,return,3.44468990014866,,,,,,,701,22,female,left_right_width,2024-05-09_10h45.13.192,exp1,2021.2.3,59.99570430280008,
,,,,,,,,,,,,,,,,3,8.9,10,11.1,0,0,1.1,0.8500000000000001,0.25,2.45,10,initial,36.05,321,361,400,0,0,9,9,9,0,0,,,,,4,0,4,0,0,5,5,2,,,,,num_3,0.9273084998130798,num_3,0.1,0.7,0.15000000000000002,1.1,5.73083,42.02605,return,3.6570996998343617,,,,,,,701,22,female,left_right_width,2024-05-09_10h45.13.192,exp1,2021.2.3,59.99570430280008,
,,,,,,,,,,,,,,,,5,8.275,9.1375,10,10.8625,11.725,0.8625,0.6125,0.25,3.7,10,match,36.05,298,329,361,392,423,9,9,9,9,9,,,,,4,0,4,0,0,6,6,22,,,,,num_5,1.6879811000544578,num_5,0.45,0.9,0.10000000000000007,0.85,3.82055,32.47468,return,2.7390791999641806,,,,,,,701,22,female,left_right_width,2024-05-09_10h45.13.192,exp1,2021.2.3,59.99570430280008,
,,,,,,,,,,,,,,,,5,7.8,8.9,10,11.1,12.2,1.1,0.7000000000000001,0.4,4.800000000000001,10,initial,36.05,281,321,361,400,440,9,9,9,9,9,,,,,4,0,4,0,0,7,7,38,,,,,num_4,1.0947912998963147,num_4,0.25,0.6,0.25,1.1,9.55138,42.02605,return,1.7378360000438988,,,,,,,701,22,female,left_right_width,2024-05-09_10h45.13.192,exp1,2021.2.3,59.99570430280008,
,,,,,,,,,,,,,,,,3,9.1,10,10.9,0,0,0.9,0.65,0.25,2.05,10,initial,36.05,328,361,393,0,0,9,9,9,0,0,,,,,4,0,4,0,0,8,8,13,,,,,num_3,0.8214131998829544,num_3,0.35,1.3,0.2,1.3,7.6411,49.66716,return,2.05110130016692,,,,,,,701,22,female,left_right_width,2024-05-09_10h45.13.192,exp1,2021.2.3,59.99570430280008,
,,,,,,,,,,,,,,,,4,8.9,9.633333333333333,10.366666666666667,11.1,0,0.7333333333333333,0.18333333333333326,0.55,2.75,10,match,36.05,321,347,374,400,0,9,9,9,9,0,,,,,4,0,4,0,0,9,9,1,,,,,num_4,0.7406150000169873,num_4,0.3,1.2,0.35,0.8,13.37193,30.5644,return,2.3579315000679344,,,,,,,701,22,female,left_right_width,2024-05-09_10h45.13.192,exp1,2021.2.3,59.99570430280008,
,,,,,,,,,,,,,,,,5,8.2,9.1,10,10.9,11.8,0.9,0.5,0.4,4,10,initial,36.05,296,328,361,393,425,9,9,9,9,9,,,,,4,0,4,0,0,10,10,50,,,,,num_5,1.0125193998683244,num_5,0.45,0.9,0.4,0.85,15.2822,32.47468,return,1.9634084000717849,,,,,,,701,22,female,left_right_width,2024-05-09_10h45.13.192,exp1,2021.2.3,59.99570430280008,
,,,,,,,,,,,,,,,,3,9.1,10,10.9,0,0,0.9,0.35,0.55,2.35,10,initial,36.05,328,361,393,0,0,9,9,9,0,0,,,,,4,0,4,0,0,11,11,11,,,,,num_3,0.6698813999537379,num_3,0.35,0.6,0.44999999999999996,0.7,17.19248,26.74385,return,1.650013699894771,,,,,,,701,22,female,left_right_width,2024-05-09_10h45.13.192,exp1,2021.2.3,59.99570430280008,
,,,,,,,,,,,,,,,,4,8.65,9.55,10.45,11.35,0,0.9,0.5,0.4,3.1,10,initial,36.05,312,344,377,409,0,9,9,9,9,0,,,,,4,0,4,0,0,12,12,32,,,,,num_5,1.341309699928388,num_5,0.1,1.1,0.3,0.75,11.46165,28.65413,return,3.9904493999201804,,,,,,,701,22,female,left_right_width,2024-05-09_10h45.13.192,exp1,2021.2.3,59.99570430280008,
,,,,,,,,,,,,,,,,4,8.35,9.45,10.55,11.65,0,1.1,0.7000000000000001,0.4,3.7,10,initial,36.05,301,341,380,420,0,9,9,9,9,0,,,,,4,0,4,0,0,13,13,21,,,,,num_4,0.6700930001679808,num_4,0.1,1.0,0.3,0.9,11.46165,34.38495,return,3.2018722998909652,,,,,,,701,22,female,left_right_width,2024-05-09_10h45.13.192,exp1,2021.2.3,59.99570430280008,
,,,,,,,,,,,,,,,,4,9.3,9.766666666666667,10.233333333333333,10.7,0,0.4666666666666667,0.21666666666666665,0.25,1.65,10,match,36.05,335,352,369,386,0,9,9,9,9,0,,,,,4,0,4,0,0,14,14,8,,,,,num_4,0.699395600007847,num_4,0.2,0.5,0.2,0.5,7.6411,19.10275,return,0.8467145999893546,,,,,,,701,22,female,left_right_width,2024-05-09_10h45.13.192,exp1,2021.2.3,59.99570430280008,
,,,,,,,,,,,,,,,,4,9.1,9.7,10.3,10.9,0,0.6000000000000001,0.20000000000000004,0.4,2.2,10,match,36.05,328,350,371,393,0,9,9,9,9,0,,,,,4,0,4,0,0,15,15,16,,,,,num_4,0.7499486000742763,num_4,0.3,0.8,0.3,0.7,11.46165,26.74385,return,1.695388900116086,,,,,,,701,22,female,left_right_width,2024-05-09_10h45.13.192,exp1,2021.2.3,59.99570430280008,
,,,,,,,,,,,,,,,,5,8.65,9.325,10,10.675,11.35,0.675,0.42500000000000004,0.25,2.95,10,match,36.05,312,336,361,385,409,9,9,9,9,9,,,,,4,0,4,0,0,16,16,31,,,,,num_5,0.894806900061667,num_5,0.2,1.3,0.2,0.8,7.6411,30.5644,return,2.2177962998393923,,,,,,,701,22,female,left_right_width,2024-05-09_10h45.13.192,exp1,2021.2.3,59.99570430280008,
,,,,,,,,,,,,,,,,4,8.95,9.65,10.35,11.05,0,0.7,0.44999999999999996,0.25,2.3499999999999996,10,initial,36.05,323,348,373,398,0,9,9,9,9,0,,,,,4,0,4,0,0,17,17,24,,,,,num_4,1.010699599981308,num_4,0.1,1.2,0.15000000000000002,0.5,5.73083,19.10275,return,1.8652114002034068,,,,,,,701,22,female,left_right_width,2024-05-09_10h45.13.192,exp1,2021.2.3,59.99570430280008,
,,,,,,,,,,,,,,,,5,7.8,8.9,10,11.1,12.2,1.1,0.55,0.55,4.95,10,initial,36.05,281,321,361,400,440,9,9,9,9,9,,,,,4,0,4,0,0,18,18,34,,,,,num_5,0.8820656000170857,num_5,0.1,0.6,0.44999999999999996,1.0,17.19248,38.2055,return,3.069760100217536,,,,,,,701,22,female,left_right_width,2024-05-09_10h45.13.192,exp1,2021.2.3,59.99570430280008,
,,,,,,,,,,,,,,,,3,8.2,10,11.8,0,0,1.7999999999999998,1.4,0.4,4,10,match,36.05,296,361,425,0,0,9,9,9,0,0,,,,,4,0,4,0,0,19,19,51,,,,,num_3,0.820488200057298,num_3,0.3,1.3,0.39999999999999997,1.4,15.2822,53.48771,return,2.018453400116414,,,,,,,701,22,female,left_right_width,2024-05-09_10h45.13.192,exp1,2021.2.3,59.99570430280008,
,,,,,,,,,,,,,,,,5,8.95,9.475,10,10.525,11.05,0.525,0.275,0.25,2.35,10,match,36.05,323,342,361,379,398,9,9,9,9,9,,,,,4,0,4,0,0,20,20,25,,,,,num_5,1.5796299001667649,num_5,0.3,0.7,0.3,0.7,11.46165,26.74385,return,0.9550987998954952,,,,,,,701,22,female,left_right_width,2024-05-09_10h45.13.192,exp1,2021.2.3,59.99570430280008,
,,,,,,,,,,,,,,,,3,9.1,10,10.9,0,0,0.9,0.5,0.4,2.2,10,initial,36.05,328,361,393,0,0,9,9,9,0,0,,,,,4,0,4,0,0,21,21,15,,,,,num_2,1.0139264999888837,num_2,0.25,1.6,0.35,1.0,13.37193,38.2055,return,2.7649632999673486,,,,,,,701,22,female,left_right_width,2024-05-09_10h45.13.192,exp1,2021.2.3,59.99570430280008,
,,,,,,,,,,,,,,,,3,7.800000000000001,10,12.2,0,0,2.1999999999999997,1.7999999999999998,0.4,4.8,10,match,36.05,281,361,440,0,0,9,9,9,0,0,,,,,4,0,4,0,0,22,22,39,,,,,num_3,0.7092517998535186,num_3,0.1,0.6,0.35,1.45,13.37193,55.39798,return,5.448233000002801,,,,,,,701,22,female,left_right_width,2024-05-09_10h45.13.192,exp1,2021.2.3,59.99570430280008,
,,,,,,,,,,,,,,,,4,8.35,9.45,10.55,11.65,0,1.1,0.8500000000000001,0.25,3.5500000000000003,10,initial,36.05,301,341,380,420,0,9,9,9,9,0,,,,,4,0,4,0,0,23,23,19,,,,,num_4,1.0071131000295281,num_4,0.4,1.1,0.10000000000000007,1.0,3.82055,38.2055,return,2.646032700082287,,,,,,,701,22,female,left_right_width,2024-05-09_10h45.13.192,exp1,2021.2.3,59.99570430280008,
,,,,,,,,,,,,,,,,3,8.6,10,11.4,0,0,1.4,0.85,0.55,3.35,10,match,36.05,310,361,411,0,0,9,9,9,0,0,,,,,4,0,4,0,0,24,24,41,,,,,num_2,1.065130200004205,num_2,0.15,1.6,0.5499999999999999,1.4,21.01303,53.48771,return,2.621842199936509,,,,,,,701,22,female,left_right_width,2024-05-09_10h45.13.192,exp1,2021.2.3,59.99570430280008,
,,,,,,,,,,,,,,,,4,8.825,9.608333333333333,10.391666666666667,11.175,0,0.7833333333333333,0.5333333333333333,0.25,2.6,10,match,36.05,318,346,375,403,0,9,9,9,9,0,,,,,4,0,4,0,0,25,25,5,,,,,num_3,1.0900032001081854,num_3,0.35,0.5,0.25,1.05,9.55138,40.11578,return,4.805122299818322,,,,,,,701,22,female,left_right_width,2024-05-09_10h45.13.192,exp1,2021.2.3,59.99570430280008,
,,,,,,,,,,,,,,,,5,8.35,9.175,10,10.825,11.65,0.8250000000000001,0.275,0.55,3.85,10,match,36.05,301,331,361,390,420,9,9,9,9,9,,,,,4,0,4,0,0,26,26,18,,,,,num_4,0.9500283999368548,num_4,0.4,1.0,0.4,0.6,15.2822,22.9233,return,1.4871414999943227,,,,,,,701,22,female,left_right_width,2024-05-09_10h45.13.192,exp1,2021.2.3,59.99570430280008,
,,,,,,,,,,,,,,,,4,9.1,9.7,10.3,10.9,0,0.6,0.04999999999999997,0.55,2.35,10,match,36.05,328,350,371,393,0,9,9,9,9,0,,,,,4,0,4,0,0,27,27,12,,,,,num_4,1.300889699952677,num_4,0.45,0.6,0.45,0.5,17.19248,19.10275,return,1.5512284999713302,,,,,,,701,22,female,left_right_width,2024-05-09_10h45.13.192,exp1,2021.2.3,59.99570430280008,
,,,,,,,,,,,,,,,,3,8.9,10,11.1,0,0,1.1,0.7000000000000001,0.4,2.6000000000000005,10,initial,36.05,321,361,400,0,0,9,9,9,0,0,,,,,4,0,4,0,0,28,28,4,,,,,num_2,1.058589099906385,num_2,0.2,1.6,0.49999999999999994,1.1,19.10275,42.02605,return,2.951140800025314,,,,,,,701,22,female,left_right_width,2024-05-09_10h45.13.192,exp1,2021.2.3,59.99570430280008,
,,,,,,,,,,,,,,,,3,8.2,10,11.8,0,0,1.8,1.25,0.55,4.15,10,match,36.05,296,361,425,0,0,9,9,9,0,0,,,,,4,0,4,0,0,29,29,47,,,,,num_2,0.9683509001042694,num_2,0.25,1.6,0.5499999999999999,1.7,21.01303,64.94936,return,4.560727600008249,,,,,,,701,22,female,left_right_width,2024-05-09_10h45.13.192,exp1,2021.2.3,59.99570430280008,
,,,,,,,,,,,,,,,,3,8.9,10,11.1,0,0,1.1,0.55,0.55,2.75,10,initial,36.05,321,361,400,0,0,9,9,9,0,0,,,,,4,0,4,0,0,30,30,0,,,,,num_2,0.8133388999849558,num_2,0.25,1.6,0.49999999999999994,1.6,19.10275,61.12881,return,4.555784799857065,,,,,,,701,22,female,left_right_width,2024-05-09_10h45.13.192,exp1,2021.2.3,59.99570430280008,
,,,,,,,,,,,,,,,,5,8.35,9.175,10,10.825,11.65,0.825,0.575,0.25,3.55,10,match,36.05,301,331,361,390,420,9,9,9,9,9,,,,,4,0,4,0,0,31,31,20,,,,,num_5,2.034747199853882,num_5,0.15,0.4,0.15,0.7,5.73083,26.74385,return,2.0641130001749843,,,,,,,701,22,female,left_right_width,2024-05-09_10h45.13.192,exp1,2021.2.3,59.99570430280008,
,,,,,,,,,,,,,,,,5,8.6,9.3,10,10.7,11.4,0.7,0.44999999999999996,0.25,3.05,10,initial,36.05,310,335,361,386,411,9,9,9,9,9,,,,,4,0,4,0,0,32,32,42,,,,,num_4,0.7787859002128243,num_4,0.25,0.7,0.15000000000000002,1.0,5.73083,38.2055,return,2.2024556000251323,,,,,,,701,22,female,left_right_width,2024-05-09_10h45.13.192,exp1,2021.2.3,59.99570430280008,
,,,,,,,,,,,,,,,,5,8.6,9.3,10,10.7,11.4,0.7,0.1499999999999999,0.55,3.3499999999999996,10,initial,36.05,310,335,361,386,411,9,9,9,9,9,,,,,4,0,4,0,0,33,33,40,,,,,num_4,0.7940358000341803,num_4,0.1,1.0,0.49999999999999994,0.7,19.10275,26.74385,return,4.1211703000590205,,,,,,,701,22,female,left_right_width,2024-05-09_10h45.13.192,exp1,2021.2.3,59.99570430280008,
,,,,,,,,,,,,,,,,3,8.2,10,11.8,0,0,1.8,1.55,0.25,3.85,10,match,36.05,296,361,425,0,0,9,9,9,0,0,,,,,4,0,4,0,0,34,34,49,,,,,num_2,0.9095187999773771,num_2,0.2,1.6,0.15000000000000002,1.8,5.73083,68.76991,return,4.20000039995648,,,,,,,701,22,female,left_right_width,2024-05-09_10h45.13.192,exp1,2021.2.3,59.99570430280008,
,,,,,,,,,,,,,,,,4,8.65,9.55,10.45,11.35,0,0.9,0.65,0.25,2.95,10,initial,36.05,312,344,377,409,0,9,9,9,9,0,,,,,4,0,4,0,0,35,35,30,,,,,num_3,0.9952734999824315,num_3,0.15,0.4,0.15,0.85,5.73083,32.47468,return,2.090486600063741,,,,,,,701,22,female,left_right_width,2024-05-09_10h45.13.192,exp1,2021.2.3,59.99570430280008,
,,,,,,,,,,,,,,,,4,8.95,9.65,10.35,11.05,0,0.7,0.1499999999999999,0.55,2.65,10,initial,36.05,323,348,373,398,0,9,9,9,9,0,,,,,4,0,4,0,0,36,36,23,,,,,num_3,1.5176945999264717,num_3,0.4,1,0.4,0.85,15.2822,32.47468,return,1.7919906999450177,,,,,,,701,22,female,left_right_width,2024-05-09_10h45.13.192,exp1,2021.2.3,59.99570430280008,
,,,,,,,,,,,,,,,,3,7.8,10,12.2,0,0,2.2,1.9500000000000002,0.25,4.65,10,match,36.05,281,361,440,0,0,9,9,9,0,0,,,,,4,0,4,0,0,37,37,37,,,,,num_2,0.8113873000256717,num_2,0.35,1.6,0.2,2.6,7.6411,99.33431,return,5.241994899930432,,,,,,,701,22,female,left_right_width,2024-05-09_10h45.13.192,exp1,2021.2.3,59.99570430280008,
,,,,,,,,,,,,,,,,3,7.8,10,12.2,0,0,2.2,1.65,0.55,4.95,10,match,36.05,281,361,440,0,0,9,9,9,0,0,,,,,4,0,4,0,0,38,38,35,,,,,num_2,0.8572059001307935,num_2,0.4,1.6,0.4,2.3,15.2822,87.87266,return,2.757802600041032,,,,,,,701,22,female,left_right_width,2024-05-09_10h45.13.192,exp1,2021.2.3,59.99570430280008,
,,,,,,,,,,,,,,,,3,8.6,10,11.4,0,0,1.4,1.15,0.25,3.05,10,match,36.05,310,361,411,0,0,9,9,9,0,0,,,,,4,0,4,0,0,39,39,43,,,,,num_2,0.7983715999871492,num_2,0.15,1.6,0.15,2.2,5.73083,84.05211,return,1.8538066998589784,,,,,,,701,22,female,left_right_width,2024-05-09_10h45.13.192,exp1,2021.2.3,59.99570430280008,
,,,,,,,,,,,,,,,,4,8.9,9.633333333333333,10.366666666666667,11.1,0,0.7333333333333334,0.4833333333333334,0.25,2.45,10,match,36.05,321,347,374,400,0,9,9,9,9,0,,,,,4,0,4,0,0,40,40,3,,,,,num_3,0.7909815001767129,num_3,0.35,0.5,0.2,0.95,7.6411,36.29523,return,3.5738597998861223,,,,,,,701,22,female,left_right_width,2024-05-09_10h45.13.192,exp1,2021.2.3,59.99570430280008,
,,,,,,,,,,,,,,,,5,7.8,8.9,10,11.1,12.2,1.1,0.8500000000000001,0.25,4.65,10,initial,36.05,281,321,361,400,440,9,9,9,9,9,,,,,4,0,4,0,0,41,41,36,,,,,num_5,1.096135800005868,num_5,0.25,1.2,0.25,1.2,9.55138,45.8466,return,1.115231700008735,,,,,,,701,22,female,left_right_width,2024-05-09_10h45.13.192,exp1,2021.2.3,59.99570430280008,
,,,,,,,,,,,,,,,,5,8.65,9.325,10,10.675,11.35,0.675,0.275,0.4,3.1,10,match,36.05,312,336,361,385,409,9,9,9,9,9,,,,,4,0,4,0,0,42,42,33,,,,,num_4,1.127939899917692,num_4,0.15,1.2,0.3,0.4,11.46165,15.2822,return,3.657906400039792,,,,,,,701,22,female,left_right_width,2024-05-09_10h45.13.192,exp1,2021.2.3,59.99570430280008,
,,,,,,,,,,,,,,,,4,8.95,9.65,10.35,11.05,0,0.7,0.29999999999999993,0.4,2.5,10,initial,36.05,323,348,373,398,0,9,9,9,9,0,,,,,4,0,4,0,0,43,43,26,,,,,num_4,0.8586407001130283,num_4,0.25,0.7,0.35,0.5,13.37193,19.10275,return,4.487028399948031,,,,,,,701,22,female,left_right_width,2024-05-09_10h45.13.192,exp1,2021.2.3,59.99570430280008,
,,,,,,,,,,,,,,,,4,9.1,9.7,10.3,10.9,0,0.5999999999999999,0.3499999999999999,0.25,2.05,10,match,36.05,328,350,371,393,0,9,9,9,9,0,,,,,4,0,4,0,0,44,44,14,,,,,num_4,1.3486058001872152,num_4,0.1,0.7,0.25,0.5,9.55138,19.10275,return,3.0378030000720173,,,,,,,701,22,female,left_right_width,2024-05-09_10h45.13.192,exp1,2021.2.3,59.99570430280008,
,,,,,,,,,,,,,,,,5,8.95,9.475,10,10.525,11.05,0.525,0.125,0.4,2.5,10,match,36.05,323,342,361,379,398,9,9,9,9,9,,,,,4,0,4,0,0,45,45,27,,,,,num_5,1.3191877999342978,num_5,0.3,0.7,0.3,0.4,11.46165,15.2822,return,2.065307900076732,,,,,,,701,22,female,left_right_width,2024-05-09_10h45.13.192,exp1,2021.2.3,59.99570430280008,
,,,,,,,,,,,,,,,,3,8.525,10,11.475,0,0,1.475,1.225,0.25,3.2,10,match,36.05,307,361,414,0,0,9,9,9,0,0,,,,,4,0,4,0,0,46,46,45,,,,,num_4,0.94988640001975,num_4,0.25,0.4,0.25,1.0,9.55138,38.2055,return,3.3274747999385,,,,,,,701,22,female,left_right_width,2024-05-09_10h45.13.192,exp1,2021.2.3,59.99570430280008,
,,,,,,,,,,,,,,,,5,8.2,9.1,10,10.9,11.8,0.9,0.35,0.55,4.15,10,initial,36.05,296,328,361,393,425,9,9,9,9,9,,,,,4,0,4,0,0,47,47,46,,,,,num_4,4.493564900010824,num_4,0.3,0.4,0.3,0.4,11.46165,15.2822,return,1.160710700089112,,,,,,,701,22,female,left_right_width,2024-05-09_10h45.13.192,exp1,2021.2.3,59.99570430280008,
,,,,,,,,,,,,,,,,5,8.6,9.3,10,10.7,11.4,0.7,0.29999999999999993,0.4,3.1999999999999997,10,initial,36.05,310,335,361,386,411,9,9,9,9,9,,,,,4,0,4,0,0,48,48,44,,,,,num_4,0.9352977001108229,num_4,0.3,0.4,0.3,0.8,11.46165,30.5644,return,2.160737599944696,,,,,,,701,22,female,left_right_width,2024-05-09_10h45.13.192,exp1,2021.2.3,59.99570430280008,
,,,,,,,,,,,,,,,,3,9.3,10,10.7,0,0,0.7,0.44999999999999996,0.25,1.65,10,initial,36.05,335,361,386,0,0,9,9,9,0,0,,,,,4,0,4,0,0,49,49,7,,,,,num_3,0.8714848000090569,num_3,0.1,1.3,0.3,1.3,11.46165,49.66716,return,1.603289799997583,,,,,,,701,22,female,left_right_width,2024-05-09_10h45.13.192,exp1,2021.2.3,59.99570430280008,
,,,,,,,,,,,,,,,,5,8.2,9.1,10,10.9,11.8,0.9,0.65,0.25,3.85,10,initial,36.05,296,328,361,393,425,9,9,9,9,9,,,,,4,0,4,0,0,50,50,48,,,,,num_4,0.6842326999176294,num_4,0.2,1.2,0.2,1.2,7.6411,45.8466,return,1.2153485000599176,,,,,,,701,22,female,left_right_width,2024-05-09_10h45.13.192,exp1,2021.2.3,59.99570430280008,
,,,,,,,,,,,,,,,,4,8.65,9.55,10.45,11.35,0,0.9,0.35,0.55,3.25,10,initial,36.05,312,344,377,409,0,9,9,9,9,0,,,,,4,0,4,0,0,51,51,28,,,,,num_3,0.7998359999619424,num_3,0.35,0.9,0.35,0.9,13.37193,34.38495,return,0.6871901999693364,,,,,,,701,22,female,left_right_width,2024-05-09_10h45.13.192,exp1,2021.2.3,59.99570430280008,
,,,,,,,,,,,,,,,,,,,,,,,,,,,,,,,,,,,,,,,,,,,4,0,4,0,,,,,,,,,,,,,,,,,,,,,,2519.0241376999766,None,2519.0241376999766,None,701,22,female,left_right_width,2024-05-09_10h45.13.192,exp1,2021.2.3,59.99570430280008,
,,,,,,,,,,,,,,,,4,8.95,9.65,10.35,11.05,0,0.7,0.29999999999999993,0.4,2.5,10,initial,36.05,323,348,373,398,0,9,9,9,9,0,,,,,5,0,5,0,0,0,0,26,,,,,num_3,0.9741511000320315,num_3,0.4,0.5,0.4,0.8,15.2822,30.5644,return,1.814109900034964,,,,,,,701,22,female,left_right_width,2024-05-09_10h45.13.192,exp1,2021.2.3,59.99570430280008,
,,,,,,,,,,,,,,,,4,9.1,9.7,10.3,10.9,0,0.5999999999999999,0.3499999999999999,0.25,2.05,10,match,36.05,328,350,371,393,0,9,9,9,9,0,,,,,5,0,5,0,0,1,1,14,,,,,num_3,0.8907576000783592,num_3,0.45,0.6,0.25000000000000006,0.7,9.55138,26.74385,return,2.9982028000522405,,,,,,,701,22,female,left_right_width,2024-05-09_10h45.13.192,exp1,2021.2.3,59.99570430280008,
,,,,,,,,,,,,,,,,3,8.9,10,11.1,0,0,1.1,0.7000000000000001,0.4,2.6000000000000005,10,initial,36.05,321,361,400,0,0,9,9,9,0,0,,,,,5,0,5,0,0,2,2,4,,,,,num_3,1.2212763999123126,num_3,0.35,1.1,0.35,1.0,13.37193,38.2055,return,1.47540820017457,,,,,,,701,22,female,left_right_width,2024-05-09_10h45.13.192,exp1,2021.2.3,59.99570430280008,
,,,,,,,,,,,,,,,,4,8.35,9.45,10.55,11.65,0,1.1,0.7000000000000001,0.4,3.7,10,initial,36.05,301,341,380,420,0,9,9,9,9,0,,,,,5,0,5,0,0,3,3,21,,,,,num_3,0.6033111000433564,num_3,0.45,0.8,0.45,1.05,17.19248,40.11578,return,1.7141068999189883,,,,,,,701,22,female,left_right_width,2024-05-09_10h45.13.192,exp1,2021.2.3,59.99570430280008,
,,,,,,,,,,,,,,,,4,8.65,9.55,10.45,11.35,0,0.9,0.5,0.4,3.1,10,initial,36.05,312,344,377,409,0,9,9,9,9,0,,,,,5,0,5,0,0,4,4,32,,,,,num_4,0.9067096000071615,num_4,0.2,0.3,0.3,1.0,11.46165,38.2055,return,2.069263800047338,,,,,,,701,22,female,left_right_width,2024-05-09_10h45.13.192,exp1,2021.2.3,59.99570430280008,
,,,,,,,,,,,,,,,,5,7.8,8.9,10,11.1,12.2,1.1,0.7000000000000001,0.4,4.800000000000001,10,initial,36.05,281,321,361,400,440,9,9,9,9,9,,,,,5,0,5,0,0,5,5,38,,,,,num_4,1.0998798999935389,num_4,0.45,0.6,0.30000000000000004,1.0,11.46165,38.2055,return,2.927461100043729,,,,,,,701,22,female,left_right_width,2024-05-09_10h45.13.192,exp1,2021.2.3,59.99570430280008,
,,,,,,,,,,,,,,,,4,8.65,9.55,10.45,11.35,0,0.9,0.35,0.55,3.25,10,initial,36.05,312,344,377,409,0,9,9,9,9,0,,,,,5,0,5,0,0,6,6,28,,,,,num_4,0.9253207000438124,num_4,0.2,0.8,0.3,0.8,11.46165,30.5644,return,3.0316268999595195,,,,,,,701,22,female,left_right_width,2024-05-09_10h45.13.192,exp1,2021.2.3,59.99570430280008,
,,,,,,,,,,,,,,,,5,8.65,9.325,10,10.675,11.35,0.675,0.42500000000000004,0.25,2.95,10,match,36.05,312,336,361,385,409,9,9,9,9,9,,,,,5,0,5,0,0,7,7,31,,,,,num_4,1.2073655999265611,num_4,0.1,0.7,0.25,0.6,9.55138,22.9233,return,2.037874999921769,,,,,,,701,22,female,left_right_width,2024-05-09_10h45.13.192,exp1,2021.2.3,59.99570430280008,
,,,,,,,,,,,,,,,,5,8.95,9.475,10,10.525,11.05,0.525,0.275,0.25,2.35,10,match,36.05,323,342,361,379,398,9,9,9,9,9,,,,,5,0,5,0,0,8,8,25,,,,,num_5,0.8973716001491994,num_5,0.15,0.7,0.2,0.45,7.6411,17.19248,return,3.036456499947235,,,,,,,701,22,female,left_right_width,2024-05-09_10h45.13.192,exp1,2021.2.3,59.99570430280008,
,,,,,,,,,,,,,,,,5,8.35,9.175,10,10.825,11.65,0.825,0.575,0.25,3.55,10,match,36.05,301,331,361,390,420,9,9,9,9,9,,,,,5,0,5,0,0,9,9,20,,,,,num_4,0.8439891999587417,num_4,0.3,0.5,0.25,0.9,9.55138,34.38495,return,1.9134329000953585,,,,,,,701,22,female,left_right_width,2024-05-09_10h45.13.192,exp1,2021.2.3,59.99570430280008,
,,,,,,,,,,,,,,,,5,8.2,9.1,10,10.9,11.8,0.9,0.5,0.4,4,10,initial,36.05,296,328,361,393,425,9,9,9,9,9,,,,,5,0,5,0,0,10,10,50,,,,,num_5,0.9983376001473516,num_5,0.4,1.3,0.25000000000000006,0.65,9.55138,24.83358,return,3.3253569998778403,,,,,,,701,22,female,left_right_width,2024-05-09_10h45.13.192,exp1,2021.2.3,59.99570430280008,
,,,,,,,,,,,,,,,,5,8.65,9.325,10,10.675,11.35,0.675,0.275,0.4,3.1,10,match,36.05,312,336,361,385,409,9,9,9,9,9,,,,,5,0,5,0,0,11,11,33,,,,,num_5,0.911587500013411,num_5,0.45,0.6,0.25000000000000006,0.6,9.55138,22.9233,return,3.689877500059083,,,,,,,701,22,female,left_right_width,2024-05-09_10h45.13.192,exp1,2021.2.3,59.99570430280008,
,,,,,,,,,,,,,,,,5,8.2,9.1,10,10.9,11.8,0.9,0.35,0.55,4.15,10,initial,36.05,296,328,361,393,425,9,9,9,9,9,,,,,5,0,5,0,0,12,12,46,,,,,num_5,1.3315461000893265,num_5,0.2,0.8,0.35,0.6,13.37193,22.9233,return,4.813469500048086,,,,,,,701,22,female,left_right_width,2024-05-09_10h45.13.192,exp1,2021.2.3,59.99570430280008,
,,,,,,,,,,,,,,,,3,9.1,10,10.9,0,0,0.9,0.5,0.4,2.2,10,initial,36.05,328,361,393,0,0,9,9,9,0,0,,,,,5,0,5,0,0,13,13,15,,,,,num_2,0.7678352000657469,num_2,0.2,1.6,0.35,0.9,13.37193,34.38495,return,3.9678905000910163,,,,,,,701,22,female,left_right_width,2024-05-09_10h45.13.192,exp1,2021.2.3,59.99570430280008,
,,,,,,,,,,,,,,,,4,8.65,9.55,10.45,11.35,0,0.9,0.65,0.25,2.95,10,initial,36.05,312,344,377,409,0,9,9,9,9,0,,,,,5,0,5,0,0,14,14,30,,,,,num_3,1.3705400999169797,num_3,0.4,0.9,0.20000000000000007,0.75,7.6411,28.65413,return,6.434519700007513,,,,,,,701,22,female,left_right_width,2024-05-09_10h45.13.192,exp1,2021.2.3,59.99570430280008,
,,,,,,,,,,,,,,,,3,7.8,10,12.2,0,0,2.2,1.9500000000000002,0.25,4.65,10,match,36.05,281,361,440,0,0,9,9,9,0,0,,,,,5,0,5,0,0,15,15,37,,,,,num_2,1.0905859000049531,num_2,0.1,1.6,0.25,1.8,9.55138,68.76991,return,2.566099900053814,,,,,,,701,22,female,left_right_width,2024-05-09_10h45.13.192,exp1,2021.2.3,59.99570430280008,
,,,,,,,,,,,,,,,,5,8.35,9.175,10,10.825,11.65,0.8250000000000001,0.275,0.55,3.85,10,match,36.05,301,331,361,390,420,9,9,9,9,9,,,,,5,0,5,0,0,16,16,18,,,,,num_3,1.1107795999851078,num_3,0.4,0.8,0.4,0.8,15.2822,30.5644,return,1.0654126999434084,,,,,,,701,22,female,left_right_width,2024-05-09_10h45.13.192,exp1,2021.2.3,59.99570430280008,
,,,,,,,,,,,,,,,,4,8.825,9.608333333333333,10.391666666666667,11.175,0,0.7833333333333333,0.5333333333333333,0.25,2.6,10,match,36.05,318,346,375,403,0,9,9,9,9,0,,,,,5,0,5,0,0,17,17,5,,,,,num_3,0.9620544998906553,num_3,0.3,1.1,0.2,1.05,7.6411,40.11578,return,1.9948077001608908,,,,,,,701,22,female,left_right_width,2024-05-09_10h45.13.192,exp1,2021.2.3,59.99570430280008,
,,,,,,,,,,,,,,,,3,8.2,10,11.8,0,0,1.8,1.55,0.25,3.85,10,match,36.05,296,361,425,0,0,9,9,9,0,0,,,,,5,0,5,0,0,18,18,49,,,,,num_2,0.7920178999193013,num_2,0.35,1.6,0.25,1.5,9.55138,57.30826,return,1.6871664999052882,,,,,,,701,22,female,left_right_width,2024-05-09_10h45.13.192,exp1,2021.2.3,59.99570430280008,
,,,,,,,,,,,,,,,,3,8.2,10,11.8,0,0,1.7999999999999998,1.4,0.4,4,10,match,36.05,296,361,425,0,0,9,9,9,0,0,,,,,5,0,5,0,0,19,19,51,,,,,num_2,0.756652400130406,num_2,0.45,1.6,0.35000000000000003,1.9,13.37193,72.59046,return,2.6615536001045257,,,,,,,701,22,female,left_right_width,2024-05-09_10h45.13.192,exp1,2021.2.3,59.99570430280008,
,,,,,,,,,,,,,,,,5,8.6,9.3,10,10.7,11.4,0.7,0.29999999999999993,0.4,3.1999999999999997,10,initial,36.05,310,335,361,386,411,9,9,9,9,9,,,,,5,0,5,0,0,20,20,44,,,,,num_4,0.8401879998855293,num_4,0.2,0.3,0.35,0.7,13.37193,26.74385,return,2.1173170001711696,,,,,,,701,22,female,left_right_width,2024-05-09_10h45.13.192,exp1,2021.2.3,59.99570430280008,
,,,,,,,,,,,,,,,,3,9.1,10,10.9,0,0,0.9,0.65,0.25,2.05,10,initial,36.05,328,361,393,0,0,9,9,9,0,0,,,,,5,0,5,0,0,21,21,13,,,,,num_2,0.856191499857232,num_2,0.35,1.6,0.25,1.3,9.55138,49.66716,return,2.0044937999919057,,,,,,,701,22,female,left_right_width,2024-05-09_10h45.13.192,exp1,2021.2.3,59.99570430280008,
,,,,,,,,,,,,,,,,5,7.8,8.9,10,11.1,12.2,1.1,0.55,0.55,4.95,10,initial,36.05,281,321,361,400,440,9,9,9,9,9,,,,,5,0,5,0,0,22,22,34,,,,,num_4,1.0455047998111695,num_4,0.45,1.2,0.45,1.2,17.19248,45.8466,return,0.8749226999934763,,,,,,,701,22,female,left_right_width,2024-05-09_10h45.13.192,exp1,2021.2.3,59.99570430280008,
,,,,,,,,,,,,,,,,4,8.35,9.45,10.55,11.65,0,1.1,0.55,0.55,3.8500000000000005,10,initial,36.05,301,341,380,420,0,9,9,9,9,0,,,,,5,0,5,0,0,23,23,17,,,,,num_3,0.932628900045529,num_3,0.15,1.1,0.44999999999999996,1.1,17.19248,42.02605,return,3.902569399913773,,,,,,,701,22,female,left_right_width,2024-05-09_10h45.13.192,exp1,2021.2.3,59.99570430280008,
