amount_p,posx1_p,posx2_p,posx3_p,posx4_p,posx5_p,center_to_center_p,edge_to_edge_p,w_p,stim_lengt_p,eccentricity_p,line1_p,line2_p,line3_p,line4_p,line5_p,amount,posx1,posx2,posx3,posx4,posx5,center_to_center,edge_to_edge,w,stim_length,eccentricity,trial_type,deg_to_pix_index,posx1_in_pix,posx2_in_pix,posx3_in_pix,posx4_in_pix,posx5_in_pix,line1,line2,line3,line4,line5,posx,setsize_cobdi,trials.thisRepN,trials.thisTrialN,trials.thisN,trials.thisIndex,blocks.thisRepN,blocks.thisTrialN,blocks.thisN,blocks.thisIndex,loop.thisRepN,loop.thisTrialN,loop.thisN,loop.thisIndex,first.thisRepN,first.thisTrialN,first.thisN,first.thisIndex,second.thisRepN,second.thisTrialN,second.thisN,second.thisIndex,key_resp_3.started,key_resp_3.keys,key_resp_3.rt,key_resp.keys,key_resp.rt,response,starting_width_deg,starting_space_deg,response_width_degree,response_spacing_degree,response_width_pixel,response_spacing_pixel,next_5.keys,next_5.rt,key_resp_4.keys,key_resp_4.rt,text_3.started,text_4.started,key_resp_2.started,text_2.started,key_resp_2.keys,key_resp_2.rt,adjusting.started,next.keys,next.rt,text_control2.started,key_resp.started,key_resp.corr,text_bye.started,text_bye.stopped,participant,age,gender,resp_group,date,expName,psychopyVersion,frameRate,
,,,,,,,,,,,,,,,,,,,,,,,,,,,,,,,,,,,,,,,,,,,,,,,,,,,,,,,,,,,,,27.743692100048065,c,175.44672450004146,,,,,,,,,,,,,,,,,,,,,,,,,,,,702,21,female,up_down_width,2024-05-10_11h54.33.042,exp1,2023.1.0,60.00398423900856,
4,9.5,9.833333333333334,10.166666666666666,10.5,0,0.33333333333333337,0.23333333333333336,0.1,1.1,10,9,9,9,9,0,,,,,,,,,,,,,,,,,,,,,,,,,,0,0,0,3,,,,,,,,,,,,,,,,,,,,num_4,7.095695599913597,num_4,0.25,0.6,0.10000000000000002,0.5,3.82055,19.10275,return,22.84972029994242,,,,,,,,,,,,,,,,,702,21,female,up_down_width,2024-05-10_11h54.33.042,exp1,2023.1.0,60.00398423900856,
3,9.5,10,10.5,0,0,0.5,0.4,0.1,1.1,10,9,9,9,0,0,,,,,,,,,,,,,,,,,,,,,,,,,,0,1,1,0,,,,,,,,,,,,,,,,,,,,num_3,1.6895285998471081,num_3,0.25,0.5,0.10000000000000002,0.7,3.82055,26.74385,return,4.816326099913567,,,,,,,,,,,,,,,,,702,21,female,up_down_width,2024-05-10_11h54.33.042,exp1,2023.1.0,60.00398423900856,
3,9,10,11,0,0,1,0.9,0.1,2.1,10,9,9,9,0,0,,,,,,,,,,,,,,,,,,,,,,,,,,0,2,2,1,,,,,,,,,,,,,,,,,,,,num_3,2.8685242997016758,num_3,0.25,0.7,0.05000000000000002,0.8,1.91028,30.5644,return,6.252567699877545,,,,,,,,,,,,,,,,,702,21,female,up_down_width,2024-05-10_11h54.33.042,exp1,2023.1.0,60.00398423900856,
3,8.2,10,11.8,0,0,1.7999999999999998,1.4,0.4,4,10,9,9,9,0,0,,,,,,,,,,,,,,,,,,,,,,,,,,0,3,3,2,,,,,,,,,,,,,,,,,,,,num_3,2.2080696998164058,num_3,0.35,0.5,0.25,0.85,9.55138,32.47468,return,8.530145699856803,,,,,,,,,,,,,,,,,702,21,female,up_down_width,2024-05-10_11h54.33.042,exp1,2023.1.0,60.00398423900856,
5,9.25,9.625,10,10.375,10.75,0.375,0.125,0.25,1.75,10,9,9,9,9,9,,,,,,,,,,,,,,,,,,,,,,,,,,0,4,4,6,,,,,,,,,,,,,,,,,,,,num_5,2.1230554000940174,num_5,0.45,0.5,0.35000000000000003,0.5,13.37193,19.10275,return,4.9325861998368055,,,,,,,,,,,,,,,,,702,21,female,up_down_width,2024-05-10_11h54.33.042,exp1,2023.1.0,60.00398423900856,
4,8.65,9.55,10.45,11.35,0,0.9,0.5,0.4,3.1,10,9,9,9,9,0,,,,,,,,,,,,,,,,,,,,,,,,,,0,5,5,5,,,,,,,,,,,,,,,,,,,,num_4,1.5678946999832988,num_4,0.25,0.3,0.25,0.7,9.55138,26.74385,return,4.272409199737012,,,,,,,,,,,,,,,,,702,21,female,up_down_width,2024-05-10_11h54.33.042,exp1,2023.1.0,60.00398423900856,
5,9,9.5,10,10.5,11,0.5,0.09999999999999998,0.4,2.4,10,9,9,9,9,9,,,,,,,,,,,,,,,,,,,,,,,,,,0,6,6,8,,,,,,,,,,,,,,,,,,,,num_4,1.7367188998032361,num_4,0.4,0.6,0.4,0.5,15.2822,19.10275,return,8.19297599978745,,,,,,,,,,,,,,,,,702,21,female,up_down_width,2024-05-10_11h54.33.042,exp1,2023.1.0,60.00398423900856,
4,9.25,9.75,10.25,10.75,0,0.5,0.25,0.25,1.75,10,9,9,9,9,0,,,,,,,,,,,,,,,,,,,,,,,,,,0,7,7,4,,,,,,,,,,,,,,,,,,,,num_4,1.3618851997889578,num_4,0.55,1.2,0.45,0.8,17.19248,30.5644,return,7.529671099968255,,,,,,,,,,,,,,,,,702,21,female,up_down_width,2024-05-10_11h54.33.042,exp1,2023.1.0,60.00398423900856,
5,8.6,9.3,10,10.7,11.4,0.7,0.29999999999999993,0.4,3.1999999999999997,10,9,9,9,9,9,,,,,,,,,,,,,,,,,,,,,,,,,,0,8,8,7,,,,,,,,,,,,,,,,,,,,num_4,1.4719274998642504,num_4,0.3,0.7,0.39999999999999997,0.7,15.2822,26.74385,return,2.6438301999587566,,,,,,,,,,,,,,,,,702,21,female,up_down_width,2024-05-10_11h54.33.042,exp1,2023.1.0,60.00398423900856,
,,,,,,,,,,,,,,,,,,,,,,,,,,,,,,,,,,,,,,,,,,,,,,,,,,,,,,,,,,,,,,,,,,,,,,,,,,,c,120.44116439973004,,,,,,,,,,,,,,,702,21,female,up_down_width,2024-05-10_11h54.33.042,exp1,2023.1.0,60.00398423900856,
,,,,,,,,,,,,,,,,4,8.65,9.55,10.45,11.35,0,0.9,0.5,0.4,3.1,10,initial,36.05,312,344,377,409,0,9,9,9,9,0,,,,,,,0,0,0,0,0,0,0,32,,,,,,,,,,,,num_4,1.6243712999857962,num_4,0.3,0.8,0.3,0.7,11.46165,26.74385,return,3.566928399959579,,,,,,,,,,,,,,,,,702,21,female,up_down_width,2024-05-10_11h54.33.042,exp1,2023.1.0,60.00398423900856,
,,,,,,,,,,,,,,,,3,8.2,10,11.8,0,0,1.8,1.25,0.55,4.15,10,match,36.05,296,361,425,0,0,9,9,9,0,0,,,,,,,0,0,0,0,0,1,1,47,,,,,,,,,,,,num_3,1.2466395997907966,num_3,0.25,0.7,0.44999999999999996,1.1,17.19248,42.02605,return,3.5470859999768436,,,,,,,,,,,,,,,,,702,21,female,up_down_width,2024-05-10_11h54.33.042,exp1,2023.1.0,60.00398423900856,
,,,,,,,,,,,,,,,,5,8.6,9.3,10,10.7,11.4,0.7,0.29999999999999993,0.4,3.1999999999999997,10,initial,36.05,310,335,361,386,411,9,9,9,9,9,,,,,,,0,0,0,0,0,2,2,44,,,,,,,,,,,,num_4,0.8659345000050962,num_4,0.25,1.2,0.49999999999999994,0.9,19.10275,34.38495,return,5.534536499762908,,,,,,,,,,,,,,,,,702,21,female,up_down_width,2024-05-10_11h54.33.042,exp1,2023.1.0,60.00398423900856,
,,,,,,,,,,,,,,,,4,9.1,9.7,10.3,10.9,0,0.6,0.04999999999999997,0.55,2.35,10,match,36.05,328,350,371,393,0,9,9,9,9,0,,,,,,,0,0,0,0,0,3,3,12,,,,,,,,,,,,num_4,0.9905944997444749,num_4,0.2,0.8,0.65,0.8,24.83358,30.5644,return,4.579467499861494,,,,,,,,,,,,,,,,,702,21,female,up_down_width,2024-05-10_11h54.33.042,exp1,2023.1.0,60.00398423900856,
,,,,,,,,,,,,,,,,4,9.1,9.7,10.3,10.9,0,0.5999999999999999,0.3499999999999999,0.25,2.05,10,match,36.05,328,350,371,393,0,9,9,9,9,0,,,,,,,0,0,0,0,0,4,4,14,,,,,,,,,,,,num_4,1.01043889997527,num_4,0.25,1.0,0.25,1.0,9.55138,38.2055,return,1.3131214999593794,,,,,,,,,,,,,,,,,702,21,female,up_down_width,2024-05-10_11h54.33.042,exp1,2023.1.0,60.00398423900856,
,,,,,,,,,,,,,,,,5,8.95,9.475,10,10.525,11.05,0.525,0.275,0.25,2.35,10,match,36.05,323,342,361,379,398,9,9,9,9,9,,,,,,,0,0,0,0,0,5,5,25,,,,,,,,,,,,num_5,1.3984908999409527,num_5,0.55,0.7,0.30000000000000004,0.6,11.46165,22.9233,return,5.126285099890083,,,,,,,,,,,,,,,,,702,21,female,up_down_width,2024-05-10_11h54.33.042,exp1,2023.1.0,60.00398423900856,
,,,,,,,,,,,,,,,,5,8.95,9.475,10,10.525,11.05,0.525,0.125,0.4,2.5,10,match,36.05,323,342,361,379,398,9,9,9,9,9,,,,,,,0,0,0,0,0,6,6,27,,,,,,,,,,,,num_4,1.017326399916783,num_4,0.2,0.6,0.44999999999999996,0.6,17.19248,22.9233,return,2.189284099964425,,,,,,,,,,,,,,,,,702,21,female,up_down_width,2024-05-10_11h54.33.042,exp1,2023.1.0,60.00398423900856,
,,,,,,,,,,,,,,,,3,7.8,10,12.2,0,0,2.2,1.9500000000000002,0.25,4.65,10,match,36.05,281,361,440,0,0,9,9,9,0,0,,,,,,,0,0,0,0,0,7,7,37,,,,,,,,,,,,num_3,1.4091481000650674,num_3,0.45,1,0.25000000000000006,1.2,9.55138,45.8466,return,5.489240099675953,,,,,,,,,,,,,,,,,702,21,female,up_down_width,2024-05-10_11h54.33.042,exp1,2023.1.0,60.00398423900856,
,,,,,,,,,,,,,,,,3,8.6,10,11.4,0,0,1.4,0.85,0.55,3.35,10,match,36.05,310,361,411,0,0,9,9,9,0,0,,,,,,,0,0,0,0,0,8,8,41,,,,,,,,,,,,num_3,1.1289494999218732,num_3,0.3,0.4,0.44999999999999996,0.8,17.19248,30.5644,return,4.1659587998874485,,,,,,,,,,,,,,,,,702,21,female,up_down_width,2024-05-10_11h54.33.042,exp1,2023.1.0,60.00398423900856,
,,,,,,,,,,,,,,,,5,7.8,8.9,10,11.1,12.2,1.1,0.8500000000000001,0.25,4.65,10,initial,36.05,281,321,361,400,440,9,9,9,9,9,,,,,,,0,0,0,0,0,9,9,36,,,,,,,,,,,,num_5,1.0522589997854084,num_5,0.3,0.7,0.25,0.7,9.55138,26.74385,return,5.372685299720615,,,,,,,,,,,,,,,,,702,21,female,up_down_width,2024-05-10_11h54.33.042,exp1,2023.1.0,60.00398423900856,
,,,,,,,,,,,,,,,,4,9.3,9.766666666666667,10.233333333333333,10.7,0,0.4666666666666667,0.06666666666666665,0.4,1.8,10,match,36.05,335,352,369,386,0,9,9,9,9,0,,,,,,,0,0,0,0,0,10,10,10,,,,,,,,,,,,num_4,1.323337399866432,num_4,0.4,0.6,0.45,0.6,17.19248,22.9233,return,1.9410472998861223,,,,,,,,,,,,,,,,,702,21,female,up_down_width,2024-05-10_11h54.33.042,exp1,2023.1.0,60.00398423900856,
,,,,,,,,,,,,,,,,4,8.9,9.633333333333333,10.366666666666667,11.1,0,0.7333333333333334,0.4833333333333334,0.25,2.45,10,match,36.05,321,347,374,400,0,9,9,9,9,0,,,,,,,0,0,0,0,0,11,11,3,,,,,,,,,,,,num_3,1.227104299934581,num_3,0.5,0.7,0.20000000000000007,0.85,7.6411,32.47468,return,4.039874499896541,,,,,,,,,,,,,,,,,702,21,female,up_down_width,2024-05-10_11h54.33.042,exp1,2023.1.0,60.00398423900856,
,,,,,,,,,,,,,,,,5,8.6,9.3,10,10.7,11.4,0.7,0.1499999999999999,0.55,3.3499999999999996,10,initial,36.05,310,335,361,386,411,9,9,9,9,9,,,,,,,0,0,0,0,0,12,12,40,,,,,,,,,,,,num_4,0.7921767998486757,num_4,0.2,0.5,0.5499999999999999,0.7,21.01303,26.74385,return,3.3184171998873353,,,,,,,,,,,,,,,,,702,21,female,up_down_width,2024-05-10_11h54.33.042,exp1,2023.1.0,60.00398423900856,
,,,,,,,,,,,,,,,,5,8.35,9.175,10,10.825,11.65,0.8250000000000001,0.275,0.55,3.85,10,match,36.05,301,331,361,390,420,9,9,9,9,9,,,,,,,0,0,0,0,0,13,13,18,,,,,,,,,,,,num_4,0.7899904998484999,num_4,0.2,0.5,0.6,0.7,22.9233,26.74385,return,4.739420499885455,,,,,,,,,,,,,,,,,702,21,female,up_down_width,2024-05-10_11h54.33.042,exp1,2023.1.0,60.00398423900856,
,,,,,,,,,,,,,,,,4,9.3,9.766666666666667,10.233333333333333,10.7,0,0.4666666666666667,0.21666666666666665,0.25,1.65,10,match,36.05,335,352,369,386,0,9,9,9,9,0,,,,,,,0,0,0,0,0,14,14,8,,,,,,,,,,,,num_4,0.7572380998171866,num_4,0.35,1.0,0.35,0.6,13.37193,22.9233,return,3.091718499781564,,,,,,,,,,,,,,,,,702,21,female,up_down_width,2024-05-10_11h54.33.042,exp1,2023.1.0,60.00398423900856,
,,,,,,,,,,,,,,,,3,7.800000000000001,10,12.2,0,0,2.1999999999999997,1.7999999999999998,0.4,4.8,10,match,36.05,281,361,440,0,0,9,9,9,0,0,,,,,,,0,0,0,0,0,15,15,39,,,,,,,,,,,,num_3,1.0043991999700665,num_3,0.45,0.9,0.35000000000000003,1.5,13.37193,57.30826,return,6.2104278998449445,,,,,,,,,,,,,,,,,702,21,female,up_down_width,2024-05-10_11h54.33.042,exp1,2023.1.0,60.00398423900856,
,,,,,,,,,,,,,,,,4,8.825,9.608333333333333,10.391666666666667,11.175,0,0.7833333333333333,0.5333333333333333,0.25,2.6,10,match,36.05,318,346,375,403,0,9,9,9,9,0,,,,,,,0,0,0,0,0,16,16,5,,,,,,,,,,,,num_4,0.8081556998658925,num_4,0.3,1.0,0.25,1.0,9.55138,38.2055,return,2.211212799884379,,,,,,,,,,,,,,,,,702,21,female,up_down_width,2024-05-10_11h54.33.042,exp1,2023.1.0,60.00398423900856,
,,,,,,,,,,,,,,,,3,7.8,10,12.2,0,0,2.2,1.65,0.55,4.95,10,match,36.05,281,361,440,0,0,9,9,9,0,0,,,,,,,0,0,0,0,0,17,17,35,,,,,,,,,,,,num_3,1.0742273998912424,num_3,0.25,0.4,0.35,1.2,13.37193,45.8466,return,5.548553599976003,,,,,,,,,,,,,,,,,702,21,female,up_down_width,2024-05-10_11h54.33.042,exp1,2023.1.0,60.00398423900856,
,,,,,,,,,,,,,,,,3,9.1,10,10.9,0,0,0.9,0.5,0.4,2.2,10,initial,36.05,328,361,393,0,0,9,9,9,0,0,,,,,,,0,0,0,0,0,18,18,15,,,,,,,,,,,,num_3,0.9259113997686654,num_3,0.25,0.8,0.39999999999999997,1.15,15.2822,43.93633,return,2.642336799763143,,,,,,,,,,,,,,,,,702,21,female,up_down_width,2024-05-10_11h54.33.042,exp1,2023.1.0,60.00398423900856,
,,,,,,,,,,,,,,,,5,8.275,9.1375,10,10.8625,11.725,0.8625,0.6125,0.25,3.7,10,match,36.05,298,329,361,392,423,9,9,9,9,9,,,,,,,0,0,0,0,0,19,19,22,,,,,,,,,,,,num_4,0.9937132000923157,num_4,0.5,0.7,0.30000000000000004,1.3,11.46165,49.66716,return,4.904301699949428,,,,,,,,,,,,,,,,,702,21,female,up_down_width,2024-05-10_11h54.33.042,exp1,2023.1.0,60.00398423900856,
,,,,,,,,,,,,,,,,3,8.9,10,11.1,0,0,1.1,0.55,0.55,2.75,10,initial,36.05,321,361,400,0,0,9,9,9,0,0,,,,,,,0,0,0,0,0,20,20,0,,,,,,,,,,,,num_3,1.2277845998760313,num_3,0.45,0.7,0.45,1.0,17.19248,38.2055,return,2.454908699961379,,,,,,,,,,,,,,,,,702,21,female,up_down_width,2024-05-10_11h54.33.042,exp1,2023.1.0,60.00398423900856,
,,,,,,,,,,,,,,,,5,8.2,9.1,10,10.9,11.8,0.9,0.35,0.55,4.15,10,initial,36.05,296,328,361,393,425,9,9,9,9,9,,,,,,,0,0,0,0,0,21,21,46,,,,,,,,,,,,num_4,0.7673355999868363,num_4,0.35,1.0,0.65,1.1,24.83358,42.02605,return,3.0862625997979194,,,,,,,,,,,,,,,,,702,21,female,up_down_width,2024-05-10_11h54.33.042,exp1,2023.1.0,60.00398423900856,
,,,,,,,,,,,,,,,,4,8.95,9.65,10.35,11.05,0,0.7,0.44999999999999996,0.25,2.3499999999999996,10,initial,36.05,323,348,373,398,0,9,9,9,9,0,,,,,,,0,0,0,0,0,22,22,24,,,,,,,,,,,,num_4,0.7799007999710739,num_4,0.25,0.9,0.2,0.8,7.6411,30.5644,return,2.6036751999054104,,,,,,,,,,,,,,,,,702,21,female,up_down_width,2024-05-10_11h54.33.042,exp1,2023.1.0,60.00398423900856,
,,,,,,,,,,,,,,,,5,8.35,9.175,10,10.825,11.65,0.825,0.575,0.25,3.55,10,match,36.05,301,331,361,390,420,9,9,9,9,9,,,,,,,0,0,0,0,0,23,23,20,,,,,,,,,,,,num_4,0.7299798000603914,num_4,0.2,0.7,0.35,1.1,13.37193,42.02605,return,3.896651499904692,,,,,,,,,,,,,,,,,702,21,female,up_down_width,2024-05-10_11h54.33.042,exp1,2023.1.0,60.00398423900856,
,,,,,,,,,,,,,,,,3,9.1,10,10.9,0,0,0.9,0.65,0.25,2.05,10,initial,36.05,328,361,393,0,0,9,9,9,0,0,,,,,,,0,0,0,0,0,24,24,13,,,,,,,,,,,,num_3,0.9934133000206202,num_3,0.25,0.5,0.25,0.8,9.55138,30.5644,return,1.684168699895963,,,,,,,,,,,,,,,,,702,21,female,up_down_width,2024-05-10_11h54.33.042,exp1,2023.1.0,60.00398423900856,
,,,,,,,,,,,,,,,,4,8.95,9.65,10.35,11.05,0,0.7,0.29999999999999993,0.4,2.5,10,initial,36.05,323,348,373,398,0,9,9,9,9,0,,,,,,,0,0,0,0,0,25,25,26,,,,,,,,,,,,num_4,0.7978488998487592,num_4,0.25,1.0,0.49999999999999994,1.0,19.10275,38.2055,return,2.3806012999266386,,,,,,,,,,,,,,,,,702,21,female,up_down_width,2024-05-10_11h54.33.042,exp1,2023.1.0,60.00398423900856,
,,,,,,,,,,,,,,,,3,8.9,10,11.1,0,0,1.1,0.8500000000000001,0.25,2.45,10,initial,36.05,321,361,400,0,0,9,9,9,0,0,,,,,,,0,0,0,0,0,26,26,2,,,,,,,,,,,,num_3,1.0393709999043494,num_3,0.5,1,0.30000000000000004,1.15,11.46165,43.93633,return,2.654579999856651,,,,,,,,,,,,,,,,,702,21,female,up_down_width,2024-05-10_11h54.33.042,exp1,2023.1.0,60.00398423900856,
,,,,,,,,,,,,,,,,4,8.35,9.45,10.55,11.65,0,1.1,0.55,0.55,3.8500000000000005,10,initial,36.05,301,341,380,420,0,9,9,9,9,0,,,,,,,0,0,0,0,0,27,27,17,,,,,,,,,,,,num_3,0.9636420998722315,num_3,0.25,0.6,0.39999999999999997,0.8,15.2822,30.5644,return,2.763131099753082,,,,,,,,,,,,,,,,,702,21,female,up_down_width,2024-05-10_11h54.33.042,exp1,2023.1.0,60.00398423900856,
,,,,,,,,,,,,,,,,3,9.3,10,10.7,0,0,0.7,0.44999999999999996,0.25,1.65,10,initial,36.05,335,361,386,0,0,9,9,9,0,0,,,,,,,0,0,0,0,0,28,28,7,,,,,,,,,,,,num_3,0.8159643998369575,num_3,0.55,1,0.4,1,15.2822,38.2055,return,1.979546699905768,,,,,,,,,,,,,,,,,702,21,female,up_down_width,2024-05-10_11h54.33.042,exp1,2023.1.0,60.00398423900856,
,,,,,,,,,,,,,,,,4,9.1,9.7,10.3,10.9,0,0.6000000000000001,0.20000000000000004,0.4,2.2,10,match,36.05,328,350,371,393,0,9,9,9,9,0,,,,,,,0,0,0,0,0,29,29,16,,,,,,,,,,,,num_4,0.8404844000469893,num_4,0.2,1.0,0.6,0.9,22.9233,34.38495,return,4.790788999758661,,,,,,,,,,,,,,,,,702,21,female,up_down_width,2024-05-10_11h54.33.042,exp1,2023.1.0,60.00398423900856,
,,,,,,,,,,,,,,,,3,8.6,10,11.4,0,0,1.4,1.15,0.25,3.05,10,match,36.05,310,361,411,0,0,9,9,9,0,0,,,,,,,0,0,0,0,0,30,30,43,,,,,,,,,,,,num_3,0.9700909999664873,num_3,0.2,0.4,0.2,1.25,7.6411,47.75688,return,5.407404899829999,,,,,,,,,,,,,,,,,702,21,female,up_down_width,2024-05-10_11h54.33.042,exp1,2023.1.0,60.00398423900856,
,,,,,,,,,,,,,,,,4,8.65,9.55,10.45,11.35,0,0.9,0.65,0.25,2.95,10,initial,36.05,312,344,377,409,0,9,9,9,9,0,,,,,,,0,0,0,0,0,31,31,30,,,,,,,,,,,,num_4,0.746925599873066,num_4,0.3,1.3,0.3,1.3,11.46165,49.66716,return,1.323527199914679,,,,,,,,,,,,,,,,,702,21,female,up_down_width,2024-05-10_11h54.33.042,exp1,2023.1.0,60.00398423900856,
,,,,,,,,,,,,,,,,3,9.1,10,10.9,0,0,0.9,0.35,0.55,2.35,10,initial,36.05,328,361,393,0,0,9,9,9,0,0,,,,,,,0,0,0,0,0,32,32,11,,,,,,,,,,,,num_3,0.9043278000317514,num_3,0.45,0.8,0.6500000000000001,0.8,24.83358,30.5644,return,2.4180932997260243,,,,,,,,,,,,,,,,,702,21,female,up_down_width,2024-05-10_11h54.33.042,exp1,2023.1.0,60.00398423900856,
,,,,,,,,,,,,,,,,4,8.35,9.45,10.55,11.65,0,1.1,0.8500000000000001,0.25,3.5500000000000003,10,initial,36.05,301,341,380,420,0,9,9,9,9,0,,,,,,,0,0,0,0,0,33,33,19,,,,,,,,,,,,num_4,0.7793463000562042,num_4,0.4,1.0,0.30000000000000004,1.0,11.46165,38.2055,return,5.003461599815637,,,,,,,,,,,,,,,,,702,21,female,up_down_width,2024-05-10_11h54.33.042,exp1,2023.1.0,60.00398423900856,
,,,,,,,,,,,,,,,,4,8.65,9.55,10.45,11.35,0,0.9,0.35,0.55,3.25,10,initial,36.05,312,344,377,409,0,9,9,9,9,0,,,,,,,0,0,0,0,0,34,34,28,,,,,,,,,,,,num_4,0.7404444999992847,num_4,0.5,0.7,0.55,0.8,21.01303,30.5644,return,1.6027498999610543,,,,,,,,,,,,,,,,,702,21,female,up_down_width,2024-05-10_11h54.33.042,exp1,2023.1.0,60.00398423900856,
,,,,,,,,,,,,,,,,5,8.6,9.3,10,10.7,11.4,0.7,0.44999999999999996,0.25,3.05,10,initial,36.05,310,335,361,386,411,9,9,9,9,9,,,,,,,0,0,0,0,0,35,35,42,,,,,,,,,,,,num_4,0.7284136998932809,num_4,0.3,1.2,0.3,0.9,11.46165,34.38495,return,2.826280699810013,,,,,,,,,,,,,,,,,702,21,female,up_down_width,2024-05-10_11h54.33.042,exp1,2023.1.0,60.00398423900856,
,,,,,,,,,,,,,,,,5,7.8,8.9,10,11.1,12.2,1.1,0.7000000000000001,0.4,4.800000000000001,10,initial,36.05,281,321,361,400,440,9,9,9,9,9,,,,,,,0,0,0,0,0,36,36,38,,,,,,,,,,,,num_4,0.8372951000928879,num_4,0.3,1.1,0.39999999999999997,1.1,15.2822,42.02605,return,1.808162400033325,,,,,,,,,,,,,,,,,702,21,female,up_down_width,2024-05-10_11h54.33.042,exp1,2023.1.0,60.00398423900856,
,,,,,,,,,,,,,,,,3,9.3,10,10.7,0,0,0.7,0.1499999999999999,0.55,1.95,10,initial,36.05,335,361,386,0,0,9,9,9,0,0,,,,,,,0,0,0,0,0,37,37,6,,,,,,,,,,,,num_3,0.8985562997404486,num_3,0.25,1.2,0.65,0.85,24.83358,32.47468,return,5.255295299692079,,,,,,,,,,,,,,,,,702,21,female,up_down_width,2024-05-10_11h54.33.042,exp1,2023.1.0,60.00398423900856,
,,,,,,,,,,,,,,,,3,8.2,10,11.8,0,0,1.7999999999999998,1.4,0.4,4,10,match,36.05,296,361,425,0,0,9,9,9,0,0,,,,,,,0,0,0,0,0,38,38,51,,,,,,,,,,,,num_3,0.8348278999328613,num_3,0.45,0.5,0.45,1.4,17.19248,53.48771,return,4.415575299877673,,,,,,,,,,,,,,,,,702,21,female,up_down_width,2024-05-10_11h54.33.042,exp1,2023.1.0,60.00398423900856,
,,,,,,,,,,,,,,,,4,8.9,9.633333333333333,10.366666666666667,11.1,0,0.7333333333333333,0.18333333333333326,0.55,2.75,10,match,36.05,321,347,374,400,0,9,9,9,9,0,,,,,,,0,0,0,0,0,39,39,1,,,,,,,,,,,,num_3,1.5101440998259932,num_3,0.25,0.5,0.5499999999999999,0.65,21.01303,24.83358,return,3.0012479997240007,,,,,,,,,,,,,,,,,702,21,female,up_down_width,2024-05-10_11h54.33.042,exp1,2023.1.0,60.00398423900856,
,,,,,,,,,,,,,,,,5,8.65,9.325,10,10.675,11.35,0.675,0.125,0.55,3.25,10,match,36.05,312,336,361,385,409,9,9,9,9,9,,,,,,,0,0,0,0,0,40,40,29,,,,,,,,,,,,num_4,0.8091768999584019,num_4,0.5,0.8,0.6000000000000001,0.8,22.9233,30.5644,return,2.098892199806869,,,,,,,,,,,,,,,,,702,21,female,up_down_width,2024-05-10_11h54.33.042,exp1,2023.1.0,60.00398423900856,
,,,,,,,,,,,,,,,,5,8.65,9.325,10,10.675,11.35,0.675,0.42500000000000004,0.25,2.95,10,match,36.05,312,336,361,385,409,9,9,9,9,9,,,,,,,0,0,0,0,0,41,41,31,,,,,,,,,,,,num_4,0.7487804999109358,num_4,0.25,1.2,0.25,0.7,9.55138,26.74385,return,3.7729920998681337,,,,,,,,,,,,,,,,,702,21,female,up_down_width,2024-05-10_11h54.33.042,exp1,2023.1.0,60.00398423900856,
,,,,,,,,,,,,,,,,4,8.95,9.65,10.35,11.05,0,0.7,0.1499999999999999,0.55,2.65,10,initial,36.05,323,348,373,398,0,9,9,9,9,0,,,,,,,0,0,0,0,0,42,42,23,,,,,,,,,,,,num_3,1.0080773998051882,num_3,0.35,1,0.65,0.9,24.83358,34.38495,return,2.9631293998099864,,,,,,,,,,,,,,,,,702,21,female,up_down_width,2024-05-10_11h54.33.042,exp1,2023.1.0,60.00398423900856,
,,,,,,,,,,,,,,,,3,8.2,10,11.8,0,0,1.8,1.55,0.25,3.85,10,match,36.05,296,361,425,0,0,9,9,9,0,0,,,,,,,0,0,0,0,0,43,43,49,,,,,,,,,,,,num_3,0.8393696998246014,num_3,0.3,1,0.3,1.25,11.46165,47.75688,return,2.0034082997590303,,,,,,,,,,,,,,,,,702,21,female,up_down_width,2024-05-10_11h54.33.042,exp1,2023.1.0,60.00398423900856,
,,,,,,,,,,,,,,,,5,8.2,9.1,10,10.9,11.8,0.9,0.65,0.25,3.85,10,initial,36.05,296,328,361,393,425,9,9,9,9,9,,,,,,,0,0,0,0,0,44,44,48,,,,,,,,,,,,num_4,0.7161759999580681,num_4,0.35,1.3,0.3,1.2,11.46165,45.8466,return,2.5861451998353004,,,,,,,,,,,,,,,,,702,21,female,up_down_width,2024-05-10_11h54.33.042,exp1,2023.1.0,60.00398423900856,
,,,,,,,,,,,,,,,,3,9.3,10,10.7,0,0,0.7,0.29999999999999993,0.4,1.8,10,initial,36.05,335,361,386,0,0,9,9,9,0,0,,,,,,,0,0,0,0,0,45,45,9,,,,,,,,,,,,num_3,0.8412648998200893,num_3,0.2,1.1,0.44999999999999996,1.1,17.19248,42.02605,return,2.3034842999186367,,,,,,,,,,,,,,,,,702,21,female,up_down_width,2024-05-10_11h54.33.042,exp1,2023.1.0,60.00398423900856,
,,,,,,,,,,,,,,,,5,7.8,8.9,10,11.1,12.2,1.1,0.55,0.55,4.95,10,initial,36.05,281,321,361,400,440,9,9,9,9,9,,,,,,,0,0,0,0,0,46,46,34,,,,,,,,,,,,num_4,0.699691099813208,num_4,0.45,0.9,0.45,1.1,17.19248,42.02605,return,1.8212222999427468,,,,,,,,,,,,,,,,,702,21,female,up_down_width,2024-05-10_11h54.33.042,exp1,2023.1.0,60.00398423900856,
,,,,,,,,,,,,,,,,3,8.9,10,11.1,0,0,1.1,0.7000000000000001,0.4,2.6000000000000005,10,initial,36.05,321,361,400,0,0,9,9,9,0,0,,,,,,,0,0,0,0,0,47,47,4,,,,,,,,,,,,num_3,0.7739002997986972,num_3,0.2,0.8,0.35,0.8,13.37193,30.5644,return,2.230434099910781,,,,,,,,,,,,,,,,,702,21,female,up_down_width,2024-05-10_11h54.33.042,exp1,2023.1.0,60.00398423900856,
,,,,,,,,,,,,,,,,5,8.2,9.1,10,10.9,11.8,0.9,0.5,0.4,4,10,initial,36.05,296,328,361,393,425,9,9,9,9,9,,,,,,,0,0,0,0,0,48,48,50,,,,,,,,,,,,num_5,0.890548599883914,num_5,0.5,0.9,0.5,1.0,19.10275,38.2055,return,1.6147010999266058,,,,,,,,,,,,,,,,,702,21,female,up_down_width,2024-05-10_11h54.33.042,exp1,2023.1.0,60.00398423900856,
,,,,,,,,,,,,,,,,3,8.525,10,11.475,0,0,1.475,1.225,0.25,3.2,10,match,36.05,307,361,414,0,0,9,9,9,0,0,,,,,,,0,0,0,0,0,49,49,45,,,,,,,,,,,,num_2,0.8236385998316109,num_2,0.3,0.6,0.3,0.6,11.46165,22.9233,return,4.306441299850121,,,,,,,,,,,,,,,,,702,21,female,up_down_width,2024-05-10_11h54.33.042,exp1,2023.1.0,60.00398423900856,
,,,,,,,,,,,,,,,,4,8.35,9.45,10.55,11.65,0,1.1,0.7000000000000001,0.4,3.7,10,initial,36.05,301,341,380,420,0,9,9,9,9,0,,,,,,,0,0,0,0,0,50,50,21,,,,,,,,,,,,num_4,0.7131554998923093,num_4,0.45,1.0,0.4,1.0,15.2822,38.2055,return,1.1284176998306066,,,,,,,,,,,,,,,,,702,21,female,up_down_width,2024-05-10_11h54.33.042,exp1,2023.1.0,60.00398423900856,
,,,,,,,,,,,,,,,,5,8.65,9.325,10,10.675,11.35,0.675,0.275,0.4,3.1,10,match,36.05,312,336,361,385,409,9,9,9,9,9,,,,,,,0,0,0,0,0,51,51,33,,,,,,,,,,,,num_4,0.8288247999735177,num_4,0.4,0.6,0.4,0.6,15.2822,22.9233,return,0.9331004999112338,,,,,,,,,,,,,,,,,702,21,female,up_down_width,2024-05-10_11h54.33.042,exp1,2023.1.0,60.00398423900856,
,,,,,,,,,,,,,,,,,,,,,,,,,,,,,,,,,,,,,,,,,,,,,0,0,0,0,,,,,,,,,,,,,,,,,,,,,,,,,,,,,738.3540481999516,738.3540481999516,738.3540481999516,,,,,,,,,,,,702,21,female,up_down_width,2024-05-10_11h54.33.042,exp1,2023.1.0,60.00398423900856,
,,,,,,,,,,,,,,,,4,8.9,9.633333333333333,10.366666666666667,11.1,0,0.7333333333333333,0.18333333333333326,0.55,2.75,10,match,36.05,321,347,374,400,0,9,9,9,9,0,,,,,,,1,0,1,0,0,0,0,1,,,,,,,,,,,,num_4,0.9177284999750555,num_4,0.35,0.5,0.5499999999999999,0.8,21.01303,30.5644,return,2.680869999807328,,,,,,,,,,,,,,,,,702,21,female,up_down_width,2024-05-10_11h54.33.042,exp1,2023.1.0,60.00398423900856,
,,,,,,,,,,,,,,,,3,7.8,10,12.2,0,0,2.2,1.9500000000000002,0.25,4.65,10,match,36.05,281,361,440,0,0,9,9,9,0,0,,,,,,,1,0,1,0,0,1,1,37,,,,,,,,,,,,num_3,0.7755865999497473,num_3,0.25,0.8,0.25,1.6,9.55138,61.12881,return,3.5592253997456282,,,,,,,,,,,,,,,,,702,21,female,up_down_width,2024-05-10_11h54.33.042,exp1,2023.1.0,60.00398423900856,
,,,,,,,,,,,,,,,,3,9.1,10,10.9,0,0,0.9,0.5,0.4,2.2,10,initial,36.05,328,361,393,0,0,9,9,9,0,0,,,,,,,1,0,1,0,0,2,2,15,,,,,,,,,,,,num_3,0.7905446998775005,num_3,0.45,0.7,0.45,0.7,17.19248,26.74385,return,0.6447937998455018,,,,,,,,,,,,,,,,,702,21,female,up_down_width,2024-05-10_11h54.33.042,exp1,2023.1.0,60.00398423900856,
,,,,,,,,,,,,,,,,5,7.8,8.9,10,11.1,12.2,1.1,0.7000000000000001,0.4,4.800000000000001,10,initial,36.05,281,321,361,400,440,9,9,9,9,9,,,,,,,1,0,1,0,0,3,3,38,,,,,,,,,,,,num_4,0.7881391998380423,num_4,0.2,0.3,0.2,0.9,7.6411,34.38495,return,1.5081492997705936,,,,,,,,,,,,,,,,,702,21,female,up_down_width,2024-05-10_11h54.33.042,exp1,2023.1.0,60.00398423900856,
,,,,,,,,,,,,,,,,5,8.275,9.1375,10,10.8625,11.725,0.8625,0.6125,0.25,3.7,10,match,36.05,298,329,361,392,423,9,9,9,9,9,,,,,,,1,0,1,0,0,4,4,22,,,,,,,,,,,,num_4,0.6925596999935806,num_4,0.5,0.6,0.25000000000000006,1.5,9.55138,57.30826,return,3.5757784000597894,,,,,,,,,,,,,,,,,702,21,female,up_down_width,2024-05-10_11h54.33.042,exp1,2023.1.0,60.00398423900856,
,,,,,,,,,,,,,,,,4,8.95,9.65,10.35,11.05,0,0.7,0.1499999999999999,0.55,2.65,10,initial,36.05,323,348,373,398,0,9,9,9,9,0,,,,,,,1,0,1,0,0,5,5,23,,,,,,,,,,,,num_4,0.7802685999777168,num_4,0.4,0.7,0.55,0.7,21.01303,26.74385,return,2.6045096998568624,,,,,,,,,,,,,,,,,702,21,female,up_down_width,2024-05-10_11h54.33.042,exp1,2023.1.0,60.00398423900856,
,,,,,,,,,,,,,,,,5,8.95,9.475,10,10.525,11.05,0.525,0.125,0.4,2.5,10,match,36.05,323,342,361,379,398,9,9,9,9,9,,,,,,,1,0,1,0,0,6,6,27,,,,,,,,,,,,num_4,0.7621148996986449,num_4,0.55,0.8,0.6500000000000001,0.8,24.83358,30.5644,return,1.2725442999508232,,,,,,,,,,,,,,,,,702,21,female,up_down_width,2024-05-10_11h54.33.042,exp1,2023.1.0,60.00398423900856,
,,,,,,,,,,,,,,,,4,9.3,9.766666666666667,10.233333333333333,10.7,0,0.4666666666666667,0.06666666666666665,0.4,1.8,10,match,36.05,335,352,369,386,0,9,9,9,9,0,,,,,,,1,0,1,0,0,7,7,10,,,,,,,,,,,,num_4,1.4178257999010384,num_4,0.4,0.6,0.45,0.6,17.19248,22.9233,return,1.417208599857986,,,,,,,,,,,,,,,,,702,21,female,up_down_width,2024-05-10_11h54.33.042,exp1,2023.1.0,60.00398423900856,
,,,,,,,,,,,,,,,,4,8.65,9.55,10.45,11.35,0,0.9,0.65,0.25,2.95,10,initial,36.05,312,344,377,409,0,9,9,9,9,0,,,,,,,1,0,1,0,0,8,8,30,,,,,,,,,,,,num_4,0.84568029968068,num_4,0.35,1.2,0.2,1.1,7.6411,42.02605,return,3.6258457000367343,,,,,,,,,,,,,,,,,702,21,female,up_down_width,2024-05-10_11h54.33.042,exp1,2023.1.0,60.00398423900856,
,,,,,,,,,,,,,,,,3,8.6,10,11.4,0,0,1.4,1.15,0.25,3.05,10,match,36.05,310,361,411,0,0,9,9,9,0,0,,,,,,,1,0,1,0,0,9,9,43,,,,,,,,,,,,num_3,1.1905213000718504,num_3,0.45,0.9,0.25000000000000006,1.15,9.55138,43.93633,return,2.6772627998143435,,,,,,,,,,,,,,,,,702,21,female,up_down_width,2024-05-10_11h54.33.042,exp1,2023.1.0,60.00398423900856,
,,,,,,,,,,,,,,,,5,7.8,8.9,10,11.1,12.2,1.1,0.8500000000000001,0.25,4.65,10,initial,36.05,281,321,361,400,440,9,9,9,9,9,,,,,,,1,0,1,0,0,10,10,36,,,,,,,,,,,,num_4,0.798547999933362,num_4,0.25,0.9,0.15000000000000002,1.0,5.73083,38.2055,return,1.6562376997899264,,,,,,,,,,,,,,,,,702,21,female,up_down_width,2024-05-10_11h54.33.042,exp1,2023.1.0,60.00398423900856,
,,,,,,,,,,,,,,,,3,8.2,10,11.8,0,0,1.7999999999999998,1.4,0.4,4,10,match,36.05,296,361,425,0,0,9,9,9,0,0,,,,,,,1,0,1,0,0,11,11,51,,,,,,,,,,,,num_3,0.8552808999083936,num_3,0.2,0.8,0.25,1.55,9.55138,59.21853,return,4.0315139999147505,,,,,,,,,,,,,,,,,702,21,female,up_down_width,2024-05-10_11h54.33.042,exp1,2023.1.0,60.00398423900856,
,,,,,,,,,,,,,,,,4,8.95,9.65,10.35,11.05,0,0.7,0.44999999999999996,0.25,2.3499999999999996,10,initial,36.05,323,348,373,398,0,9,9,9,9,0,,,,,,,1,0,1,0,0,12,12,24,,,,,,,,,,,,num_4,0.8067837997805327,num_4,0.3,0.9,0.2,1.3,7.6411,49.66716,return,3.0138804998714477,,,,,,,,,,,,,,,,,702,21,female,up_down_width,2024-05-10_11h54.33.042,exp1,2023.1.0,60.00398423900856,
,,,,,,,,,,,,,,,,3,8.2,10,11.8,0,0,1.8,1.25,0.55,4.15,10,match,36.05,296,361,425,0,0,9,9,9,0,0,,,,,,,1,0,1,0,0,13,13,47,,,,,,,,,,,,num_3,0.8145471999887377,num_3,0.3,1,0.39999999999999997,1.35,15.2822,51.57743,return,2.9541585999540985,,,,,,,,,,,,,,,,,702,21,female,up_down_width,2024-05-10_11h54.33.042,exp1,2023.1.0,60.00398423900856,
,,,,,,,,,,,,,,,,4,8.825,9.608333333333333,10.391666666666667,11.175,0,0.7833333333333333,0.5333333333333333,0.25,2.6,10,match,36.05,318,346,375,403,0,9,9,9,9,0,,,,,,,1,0,1,0,0,14,14,5,,,,,,,,,,,,num_4,0.8029686999507248,num_4,0.2,0.3,0.15000000000000002,1.1,5.73083,42.02605,return,4.5581498998217285,,,,,,,,,,,,,,,,,702,21,female,up_down_width,2024-05-10_11h54.33.042,exp1,2023.1.0,60.00398423900856,
,,,,,,,,,,,,,,,,4,8.65,9.55,10.45,11.35,0,0.9,0.35,0.55,3.25,10,initial,36.05,312,344,377,409,0,9,9,9,9,0,,,,,,,1,0,1,0,0,15,15,28,,,,,,,,,,,,num_4,0.6904827000107616,num_4,0.5,0.8,0.55,0.8,21.01303,30.5644,return,1.1494228998199105,,,,,,,,,,,,,,,,,702,21,female,up_down_width,2024-05-10_11h54.33.042,exp1,2023.1.0,60.00398423900856,
,,,,,,,,,,,,,,,,3,8.525,10,11.475,0,0,1.475,1.225,0.25,3.2,10,match,36.05,307,361,414,0,0,9,9,9,0,0,,,,,,,1,0,1,0,0,16,16,45,,,,,,,,,,,,num_3,0.7569995997473598,num_3,0.5,0.9,0.20000000000000007,1.65,7.6411,63.03908,return,5.1406908999197185,,,,,,,,,,,,,,,,,702,21,female,up_down_width,2024-05-10_11h54.33.042,exp1,2023.1.0,60.00398423900856,
,,,,,,,,,,,,,,,,5,8.65,9.325,10,10.675,11.35,0.675,0.125,0.55,3.25,10,match,36.05,312,336,361,385,409,9,9,9,9,9,,,,,,,1,0,1,0,0,17,17,29,,,,,,,,,,,,num_4,0.7047340997960418,num_4,0.45,1.1,0.5,0.7,19.10275,26.74385,return,3.072388199856505,,,,,,,,,,,,,,,,,702,21,female,up_down_width,2024-05-10_11h54.33.042,exp1,2023.1.0,60.00398423900856,
,,,,,,,,,,,,,,,,5,8.35,9.175,10,10.825,11.65,0.8250000000000001,0.275,0.55,3.85,10,match,36.05,301,331,361,390,420,9,9,9,9,9,,,,,,,1,0,1,0,0,18,18,18,,,,,,,,,,,,num_4,0.737452199915424,num_4,0.3,0.6,0.49999999999999994,0.7,19.10275,26.74385,return,2.7185643997509032,,,,,,,,,,,,,,,,,702,21,female,up_down_width,2024-05-10_11h54.33.042,exp1,2023.1.0,60.00398423900856,
,,,,,,,,,,,,,,,,5,8.6,9.3,10,10.7,11.4,0.7,0.44999999999999996,0.25,3.05,10,initial,36.05,310,335,361,386,411,9,9,9,9,9,,,,,,,1,0,1,0,0,19,19,42,,,,,,,,,,,,num_4,0.7614304998423904,num_4,0.4,1.2,0.25000000000000006,0.7,9.55138,26.74385,return,3.683683200040832,,,,,,,,,,,,,,,,,702,21,female,up_down_width,2024-05-10_11h54.33.042,exp1,2023.1.0,60.00398423900856,
,,,,,,,,,,,,,,,,4,9.3,9.766666666666667,10.233333333333333,10.7,0,0.4666666666666667,0.21666666666666665,0.25,1.65,10,match,36.05,335,352,369,386,0,9,9,9,9,0,,,,,,,1,0,1,0,0,20,20,8,,,,,,,,,,,,num_4,0.6012651999481022,num_4,0.4,0.7,0.4,0.7,15.2822,26.74385,return,0.8409629997331649,,,,,,,,,,,,,,,,,702,21,female,up_down_width,2024-05-10_11h54.33.042,exp1,2023.1.0,60.00398423900856,
,,,,,,,,,,,,,,,,3,7.800000000000001,10,12.2,0,0,2.1999999999999997,1.7999999999999998,0.4,4.8,10,match,36.05,281,361,440,0,0,9,9,9,0,0,,,,,,,1,0,1,0,0,21,21,39,,,,,,,,,,,,num_3,1.2787148000206798,num_3,0.45,0.5,0.45,1.75,17.19248,66.85963,return,4.822685400024056,,,,,,,,,,,,,,,,,702,21,female,up_down_width,2024-05-10_11h54.33.042,exp1,2023.1.0,60.00398423900856,
,,,,,,,,,,,,,,,,3,9.3,10,10.7,0,0,0.7,0.1499999999999999,0.55,1.95,10,initial,36.05,335,361,386,0,0,9,9,9,0,0,,,,,,,1,0,1,0,0,22,22,6,,,,,,,,,,,,num_3,0.8185813997406512,num_3,0.35,0.9,0.6,0.9,22.9233,34.38495,return,2.267256199847907,,,,,,,,,,,,,,,,,702,21,female,up_down_width,2024-05-10_11h54.33.042,exp1,2023.1.0,60.00398423900856,
,,,,,,,,,,,,,,,,4,8.95,9.65,10.35,11.05,0,0.7,0.29999999999999993,0.4,2.5,10,initial,36.05,323,348,373,398,0,9,9,9,9,0,,,,,,,1,0,1,0,0,23,23,26,,,,,,,,,,,,num_3,0.7266611999366432,num_3,0.55,0.7,0.5,0.75,19.10275,28.65413,return,2.4178620998281986,,,,,,,,,,,,,,,,,702,21,female,up_down_width,2024-05-10_11h54.33.042,exp1,2023.1.0,60.00398423900856,
,,,,,,,,,,,,,,,,4,8.65,9.55,10.45,11.35,0,0.9,0.5,0.4,3.1,10,initial,36.05,312,344,377,409,0,9,9,9,9,0,,,,,,,1,0,1,0,0,24,24,32,,,,,,,,,,,,num_4,0.7613683997187763,num_4,0.25,0.6,0.39999999999999997,0.7,15.2822,26.74385,return,2.6326116998679936,,,,,,,,,,,,,,,,,702,21,female,up_down_width,2024-05-10_11h54.33.042,exp1,2023.1.0,60.00398423900856,
,,,,,,,,,,,,,,,,5,8.65,9.325,10,10.675,11.35,0.675,0.275,0.4,3.1,10,match,36.05,312,336,361,385,409,9,9,9,9,9,,,,,,,1,0,1,0,0,25,25,33,,,,,,,,,,,,num_4,0.6785566997714341,num_4,0.35,0.5,0.35,0.8,13.37193,30.5644,return,3.5398901998996735,,,,,,,,,,,,,,,,,702,21,female,up_down_width,2024-05-10_11h54.33.042,exp1,2023.1.0,60.00398423900856,
,,,,,,,,,,,,,,,,4,8.9,9.633333333333333,10.366666666666667,11.1,0,0.7333333333333334,0.4833333333333334,0.25,2.45,10,match,36.05,321,347,374,400,0,9,9,9,9,0,,,,,,,1,0,1,0,0,26,26,3,,,,,,,,,,,,num_4,0.7340603999327868,num_4,0.35,0.8,0.2,0.8,7.6411,30.5644,return,1.2283981998916715,,,,,,,,,,,,,,,,,702,21,female,up_down_width,2024-05-10_11h54.33.042,exp1,2023.1.0,60.00398423900856,
,,,,,,,,,,,,,,,,3,8.2,10,11.8,0,0,1.8,1.55,0.25,3.85,10,match,36.05,296,361,425,0,0,9,9,9,0,0,,,,,,,1,0,1,0,0,27,27,49,,,,,,,,,,,,num_3,0.7767641998361796,num_3,0.4,0.8,0.25000000000000006,1.1,9.55138,42.02605,return,2.9649456997867674,,,,,,,,,,,,,,,,,702,21,female,up_down_width,2024-05-10_11h54.33.042,exp1,2023.1.0,60.00398423900856,
,,,,,,,,,,,,,,,,5,8.2,9.1,10,10.9,11.8,0.9,0.5,0.4,4,10,initial,36.05,296,328,361,393,425,9,9,9,9,9,,,,,,,1,0,1,0,0,28,28,50,,,,,,,,,,,,num_4,0.7891526997555047,num_4,0.25,0.5,0.3,1.1,11.46165,42.02605,return,2.94304269971326,,,,,,,,,,,,,,,,,702,21,female,up_down_width,2024-05-10_11h54.33.042,exp1,2023.1.0,60.00398423900856,
,,,,,,,,,,,,,,,,3,8.9,10,11.1,0,0,1.1,0.55,0.55,2.75,10,initial,36.05,321,361,400,0,0,9,9,9,0,0,,,,,,,1,0,1,0,0,29,29,0,,,,,,,,,,,,num_3,0.9822370999027044,num_3,0.55,0.7,0.45,0.95,17.19248,36.29523,return,2.189346799859777,,,,,,,,,,,,,,,,,702,21,female,up_down_width,2024-05-10_11h54.33.042,exp1,2023.1.0,60.00398423900856,
,,,,,,,,,,,,,,,,3,9.3,10,10.7,0,0,0.7,0.44999999999999996,0.25,1.65,10,initial,36.05,335,361,386,0,0,9,9,9,0,0,,,,,,,1,0,1,0,0,30,30,7,,,,,,,,,,,,num_3,0.8022355998400599,num_3,0.25,1.1,0.2,0.75,7.6411,28.65413,return,2.6838640000205487,,,,,,,,,,,,,,,,,702,21,female,up_down_width,2024-05-10_11h54.33.042,exp1,2023.1.0,60.00398423900856,
,,,,,,,,,,,,,,,,4,9.1,9.7,10.3,10.9,0,0.6,0.04999999999999997,0.55,2.35,10,match,36.05,328,350,371,393,0,9,9,9,9,0,,,,,,,1,0,1,0,0,31,31,12,,,,,,,,,,,,num_3,0.7508778998162597,num_3,0.25,0.5,0.49999999999999994,0.55,19.10275,21.01303,return,2.8726787997875363,,,,,,,,,,,,,,,,,702,21,female,up_down_width,2024-05-10_11h54.33.042,exp1,2023.1.0,60.00398423900856,
,,,,,,,,,,,,,,,,3,8.9,10,11.1,0,0,1.1,0.7000000000000001,0.4,2.6000000000000005,10,initial,36.05,321,361,400,0,0,9,9,9,0,0,,,,,,,1,0,1,0,0,32,32,4,,,,,,,,,,,,num_3,0.8768849999178201,num_3,0.25,0.3,0.25,1.05,9.55138,40.11578,return,3.8914310997352004,,,,,,,,,,,,,,,,,702,21,female,up_down_width,2024-05-10_11h54.33.042,exp1,2023.1.0,60.00398423900856,
,,,,,,,,,,,,,,,,5,8.65,9.325,10,10.675,11.35,0.675,0.42500000000000004,0.25,2.95,10,match,36.05,312,336,361,385,409,9,9,9,9,9,,,,,,,1,0,1,0,0,33,33,31,,,,,,,,,,,,num_4,0.7179681998677552,num_4,0.25,0.5,0.25,0.7,9.55138,26.74385,return,1.4525071999523789,,,,,,,,,,,,,,,,,702,21,female,up_down_width,2024-05-10_11h54.33.042,exp1,2023.1.0,60.00398423900856,
,,,,,,,,,,,,,,,,5,8.2,9.1,10,10.9,11.8,0.9,0.65,0.25,3.85,10,initial,36.05,296,328,361,393,425,9,9,9,9,9,,,,,,,1,0,1,0,0,34,34,48,,,,,,,,,,,,num_4,0.8416580997873098,num_4,0.3,1.1,0.3,1.5,11.46165,57.30826,return,1.654894799925387,,,,,,,,,,,,,,,,,702,21,female,up_down_width,2024-05-10_11h54.33.042,exp1,2023.1.0,60.00398423900856,
,,,,,,,,,,,,,,,,3,8.9,10,11.1,0,0,1.1,0.8500000000000001,0.25,2.45,10,initial,36.05,321,361,400,0,0,9,9,9,0,0,,,,,,,1,0,1,0,0,35,35,2,,,,,,,,,,,,num_3,0.7315940998960286,num_3,0.2,0.6,0.2,1.0,7.6411,38.2055,return,2.0606626998633146,,,,,,,,,,,,,,,,,702,21,female,up_down_width,2024-05-10_11h54.33.042,exp1,2023.1.0,60.00398423900856,
,,,,,,,,,,,,,,,,3,9.1,10,10.9,0,0,0.9,0.35,0.55,2.35,10,initial,36.05,328,361,393,0,0,9,9,9,0,0,,,,,,,1,0,1,0,0,36,36,11,,,,,,,,,,,,num_3,0.8351987998466939,num_3,0.35,0.5,0.39999999999999997,0.8,15.2822,30.5644,return,2.1253936998546124,,,,,,,,,,,,,,,,,702,21,female,up_down_width,2024-05-10_11h54.33.042,exp1,2023.1.0,60.00398423900856,
,,,,,,,,,,,,,,,,4,9.1,9.7,10.3,10.9,0,0.5999999999999999,0.3499999999999999,0.25,2.05,10,match,36.05,328,350,371,393,0,9,9,9,9,0,,,,,,,1,0,1,0,0,37,37,14,,,,,,,,,,,,num_4,0.7489519999362528,num_4,0.5,1.1,0.35000000000000003,1.1,13.37193,42.02605,return,2.0736413998529315,,,,,,,,,,,,,,,,,702,21,female,up_down_width,2024-05-10_11h54.33.042,exp1,2023.1.0,60.00398423900856,
,,,,,,,,,,,,,,,,3,8.6,10,11.4,0,0,1.4,0.85,0.55,3.35,10,match,36.05,310,361,411,0,0,9,9,9,0,0,,,,,,,1,0,1,0,0,38,38,41,,,,,,,,,,,,num_3,1.379348399816081,num_3,0.5,1,0.55,1.05,21.01303,40.11578,return,2.1940491998102516,,,,,,,,,,,,,,,,,702,21,female,up_down_width,2024-05-10_11h54.33.042,exp1,2023.1.0,60.00398423900856,
,,,,,,,,,,,,,,,,4,9.1,9.7,10.3,10.9,0,0.6000000000000001,0.20000000000000004,0.4,2.2,10,match,36.05,328,350,371,393,0,9,9,9,9,0,,,,,,,1,0,1,0,0,39,39,16,,,,,,,,,,,,num_3,0.8904285000171512,num_3,0.25,0.6,0.39999999999999997,0.6,15.2822,22.9233,return,2.0354812999721617,,,,,,,,,,,,,,,,,702,21,female,up_down_width,2024-05-10_11h54.33.042,exp1,2023.1.0,60.00398423900856,
,,,,,,,,,,,,,,,,3,9.1,10,10.9,0,0,0.9,0.65,0.25,2.05,10,initial,36.05,328,361,393,0,0,9,9,9,0,0,,,,,,,1,0,1,0,0,40,40,13,,,,,,,,,,,,num_3,1.0522142997942865,num_3,0.45,1.3,0.30000000000000004,1.3,11.46165,49.66716,return,1.7251309000421315,,,,,,,,,,,,,,,,,702,21,female,up_down_width,2024-05-10_11h54.33.042,exp1,2023.1.0,60.00398423900856,
,,,,,,,,,,,,,,,,5,7.8,8.9,10,11.1,12.2,1.1,0.55,0.55,4.95,10,initial,36.05,281,321,361,400,440,9,9,9,9,9,,,,,,,1,0,1,0,0,41,41,34,,,,,,,,,,,,num_4,0.8155368997249752,num_4,0.2,1.2,0.44999999999999996,1.2,17.19248,45.8466,return,2.108524599811062,,,,,,,,,,,,,,,,,702,21,female,up_down_width,2024-05-10_11h54.33.042,exp1,2023.1.0,60.00398423900856,
,,,,,,,,,,,,,,,,5,8.2,9.1,10,10.9,11.8,0.9,0.35,0.55,4.15,10,initial,36.05,296,328,361,393,425,9,9,9,9,9,,,,,,,1,0,1,0,0,42,42,46,,,,,,,,,,,,num_4,0.8059944999404252,num_4,0.35,1.2,0.65,1.2,24.83358,45.8466,return,1.9701775996945798,,,,,,,,,,,,,,,,,702,21,female,up_down_width,2024-05-10_11h54.33.042,exp1,2023.1.0,60.00398423900856,
,,,,,,,,,,,,,,,,3,9.3,10,10.7,0,0,0.7,0.29999999999999993,0.4,1.8,10,initial,36.05,335,361,386,0,0,9,9,9,0,0,,,,,,,1,0,1,0,0,43,43,9,,,,,,,,,,,,num_3,0.8294778997078538,num_3,0.4,1.1,0.55,1.1,21.01303,42.02605,return,1.4345815998967737,,,,,,,,,,,,,,,,,702,21,female,up_down_width,2024-05-10_11h54.33.042,exp1,2023.1.0,60.00398423900856,
,,,,,,,,,,,,,,,,5,8.35,9.175,10,10.825,11.65,0.825,0.575,0.25,3.55,10,match,36.05,301,331,361,390,420,9,9,9,9,9,,,,,,,1,0,1,0,0,44,44,20,,,,,,,,,,,,num_4,0.8279106998816133,num_4,0.25,1.0,0.2,1.0,7.6411,38.2055,return,1.4311426000203937,,,,,,,,,,,,,,,,,702,21,female,up_down_width,2024-05-10_11h54.33.042,exp1,2023.1.0,60.00398423900856,
,,,,,,,,,,,,,,,,3,7.8,10,12.2,0,0,2.2,1.65,0.55,4.95,10,match,36.05,281,361,440,0,0,9,9,9,0,0,,,,,,,1,0,1,0,0,45,45,35,,,,,,,,,,,,num_3,1.1007435999345034,num_3,0.55,1,0.45,1,17.19248,38.2055,return,1.632996500004083,,,,,,,,,,,,,,,,,702,21,female,up_down_width,2024-05-10_11h54.33.042,exp1,2023.1.0,60.00398423900856,
,,,,,,,,,,,,,,,,4,8.35,9.45,10.55,11.65,0,1.1,0.55,0.55,3.8500000000000005,10,initial,36.05,301,341,380,420,0,9,9,9,9,0,,,,,,,1,0,1,0,0,46,46,17,,,,,,,,,,,,num_4,0.751905299955979,num_4,0.25,1.1,0.44999999999999996,1.1,17.19248,42.02605,return,2.3434510997030884,,,,,,,,,,,,,,,,,702,21,female,up_down_width,2024-05-10_11h54.33.042,exp1,2023.1.0,60.00398423900856,
,,,,,,,,,,,,,,,,4,8.35,9.45,10.55,11.65,0,1.1,0.8500000000000001,0.25,3.5500000000000003,10,initial,36.05,301,341,380,420,0,9,9,9,9,0,,,,,,,1,0,1,0,0,47,47,19,,,,,,,,,,,,num_4,1.0783415997866541,num_4,0.35,1.3,0.2,1.3,7.6411,49.66716,return,1.6414150998461992,,,,,,,,,,,,,,,,,702,21,female,up_down_width,2024-05-10_11h54.33.042,exp1,2023.1.0,60.00398423900856,
,,,,,,,,,,,,,,,,5,8.6,9.3,10,10.7,11.4,0.7,0.29999999999999993,0.4,3.1999999999999997,10,initial,36.05,310,335,361,386,411,9,9,9,9,9,,,,,,,1,0,1,0,0,48,48,44,,,,,,,,,,,,num_4,0.6964250998571515,num_4,0.5,0.6,0.35000000000000003,0.6,13.37193,22.9233,return,2.1190873999148607,,,,,,,,,,,,,,,,,702,21,female,up_down_width,2024-05-10_11h54.33.042,exp1,2023.1.0,60.00398423900856,
,,,,,,,,,,,,,,,,4,8.35,9.45,10.55,11.65,0,1.1,0.7000000000000001,0.4,3.7,10,initial,36.05,301,341,380,420,0,9,9,9,9,0,,,,,,,1,0,1,0,0,49,49,21,,,,,,,,,,,,num_4,0.7285694996826351,num_4,0.25,0.9,0.39999999999999997,0.9,15.2822,34.38495,return,1.494822499807924,,,,,,,,,,,,,,,,,702,21,female,up_down_width,2024-05-10_11h54.33.042,exp1,2023.1.0,60.00398423900856,
,,,,,,,,,,,,,,,,5,8.6,9.3,10,10.7,11.4,0.7,0.1499999999999999,0.55,3.3499999999999996,10,initial,36.05,310,335,361,386,411,9,9,9,9,9,,,,,,,1,0,1,0,0,50,50,40,,,,,,,,,,,,num_4,0.726770699955523,num_4,0.3,1.0,0.8000000000000002,1.0,30.5644,38.2055,return,2.679850500077009,,,,,,,,,,,,,,,,,702,21,female,up_down_width,2024-05-10_11h54.33.042,exp1,2023.1.0,60.00398423900856,
,,,,,,,,,,,,,,,,5,8.95,9.475,10,10.525,11.05,0.525,0.275,0.25,2.35,10,match,36.05,323,342,361,379,398,9,9,9,9,9,,,,,,,1,0,1,0,0,51,51,25,,,,,,,,,,,,num_5,0.7496473998762667,num_5,0.2,0.7,0.25,0.7,9.55138,26.74385,return,1.3270766998175532,,,,,,,,,,,,,,,,,702,21,female,up_down_width,2024-05-10_11h54.33.042,exp1,2023.1.0,60.00398423900856,
,,,,,,,,,,,,,,,,,,,,,,,,,,,,,,,,,,,,,,,,,,,,,1,0,1,0,,,,,,,,,,,,,,,,,,,,,,,,,,,,,1000.2201988000888,1000.2201988000888,1000.2201988000888,,,,,,,,,,,,702,21,female,up_down_width,2024-05-10_11h54.33.042,exp1,2023.1.0,60.00398423900856,
,,,,,,,,,,,,,,,,3,9.1,10,10.9,0,0,0.9,0.5,0.4,2.2,10,initial,36.05,328,361,393,0,0,9,9,9,0,0,,,,,,,2,0,2,0,0,0,0,15,,,,,,,,,,,,num_2,1.3620666998904198,num_2,0.55,1.6,0.55,1.6,21.01303,61.12881,return,2.154952999902889,,,,,,,,,,,,,,,,,702,21,female,up_down_width,2024-05-10_11h54.33.042,exp1,2023.1.0,60.00398423900856,
,,,,,,,,,,,,,,,,5,8.6,9.3,10,10.7,11.4,0.7,0.29999999999999993,0.4,3.1999999999999997,10,initial,36.05,310,335,361,386,411,9,9,9,9,9,,,,,,,2,0,2,0,0,1,1,44,,,,,,,,,,,,num_4,0.8531833998858929,num_4,0.45,1.2,0.45,1.0,17.19248,38.2055,return,1.985490599879995,,,,,,,,,,,,,,,,,702,21,female,up_down_width,2024-05-10_11h54.33.042,exp1,2023.1.0,60.00398423900856,
,,,,,,,,,,,,,,,,3,8.2,10,11.8,0,0,1.8,1.25,0.55,4.15,10,match,36.05,296,361,425,0,0,9,9,9,0,0,,,,,,,2,0,2,0,0,2,2,47,,,,,,,,,,,,num_3,1.0080600997898728,num_3,0.45,1.2,0.45,1.5,17.19248,57.30826,return,1.2825085998047143,,,,,,,,,,,,,,,,,702,21,female,up_down_width,2024-05-10_11h54.33.042,exp1,2023.1.0,60.00398423900856,
,,,,,,,,,,,,,,,,4,8.825,9.608333333333333,10.391666666666667,11.175,0,0.7833333333333333,0.5333333333333333,0.25,2.6,10,match,36.05,318,346,375,403,0,9,9,9,9,0,,,,,,,2,0,2,0,0,3,3,5,,,,,,,,,,,,num_4,0.6772451000288129,num_4,0.25,0.8,0.25,0.9,9.55138,34.38495,return,1.609559000004083,,,,,,,,,,,,,,,,,702,21,female,up_down_width,2024-05-10_11h54.33.042,exp1,2023.1.0,60.00398423900856,
,,,,,,,,,,,,,,,,3,7.8,10,12.2,0,0,2.2,1.9500000000000002,0.25,4.65,10,match,36.05,281,361,440,0,0,9,9,9,0,0,,,,,,,2,0,2,0,0,4,4,37,,,,,,,,,,,,num_3,0.8436759999021888,num_3,0.2,0.9,0.2,1.7,7.6411,64.94936,return,4.008028799900785,,,,,,,,,,,,,,,,,702,21,female,up_down_width,2024-05-10_11h54.33.042,exp1,2023.1.0,60.00398423900856,
,,,,,,,,,,,,,,,,5,8.275,9.1375,10,10.8625,11.725,0.8625,0.6125,0.25,3.7,10,match,36.05,298,329,361,392,423,9,9,9,9,9,,,,,,,2,0,2,0,0,5,5,22,,,,,,,,,,,,num_4,0.836616899818182,num_4,0.2,1.0,0.2,1.5,7.6411,57.30826,return,1.4583005998283625,,,,,,,,,,,,,,,,,702,21,female,up_down_width,2024-05-10_11h54.33.042,exp1,2023.1.0,60.00398423900856,
,,,,,,,,,,,,,,,,3,8.2,10,11.8,0,0,1.7999999999999998,1.4,0.4,4,10,match,36.05,296,361,425,0,0,9,9,9,0,0,,,,,,,2,0,2,0,0,6,6,51,,,,,,,,,,,,num_3,0.9533889996819198,num_3,0.25,0.3,0.25,1.4,9.55138,53.48771,return,3.793952099978924,,,,,,,,,,,,,,,,,702,21,female,up_down_width,2024-05-10_11h54.33.042,exp1,2023.1.0,60.00398423900856,
,,,,,,,,,,,,,,,,5,8.6,9.3,10,10.7,11.4,0.7,0.44999999999999996,0.25,3.05,10,initial,36.05,310,335,361,386,411,9,9,9,9,9,,,,,,,2,0,2,0,0,7,7,42,,,,,,,,,,,,num_4,0.7018692998681217,num_4,0.25,0.6,0.25,0.8,9.55138,30.5644,return,2.7354530000593513,,,,,,,,,,,,,,,,,702,21,female,up_down_width,2024-05-10_11h54.33.042,exp1,2023.1.0,60.00398423900856,
,,,,,,,,,,,,,,,,4,8.65,9.55,10.45,11.35,0,0.9,0.5,0.4,3.1,10,initial,36.05,312,344,377,409,0,9,9,9,9,0,,,,,,,2,0,2,0,0,8,8,32,,,,,,,,,,,,num_5,0.7745010999497026,num_5,0.45,1.1,0.45,1.25,17.19248,47.75688,return,1.7181104000192136,,,,,,,,,,,,,,,,,702,21,female,up_down_width,2024-05-10_11h54.33.042,exp1,2023.1.0,60.00398423900856,
,,,,,,,,,,,,,,,,4,8.95,9.65,10.35,11.05,0,0.7,0.29999999999999993,0.4,2.5,10,initial,36.05,323,348,373,398,0,9,9,9,9,0,,,,,,,2,0,2,0,0,9,9,26,,,,,,,,,,,,num_3,0.8095282998401672,num_3,0.45,0.5,0.45,0.9,17.19248,34.38495,return,2.6748724000062793,,,,,,,,,,,,,,,,,702,21,female,up_down_width,2024-05-10_11h54.33.042,exp1,2023.1.0,60.00398423900856,
,,,,,,,,,,,,,,,,4,8.35,9.45,10.55,11.65,0,1.1,0.8500000000000001,0.25,3.5500000000000003,10,initial,36.05,301,341,380,420,0,9,9,9,9,0,,,,,,,2,0,2,0,0,10,10,19,,,,,,,,,,,,num_4,0.9054294999223202,num_4,0.25,1.0,0.25,1.0,9.55138,38.2055,return,0.8798325997777283,,,,,,,,,,,,,,,,,702,21,female,up_down_width,2024-05-10_11h54.33.042,exp1,2023.1.0,60.00398423900856,
,,,,,,,,,,,,,,,,5,8.35,9.175,10,10.825,11.65,0.8250000000000001,0.275,0.55,3.85,10,match,36.05,301,331,361,390,420,9,9,9,9,9,,,,,,,2,0,2,0,0,11,11,18,,,,,,,,,,,,num_5,0.9961368998046964,num_5,0.25,0.8,0.49999999999999994,0.8,19.10275,30.5644,return,2.1183445998467505,,,,,,,,,,,,,,,,,702,21,female,up_down_width,2024-05-10_11h54.33.042,exp1,2023.1.0,60.00398423900856,
,,,,,,,,,,,,,,,,4,9.1,9.7,10.3,10.9,0,0.6,0.04999999999999997,0.55,2.35,10,match,36.05,328,350,371,393,0,9,9,9,9,0,,,,,,,2,0,2,0,0,12,12,12,,,,,,,,,,,,num_3,0.8292818998452276,num_3,0.35,1,0.7000000000000001,0.95,26.74385,36.29523,return,4.773388899862766,,,,,,,,,,,,,,,,,702,21,female,up_down_width,2024-05-10_11h54.33.042,exp1,2023.1.0,60.00398423900856,
,,,,,,,,,,,,,,,,5,8.65,9.325,10,10.675,11.35,0.675,0.125,0.55,3.25,10,match,36.05,312,336,361,385,409,9,9,9,9,9,,,,,,,2,0,2,0,0,13,13,29,,,,,,,,,,,,num_4,0.7329518999904394,num_4,0.55,1.2,0.8000000000000003,1.0,30.5644,38.2055,return,3.111294199945405,,,,,,,,,,,,,,,,,702,21,female,up_down_width,2024-05-10_11h54.33.042,exp1,2023.1.0,60.00398423900856,
,,,,,,,,,,,,,,,,5,8.95,9.475,10,10.525,11.05,0.525,0.275,0.25,2.35,10,match,36.05,323,342,361,379,398,9,9,9,9,9,,,,,,,2,0,2,0,0,14,14,25,,,,,,,,,,,,num_4,0.7162767997942865,num_4,0.45,1.1,0.4,0.6,15.2822,22.9233,return,3.0354177998378873,,,,,,,,,,,,,,,,,702,21,female,up_down_width,2024-05-10_11h54.33.042,exp1,2023.1.0,60.00398423900856,
,,,,,,,,,,,,,,,,5,8.2,9.1,10,10.9,11.8,0.9,0.35,0.55,4.15,10,initial,36.05,296,328,361,393,425,9,9,9,9,9,,,,,,,2,0,2,0,0,15,15,46,,,,,,,,,,,,num_4,0.6458712997846305,num_4,0.4,0.7,0.55,0.8,21.01303,30.5644,return,3.2844195999205112,,,,,,,,,,,,,,,,,702,21,female,up_down_width,2024-05-10_11h54.33.042,exp1,2023.1.0,60.00398423900856,
,,,,,,,,,,,,,,,,5,7.8,8.9,10,11.1,12.2,1.1,0.7000000000000001,0.4,4.800000000000001,10,initial,36.05,281,321,361,400,440,9,9,9,9,9,,,,,,,2,0,2,0,0,16,16,38,,,,,,,,,,,,num_4,1.0649923998862505,num_4,0.45,1.0,0.45,0.8,17.19248,30.5644,return,1.5179715000558645,,,,,,,,,,,,,,,,,702,21,female,up_down_width,2024-05-10_11h54.33.042,exp1,2023.1.0,60.00398423900856,
,,,,,,,,,,,,,,,,5,7.8,8.9,10,11.1,12.2,1.1,0.55,0.55,4.95,10,initial,36.05,281,321,361,400,440,9,9,9,9,9,,,,,,,2,0,2,0,0,17,17,34,,,,,,,,,,,,num_4,0.7926415998954326,num_4,0.5,0.6,0.6000000000000001,0.9,22.9233,34.38495,return,2.448205800028518,,,,,,,,,,,,,,,,,702,21,female,up_down_width,2024-05-10_11h54.33.042,exp1,2023.1.0,60.00398423900856,
,,,,,,,,,,,,,,,,4,9.3,9.766666666666667,10.233333333333333,10.7,0,0.4666666666666667,0.06666666666666665,0.4,1.8,10,match,36.05,335,352,369,386,0,9,9,9,9,0,,,,,,,2,0,2,0,0,18,18,10,,,,,,,,,,,,num_3,1.0512200999073684,num_3,0.25,1,0.7000000000000001,0.8,26.74385,30.5644,return,3.968274899991229,,,,,,,,,,,,,,,,,702,21,female,up_down_width,2024-05-10_11h54.33.042,exp1,2023.1.0,60.00398423900856,
,,,,,,,,,,,,,,,,3,8.9,10,11.1,0,0,1.1,0.8500000000000001,0.25,2.45,10,initial,36.05,321,361,400,0,0,9,9,9,0,0,,,,,,,2,0,2,0,0,19,19,2,,,,,,,,,,,,num_3,1.061900399858132,num_3,0.35,0.8,0.2,1.15,7.6411,43.93633,return,4.7135528000071645,,,,,,,,,,,,,,,,,702,21,female,up_down_width,2024-05-10_11h54.33.042,exp1,2023.1.0,60.00398423900856,
,,,,,,,,,,,,,,,,5,8.6,9.3,10,10.7,11.4,0.7,0.1499999999999999,0.55,3.3499999999999996,10,initial,36.05,310,335,361,386,411,9,9,9,9,9,,,,,,,2,0,2,0,0,20,20,40,,,,,,,,,,,,num_4,0.9324665998574346,num_4,0.3,1.2,0.7500000000000001,0.9,28.65413,34.38495,return,3.6312253999058157,,,,,,,,,,,,,,,,,702,21,female,up_down_width,2024-05-10_11h54.33.042,exp1,2023.1.0,60.00398423900856,
,,,,,,,,,,,,,,,,3,8.6,10,11.4,0,0,1.4,1.15,0.25,3.05,10,match,36.05,310,361,411,0,0,9,9,9,0,0,,,,,,,2,0,2,0,0,21,21,43,,,,,,,,,,,,num_3,0.8113106000237167,num_3,0.45,0.8,0.20000000000000007,1.05,7.6411,40.11578,return,2.96392389992252,,,,,,,,,,,,,,,,,702,21,female,up_down_width,2024-05-10_11h54.33.042,exp1,2023.1.0,60.00398423900856,
,,,,,,,,,,,,,,,,4,9.3,9.766666666666667,10.233333333333333,10.7,0,0.4666666666666667,0.21666666666666665,0.25,1.65,10,match,36.05,335,352,369,386,0,9,9,9,9,0,,,,,,,2,0,2,0,0,22,22,8,,,,,,,,,,,,num_4,0.6922527998685837,num_4,0.3,1.3,0.3,0.6,11.46165,22.9233,return,2.5683968998491764,,,,,,,,,,,,,,,,,702,21,female,up_down_width,2024-05-10_11h54.33.042,exp1,2023.1.0,60.00398423900856,
,,,,,,,,,,,,,,,,4,9.1,9.7,10.3,10.9,0,0.5999999999999999,0.3499999999999999,0.25,2.05,10,match,36.05,328,350,371,393,0,9,9,9,9,0,,,,,,,2,0,2,0,0,23,23,14,,,,,,,,,,,,num_4,0.7138614999130368,num_4,0.35,0.9,0.35,0.9,13.37193,34.38495,return,0.9085612997878343,,,,,,,,,,,,,,,,,702,21,female,up_down_width,2024-05-10_11h54.33.042,exp1,2023.1.0,60.00398423900856,
,,,,,,,,,,,,,,,,4,8.95,9.65,10.35,11.05,0,0.7,0.44999999999999996,0.25,2.3499999999999996,10,initial,36.05,323,348,373,398,0,9,9,9,9,0,,,,,,,2,0,2,0,0,24,24,24,,,,,,,,,,,,num_4,0.7991108999121934,num_4,0.25,0.7,0.2,0.7,7.6411,26.74385,return,1.6783310996834189,,,,,,,,,,,,,,,,,702,21,female,up_down_width,2024-05-10_11h54.33.042,exp1,2023.1.0,60.00398423900856,
,,,,,,,,,,,,,,,,3,8.9,10,11.1,0,0,1.1,0.55,0.55,2.75,10,initial,36.05,321,361,400,0,0,9,9,9,0,0,,,,,,,2,0,2,0,0,25,25,0,,,,,,,,,,,,num_3,0.6917365998961031,num_3,0.4,0.6,0.45,1.05,17.19248,40.11578,return,2.6711204000748694,,,,,,,,,,,,,,,,,702,21,female,up_down_width,2024-05-10_11h54.33.042,exp1,2023.1.0,60.00398423900856,
,,,,,,,,,,,,,,,,4,8.65,9.55,10.45,11.35,0,0.9,0.65,0.25,2.95,10,initial,36.05,312,344,377,409,0,9,9,9,9,0,,,,,,,2,0,2,0,0,26,26,30,,,,,,,,,,,,num_4,0.7386601998005062,num_4,0.3,0.3,0.2,0.8,7.6411,30.5644,return,3.106929199770093,,,,,,,,,,,,,,,,,702,21,female,up_down_width,2024-05-10_11h54.33.042,exp1,2023.1.0,60.00398423900856,
,,,,,,,,,,,,,,,,4,9.1,9.7,10.3,10.9,0,0.6000000000000001,0.20000000000000004,0.4,2.2,10,match,36.05,328,350,371,393,0,9,9,9,9,0,,,,,,,2,0,2,0,0,27,27,16,,,,,,,,,,,,num_3,0.9206820998806506,num_3,0.3,0.9,0.5499999999999999,0.85,21.01303,32.47468,return,3.50166909978725,,,,,,,,,,,,,,,,,702,21,female,up_down_width,2024-05-10_11h54.33.042,exp1,2023.1.0,60.00398423900856,
,,,,,,,,,,,,,,,,4,8.65,9.55,10.45,11.35,0,0.9,0.35,0.55,3.25,10,initial,36.05,312,344,377,409,0,9,9,9,9,0,,,,,,,2,0,2,0,0,28,28,28,,,,,,,,,,,,num_4,0.796917799860239,num_4,0.25,0.5,0.44999999999999996,0.7,17.19248,26.74385,return,2.775560500100255,,,,,,,,,,,,,,,,,702,21,female,up_down_width,2024-05-10_11h54.33.042,exp1,2023.1.0,60.00398423900856,
,,,,,,,,,,,,,,,,4,8.95,9.65,10.35,11.05,0,0.7,0.1499999999999999,0.55,2.65,10,initial,36.05,323,348,373,398,0,9,9,9,9,0,,,,,,,2,0,2,0,0,29,29,23,,,,,,,,,,,,num_4,0.7139806000050157,num_4,0.35,0.4,0.44999999999999996,0.6,17.19248,22.9233,return,2.7468491999898106,,,,,,,,,,,,,,,,,702,21,female,up_down_width,2024-05-10_11h54.33.042,exp1,2023.1.0,60.00398423900856,
,,,,,,,,,,,,,,,,4,8.35,9.45,10.55,11.65,0,1.1,0.7000000000000001,0.4,3.7,10,initial,36.05,301,341,380,420,0,9,9,9,9,0,,,,,,,2,0,2,0,0,30,30,21,,,,,,,,,,,,num_4,0.7061077998951077,num_4,0.3,1.1,0.3,0.6,11.46165,22.9233,return,2.4336321998853236,,,,,,,,,,,,,,,,,702,21,female,up_down_width,2024-05-10_11h54.33.042,exp1,2023.1.0,60.00398423900856,
,,,,,,,,,,,,,,,,5,8.65,9.325,10,10.675,11.35,0.675,0.42500000000000004,0.25,2.95,10,match,36.05,312,336,361,385,409,9,9,9,9,9,,,,,,,2,0,2,0,0,31,31,31,,,,,,,,,,,,num_4,0.7324266999494284,num_4,0.2,0.4,0.2,0.9,7.6411,34.38495,return,1.8379049997311085,,,,,,,,,,,,,,,,,702,21,female,up_down_width,2024-05-10_11h54.33.042,exp1,2023.1.0,60.00398423900856,
,,,,,,,,,,,,,,,,3,7.800000000000001,10,12.2,0,0,2.1999999999999997,1.7999999999999998,0.4,4.8,10,match,36.05,281,361,440,0,0,9,9,9,0,0,,,,,,,2,0,2,0,0,32,32,39,,,,,,,,,,,,num_3,0.9626321000978351,num_3,0.55,1.1,0.4,1.65,15.2822,63.03908,return,3.515609199879691,,,,,,,,,,,,,,,,,702,21,female,up_down_width,2024-05-10_11h54.33.042,exp1,2023.1.0,60.00398423900856,
,,,,,,,,,,,,,,,,4,8.35,9.45,10.55,11.65,0,1.1,0.55,0.55,3.8500000000000005,10,initial,36.05,301,341,380,420,0,9,9,9,9,0,,,,,,,2,0,2,0,0,33,33,17,,,,,,,,,,,,num_4,0.5920322998426855,num_4,0.4,0.5,0.4,1.3,15.2822,49.66716,return,2.1989588998258114,,,,,,,,,,,,,,,,,702,21,female,up_down_width,2024-05-10_11h54.33.042,exp1,2023.1.0,60.00398423900856,
,,,,,,,,,,,,,,,,3,9.3,10,10.7,0,0,0.7,0.1499999999999999,0.55,1.95,10,initial,36.05,335,361,386,0,0,9,9,9,0,0,,,,,,,2,0,2,0,0,34,34,6,,,,,,,,,,,,num_3,0.9657943998463452,num_3,0.5,1.1,0.5,0.75,19.10275,28.65413,return,2.799210599856451,,,,,,,,,,,,,,,,,702,21,female,up_down_width,2024-05-10_11h54.33.042,exp1,2023.1.0,60.00398423900856,
,,,,,,,,,,,,,,,,3,8.525,10,11.475,0,0,1.475,1.225,0.25,3.2,10,match,36.05,307,361,414,0,0,9,9,9,0,0,,,,,,,2,0,2,0,0,35,35,45,,,,,,,,,,,,num_3,0.6905118997674435,num_3,0.2,0.3,0.2,0.9,7.6411,34.38495,return,2.885216499911621,,,,,,,,,,,,,,,,,702,21,female,up_down_width,2024-05-10_11h54.33.042,exp1,2023.1.0,60.00398423900856,
,,,,,,,,,,,,,,,,5,8.95,9.475,10,10.525,11.05,0.525,0.125,0.4,2.5,10,match,36.05,323,342,361,379,398,9,9,9,9,9,,,,,,,2,0,2,0,0,36,36,27,,,,,,,,,,,,num_4,0.7161512000020593,num_4,0.55,0.6,0.55,0.8,21.01303,30.5644,return,1.3523621999192983,,,,,,,,,,,,,,,,,702,21,female,up_down_width,2024-05-10_11h54.33.042,exp1,2023.1.0,60.00398423900856,
,,,,,,,,,,,,,,,,5,8.2,9.1,10,10.9,11.8,0.9,0.5,0.4,4,10,initial,36.05,296,328,361,393,425,9,9,9,9,9,,,,,,,2,0,2,0,0,37,37,50,,,,,,,,,,,,num_4,0.6159525997936726,num_4,0.35,0.7,0.35,0.7,13.37193,26.74385,return,0.7469349999446422,,,,,,,,,,,,,,,,,702,21,female,up_down_width,2024-05-10_11h54.33.042,exp1,2023.1.0,60.00398423900856,
,,,,,,,,,,,,,,,,5,7.8,8.9,10,11.1,12.2,1.1,0.8500000000000001,0.25,4.65,10,initial,36.05,281,321,361,400,440,9,9,9,9,9,,,,,,,2,0,2,0,0,38,38,36,,,,,,,,,,,,num_4,0.7238811000715941,num_4,0.3,0.7,0.25,1.5,9.55138,57.30826,return,2.8062861999496818,,,,,,,,,,,,,,,,,702,21,female,up_down_width,2024-05-10_11h54.33.042,exp1,2023.1.0,60.00398423900856,
,,,,,,,,,,,,,,,,5,8.35,9.175,10,10.825,11.65,0.825,0.575,0.25,3.55,10,match,36.05,301,331,361,390,420,9,9,9,9,9,,,,,,,2,0,2,0,0,39,39,20,,,,,,,,,,,,num_4,0.9253396999556571,num_4,0.25,0.5,0.25,1.2,9.55138,45.8466,return,2.0821591997519135,,,,,,,,,,,,,,,,,702,21,female,up_down_width,2024-05-10_11h54.33.042,exp1,2023.1.0,60.00398423900856,
,,,,,,,,,,,,,,,,5,8.2,9.1,10,10.9,11.8,0.9,0.65,0.25,3.85,10,initial,36.05,296,328,361,393,425,9,9,9,9,9,,,,,,,2,0,2,0,0,40,40,48,,,,,,,,,,,,num_4,0.6729921998921782,num_4,0.35,1.0,0.25,1.6,9.55138,61.12881,return,2.1163056998047978,,,,,,,,,,,,,,,,,702,21,female,up_down_width,2024-05-10_11h54.33.042,exp1,2023.1.0,60.00398423900856,
,,,,,,,,,,,,,,,,3,7.8,10,12.2,0,0,2.2,1.65,0.55,4.95,10,match,36.05,281,361,440,0,0,9,9,9,0,0,,,,,,,2,0,2,0,0,41,41,35,,,,,,,,,,,,num_3,0.6371832999866456,num_3,0.2,0.8,0.5499999999999999,1.2,21.01303,45.8466,return,2.8759607998654246,,,,,,,,,,,,,,,,,702,21,female,up_down_width,2024-05-10_11h54.33.042,exp1,2023.1.0,60.00398423900856,
,,,,,,,,,,,,,,,,3,8.6,10,11.4,0,0,1.4,0.85,0.55,3.35,10,match,36.05,310,361,411,0,0,9,9,9,0,0,,,,,,,2,0,2,0,0,42,42,41,,,,,,,,,,,,num_3,0.6523931000847369,num_3,0.4,1.2,0.55,1.25,21.01303,47.75688,return,2.0008288000244647,,,,,,,,,,,,,,,,,702,21,female,up_down_width,2024-05-10_11h54.33.042,exp1,2023.1.0,60.00398423900856,
,,,,,,,,,,,,,,,,3,8.9,10,11.1,0,0,1.1,0.7000000000000001,0.4,2.6000000000000005,10,initial,36.05,321,361,400,0,0,9,9,9,0,0,,,,,,,2,0,2,0,0,43,43,4,,,,,,,,,,,,num_3,0.660739499842748,num_3,0.55,0.6,0.55,1.3,21.01303,49.66716,return,2.854675999842584,,,,,,,,,,,,,,,,,702,21,female,up_down_width,2024-05-10_11h54.33.042,exp1,2023.1.0,60.00398423900856,
,,,,,,,,,,,,,,,,4,8.9,9.633333333333333,10.366666666666667,11.1,0,0.7333333333333333,0.18333333333333326,0.55,2.75,10,match,36.05,321,347,374,400,0,9,9,9,9,0,,,,,,,2,0,2,0,0,44,44,1,,,,,,,,,,,,num_3,0.8563222999218851,num_3,0.45,1,0.6500000000000001,0.95,24.83358,36.29523,return,2.8040563999675214,,,,,,,,,,,,,,,,,702,21,female,up_down_width,2024-05-10_11h54.33.042,exp1,2023.1.0,60.00398423900856,
,,,,,,,,,,,,,,,,3,9.1,10,10.9,0,0,0.9,0.35,0.55,2.35,10,initial,36.05,328,361,393,0,0,9,9,9,0,0,,,,,,,2,0,2,0,0,45,45,11,,,,,,,,,,,,num_3,0.6474279998801649,num_3,0.45,0.6,0.45,0.85,17.19248,32.47468,return,2.3603139999322593,,,,,,,,,,,,,,,,,702,21,female,up_down_width,2024-05-10_11h54.33.042,exp1,2023.1.0,60.00398423900856,
,,,,,,,,,,,,,,,,3,9.3,10,10.7,0,0,0.7,0.44999999999999996,0.25,1.65,10,initial,36.05,335,361,386,0,0,9,9,9,0,0,,,,,,,2,0,2,0,0,46,46,7,,,,,,,,,,,,num_2,0.9974074000492692,num_2,0.5,1.6,0.5,0.9,19.10275,34.38495,return,2.68008999992162,,,,,,,,,,,,,,,,,702,21,female,up_down_width,2024-05-10_11h54.33.042,exp1,2023.1.0,60.00398423900856,
,,,,,,,,,,,,,,,,3,9.1,10,10.9,0,0,0.9,0.65,0.25,2.05,10,initial,36.05,328,361,393,0,0,9,9,9,0,0,,,,,,,2,0,2,0,0,47,47,13,,,,,,,,,,,,num_2,0.835844999877736,num_2,0.4,0.8,0.15000000000000008,1.1,5.73083,42.02605,return,2.494030899833888,,,,,,,,,,,,,,,,,702,21,female,up_down_width,2024-05-10_11h54.33.042,exp1,2023.1.0,60.00398423900856,
,,,,,,,,,,,,,,,,4,8.9,9.633333333333333,10.366666666666667,11.1,0,0.7333333333333334,0.4833333333333334,0.25,2.45,10,match,36.05,321,347,374,400,0,9,9,9,9,0,,,,,,,2,0,2,0,0,48,48,3,,,,,,,,,,,,num_3,0.7826437000185251,num_3,0.55,1.3,0.30000000000000004,1.15,11.46165,43.93633,return,2.5250647000502795,,,,,,,,,,,,,,,,,702,21,female,up_down_width,2024-05-10_11h54.33.042,exp1,2023.1.0,60.00398423900856,
,,,,,,,,,,,,,,,,5,8.65,9.325,10,10.675,11.35,0.675,0.275,0.4,3.1,10,match,36.05,312,336,361,385,409,9,9,9,9,9,,,,,,,2,0,2,0,0,49,49,33,,,,,,,,,,,,num_4,0.7821079997811466,num_4,0.55,1.1,0.55,0.8,21.01303,30.5644,return,1.6127285999245942,,,,,,,,,,,,,,,,,702,21,female,up_down_width,2024-05-10_11h54.33.042,exp1,2023.1.0,60.00398423900856,
,,,,,,,,,,,,,,,,3,8.2,10,11.8,0,0,1.8,1.55,0.25,3.85,10,match,36.05,296,361,425,0,0,9,9,9,0,0,,,,,,,2,0,2,0,0,50,50,49,,,,,,,,,,,,num_2,0.8512803998310119,num_2,0.35,1.4,0.2,2.2,7.6411,84.05211,return,2.908693099860102,,,,,,,,,,,,,,,,,702,21,female,up_down_width,2024-05-10_11h54.33.042,exp1,2023.1.0,60.00398423900856,
,,,,,,,,,,,,,,,,3,9.3,10,10.7,0,0,0.7,0.29999999999999993,0.4,1.8,10,initial,36.05,335,361,386,0,0,9,9,9,0,0,,,,,,,2,0,2,0,0,51,51,9,,,,,,,,,,,,num_3,0.6556571000255644,num_3,0.3,0.5,0.3,0.8,11.46165,30.5644,return,1.8850520998239517,,,,,,,,,,,,,,,,,702,21,female,up_down_width,2024-05-10_11h54.33.042,exp1,2023.1.0,60.00398423900856,
,,,,,,,,,,,,,,,,,,,,,,,,,,,,,,,,,,,,,,,,,,,,,2,0,2,0,,,,,,,,,,,,,,,,,,,,,,,,,,,,,1260.6697265000548,1260.6697265000548,1260.6697265000548,,,,,,,,,,,,702,21,female,up_down_width,2024-05-10_11h54.33.042,exp1,2023.1.0,60.00398423900856,
,,,,,,,,,,,,,,,,5,8.2,9.1,10,10.9,11.8,0.9,0.65,0.25,3.85,10,initial,36.05,296,328,361,393,425,9,9,9,9,9,,,,,,,3,0,3,0,0,0,0,48,,,,,,,,,,,,num_4,0.8767725999932736,num_4,0.4,0.7,0.20000000000000007,1.2,7.6411,45.8466,return,2.4675812998320907,,,,,,,,,,,,,,,,,702,21,female,up_down_width,2024-05-10_11h54.33.042,exp1,2023.1.0,60.00398423900856,
,,,,,,,,,,,,,,,,4,8.9,9.633333333333333,10.366666666666667,11.1,0,0.7333333333333334,0.4833333333333334,0.25,2.45,10,match,36.05,321,347,374,400,0,9,9,9,9,0,,,,,,,3,0,3,0,0,1,1,3,,,,,,,,,,,,num_4,0.6841072000097483,num_4,0.3,0.7,0.3,1.0,11.46165,38.2055,return,1.163905099965632,,,,,,,,,,,,,,,,,702,21,female,up_down_width,2024-05-10_11h54.33.042,exp1,2023.1.0,60.00398423900856,
,,,,,,,,,,,,,,,,3,8.2,10,11.8,0,0,1.8,1.25,0.55,4.15,10,match,36.05,296,361,425,0,0,9,9,9,0,0,,,,,,,3,0,3,0,0,2,2,47,,,,,,,,,,,,num_3,0.7409134998451918,num_3,0.35,0.6,0.35,1.4,13.37193,53.48771,return,2.5791503998916596,,,,,,,,,,,,,,,,,702,21,female,up_down_width,2024-05-10_11h54.33.042,exp1,2023.1.0,60.00398423900856,
,,,,,,,,,,,,,,,,5,8.35,9.175,10,10.825,11.65,0.825,0.575,0.25,3.55,10,match,36.05,301,331,361,390,420,9,9,9,9,9,,,,,,,3,0,3,0,0,3,3,20,,,,,,,,,,,,num_4,0.8079784999135882,num_4,0.3,1.2,0.3,1.3,11.46165,49.66716,return,0.6945546998176724,,,,,,,,,,,,,,,,,702,21,female,up_down_width,2024-05-10_11h54.33.042,exp1,2023.1.0,60.00398423900856,
,,,,,,,,,,,,,,,,3,9.3,10,10.7,0,0,0.7,0.1499999999999999,0.55,1.95,10,initial,36.05,335,361,386,0,0,9,9,9,0,0,,,,,,,3,0,3,0,0,4,4,6,,,,,,,,,,,,num_3,0.7607658999040723,num_3,0.5,0.7,0.5,0.7,19.10275,26.74385,return,0.7929326999001205,,,,,,,,,,,,,,,,,702,21,female,up_down_width,2024-05-10_11h54.33.042,exp1,2023.1.0,60.00398423900856,
,,,,,,,,,,,,,,,,4,8.65,9.55,10.45,11.35,0,0.9,0.35,0.55,3.25,10,initial,36.05,312,344,377,409,0,9,9,9,9,0,,,,,,,3,0,3,0,0,5,5,28,,,,,,,,,,,,num_4,0.6461888998746872,num_4,0.2,1.1,0.49999999999999994,0.9,19.10275,34.38495,return,4.1625202998984605,,,,,,,,,,,,,,,,,702,21,female,up_down_width,2024-05-10_11h54.33.042,exp1,2023.1.0,60.00398423900856,
,,,,,,,,,,,,,,,,4,8.95,9.65,10.35,11.05,0,0.7,0.44999999999999996,0.25,2.3499999999999996,10,initial,36.05,323,348,373,398,0,9,9,9,9,0,,,,,,,3,0,3,0,0,6,6,24,,,,,,,,,,,,num_4,0.695878499886021,num_4,0.4,0.8,0.25000000000000006,1.3,9.55138,49.66716,return,2.8430985999293625,,,,,,,,,,,,,,,,,702,21,female,up_down_width,2024-05-10_11h54.33.042,exp1,2023.1.0,60.00398423900856,
,,,,,,,,,,,,,,,,4,9.3,9.766666666666667,10.233333333333333,10.7,0,0.4666666666666667,0.06666666666666665,0.4,1.8,10,match,36.05,335,352,369,386,0,9,9,9,9,0,,,,,,,3,0,3,0,0,7,7,10,,,,,,,,,,,,num_4,0.7809021000284702,num_4,0.45,1.0,0.45,0.5,17.19248,19.10275,return,1.6552639999426901,,,,,,,,,,,,,,,,,702,21,female,up_down_width,2024-05-10_11h54.33.042,exp1,2023.1.0,60.00398423900856,
,,,,,,,,,,,,,,,,3,7.8,10,12.2,0,0,2.2,1.65,0.55,4.95,10,match,36.05,281,361,440,0,0,9,9,9,0,0,,,,,,,3,0,3,0,0,8,8,35,,,,,,,,,,,,num_3,0.7270890998188406,num_3,0.35,0.8,0.39999999999999997,1.55,15.2822,59.21853,return,2.9006307998206466,,,,,,,,,,,,,,,,,702,21,female,up_down_width,2024-05-10_11h54.33.042,exp1,2023.1.0,60.00398423900856,
,,,,,,,,,,,,,,,,5,7.8,8.9,10,11.1,12.2,1.1,0.7000000000000001,0.4,4.800000000000001,10,initial,36.05,281,321,361,400,440,9,9,9,9,9,,,,,,,3,0,3,0,0,9,9,38,,,,,,,,,,,,num_4,1.0217130999080837,num_4,0.4,0.7,0.4,1.3,15.2822,49.66716,return,1.3753512999974191,,,,,,,,,,,,,,,,,702,21,female,up_down_width,2024-05-10_11h54.33.042,exp1,2023.1.0,60.00398423900856,
,,,,,,,,,,,,,,,,5,8.65,9.325,10,10.675,11.35,0.675,0.125,0.55,3.25,10,match,36.05,312,336,361,385,409,9,9,9,9,9,,,,,,,3,0,3,0,0,10,10,29,,,,,,,,,,,,num_4,0.65937599982135,num_4,0.2,1.1,0.5499999999999999,0.6,21.01303,22.9233,return,3.77862019976601,,,,,,,,,,,,,,,,,702,21,female,up_down_width,2024-05-10_11h54.33.042,exp1,2023.1.0,60.00398423900856,
,,,,,,,,,,,,,,,,3,8.525,10,11.475,0,0,1.475,1.225,0.25,3.2,10,match,36.05,307,361,414,0,0,9,9,9,0,0,,,,,,,3,0,3,0,0,11,11,45,,,,,,,,,,,,num_3,0.7858589999377728,num_3,0.2,0.7,0.2,1.45,7.6411,55.39798,return,2.862992299720645,,,,,,,,,,,,,,,,,702,21,female,up_down_width,2024-05-10_11h54.33.042,exp1,2023.1.0,60.00398423900856,
,,,,,,,,,,,,,,,,5,8.35,9.175,10,10.825,11.65,0.8250000000000001,0.275,0.55,3.85,10,match,36.05,301,331,361,390,420,9,9,9,9,9,,,,,,,3,0,3,0,0,12,12,18,,,,,,,,,,,,num_4,0.7102874997071922,num_4,0.35,0.4,0.65,0.8,24.83358,30.5644,return,3.4098131998907775,,,,,,,,,,,,,,,,,702,21,female,up_down_width,2024-05-10_11h54.33.042,exp1,2023.1.0,60.00398423900856,
,,,,,,,,,,,,,,,,3,9.1,10,10.9,0,0,0.9,0.65,0.25,2.05,10,initial,36.05,328,361,393,0,0,9,9,9,0,0,,,,,,,3,0,3,0,0,13,13,13,,,,,,,,,,,,num_3,0.7687486000359058,num_3,0.25,0.5,0.25,1.75,9.55138,66.85963,return,4.641587899765,,,,,,,,,,,,,,,,,702,21,female,up_down_width,2024-05-10_11h54.33.042,exp1,2023.1.0,60.00398423900856,
,,,,,,,,,,,,,,,,3,8.2,10,11.8,0,0,1.7999999999999998,1.4,0.4,4,10,match,36.05,296,361,425,0,0,9,9,9,0,0,,,,,,,3,0,3,0,0,14,14,51,,,,,,,,,,,,num_3,0.7733199000358582,num_3,0.3,0.9,0.3,1.8,11.46165,68.76991,return,3.88856039987877,,,,,,,,,,,,,,,,,702,21,female,up_down_width,2024-05-10_11h54.33.042,exp1,2023.1.0,60.00398423900856,
,,,,,,,,,,,,,,,,3,8.6,10,11.4,0,0,1.4,1.15,0.25,3.05,10,match,36.05,310,361,411,0,0,9,9,9,0,0,,,,,,,3,0,3,0,0,15,15,43,,,,,,,,,,,,num_3,0.844560399884358,num_3,0.2,0.4,0.2,1.65,7.6411,63.03908,return,4.403189899865538,,,,,,,,,,,,,,,,,702,21,female,up_down_width,2024-05-10_11h54.33.042,exp1,2023.1.0,60.00398423900856,
,,,,,,,,,,,,,,,,3,8.9,10,11.1,0,0,1.1,0.55,0.55,2.75,10,initial,36.05,321,361,400,0,0,9,9,9,0,0,,,,,,,3,0,3,0,0,16,16,0,,,,,,,,,,,,num_3,0.7053369998466223,num_3,0.2,0.5,0.35,0.75,13.37193,28.65413,return,2.2279353998601437,,,,,,,,,,,,,,,,,702,21,female,up_down_width,2024-05-10_11h54.33.042,exp1,2023.1.0,60.00398423900856,
,,,,,,,,,,,,,,,,3,8.6,10,11.4,0,0,1.4,0.85,0.55,3.35,10,match,36.05,310,361,411,0,0,9,9,9,0,0,,,,,,,3,0,3,0,0,17,17,41,,,,,,,,,,,,num_3,0.6199661998543888,num_3,0.45,1.2,0.45,1.2,17.19248,45.8466,return,0.6376226998399943,,,,,,,,,,,,,,,,,702,21,female,up_down_width,2024-05-10_11h54.33.042,exp1,2023.1.0,60.00398423900856,
,,,,,,,,,,,,,,,,4,8.95,9.65,10.35,11.05,0,0.7,0.1499999999999999,0.55,2.65,10,initial,36.05,323,348,373,398,0,9,9,9,9,0,,,,,,,3,0,3,0,0,18,18,23,,,,,,,,,,,,num_3,0.618369200034067,num_3,0.3,0.8,0.65,0.85,24.83358,32.47468,return,1.919231099775061,,,,,,,,,,,,,,,,,702,21,female,up_down_width,2024-05-10_11h54.33.042,exp1,2023.1.0,60.00398423900856,
,,,,,,,,,,,,,,,,4,9.1,9.7,10.3,10.9,0,0.6000000000000001,0.20000000000000004,0.4,2.2,10,match,36.05,328,350,371,393,0,9,9,9,9,0,,,,,,,3,0,3,0,0,19,19,16,,,,,,,,,,,,num_3,0.9174630998168141,num_3,0.35,0.9,0.65,0.9,24.83358,34.38495,return,2.0605111999902874,,,,,,,,,,,,,,,,,702,21,female,up_down_width,2024-05-10_11h54.33.042,exp1,2023.1.0,60.00398423900856,
,,,,,,,,,,,,,,,,4,8.35,9.45,10.55,11.65,0,1.1,0.8500000000000001,0.25,3.5500000000000003,10,initial,36.05,301,341,380,420,0,9,9,9,9,0,,,,,,,3,0,3,0,0,20,20,19,,,,,,,,,,,,num_4,0.6767710999120027,num_4,0.2,0.6,0.2,1.3,7.6411,49.66716,return,1.9088353000115603,,,,,,,,,,,,,,,,,702,21,female,up_down_width,2024-05-10_11h54.33.042,exp1,2023.1.0,60.00398423900856,
,,,,,,,,,,,,,,,,5,8.95,9.475,10,10.525,11.05,0.525,0.275,0.25,2.35,10,match,36.05,323,342,361,379,398,9,9,9,9,9,,,,,,,3,0,3,0,0,21,21,25,,,,,,,,,,,,num_4,0.5737936999648809,num_4,0.55,0.9,0.45,0.9,17.19248,34.38495,return,1.4899227998685092,,,,,,,,,,,,,,,,,702,21,female,up_down_width,2024-05-10_11h54.33.042,exp1,2023.1.0,60.00398423900856,
,,,,,,,,,,,,,,,,5,8.65,9.325,10,10.675,11.35,0.675,0.275,0.4,3.1,10,match,36.05,312,336,361,385,409,9,9,9,9,9,,,,,,,3,0,3,0,0,22,22,33,,,,,,,,,,,,num_4,0.6429133997298777,num_4,0.55,1.2,0.7000000000000002,1.0,26.74385,38.2055,return,2.3129896000027657,,,,,,,,,,,,,,,,,702,21,female,up_down_width,2024-05-10_11h54.33.042,exp1,2023.1.0,60.00398423900856,
,,,,,,,,,,,,,,,,3,8.2,10,11.8,0,0,1.8,1.55,0.25,3.85,10,match,36.05,296,361,425,0,0,9,9,9,0,0,,,,,,,3,0,3,0,0,23,23,49,,,,,,,,,,,,num_3,0.8209621997084469,num_3,0.35,1.2,0.25,1.45,9.55138,55.39798,return,2.5600591998081654,,,,,,,,,,,,,,,,,702,21,female,up_down_width,2024-05-10_11h54.33.042,exp1,2023.1.0,60.00398423900856,
,,,,,,,,,,,,,,,,3,9.1,10,10.9,0,0,0.9,0.5,0.4,2.2,10,initial,36.05,328,361,393,0,0,9,9,9,0,0,,,,,,,3,0,3,0,0,24,24,15,,,,,,,,,,,,num_3,0.7248874998185784,num_3,0.25,1.1,0.44999999999999996,1.1,17.19248,42.02605,return,2.0549394998233765,,,,,,,,,,,,,,,,,702,21,female,up_down_width,2024-05-10_11h54.33.042,exp1,2023.1.0,60.00398423900856,
,,,,,,,,,,,,,,,,5,7.8,8.9,10,11.1,12.2,1.1,0.55,0.55,4.95,10,initial,36.05,281,321,361,400,440,9,9,9,9,9,,,,,,,3,0,3,0,0,25,25,34,,,,,,,,,,,,num_4,0.7899342998862267,num_4,0.45,0.5,0.5,1.2,19.10275,45.8466,return,2.661111599765718,,,,,,,,,,,,,,,,,702,21,female,up_down_width,2024-05-10_11h54.33.042,exp1,2023.1.0,60.00398423900856,
,,,,,,,,,,,,,,,,3,9.3,10,10.7,0,0,0.7,0.44999999999999996,0.25,1.65,10,initial,36.05,335,361,386,0,0,9,9,9,0,0,,,,,,,3,0,3,0,0,26,26,7,,,,,,,,,,,,num_3,0.6440651998855174,num_3,0.5,0.6,0.30000000000000004,0.8,11.46165,30.5644,return,2.5377199000213295,,,,,,,,,,,,,,,,,702,21,female,up_down_width,2024-05-10_11h54.33.042,exp1,2023.1.0,60.00398423900856,
,,,,,,,,,,,,,,,,5,8.6,9.3,10,10.7,11.4,0.7,0.44999999999999996,0.25,3.05,10,initial,36.05,310,335,361,386,411,9,9,9,9,9,,,,,,,3,0,3,0,0,27,27,42,,,,,,,,,,,,num_5,0.8133569997735322,num_5,0.5,1.2,0.30000000000000004,1.2,11.46165,45.8466,return,2.3751472998410463,,,,,,,,,,,,,,,,,702,21,female,up_down_width,2024-05-10_11h54.33.042,exp1,2023.1.0,60.00398423900856,
,,,,,,,,,,,,,,,,4,8.9,9.633333333333333,10.366666666666667,11.1,0,0.7333333333333333,0.18333333333333326,0.55,2.75,10,match,36.05,321,347,374,400,0,9,9,9,9,0,,,,,,,3,0,3,0,0,28,28,1,,,,,,,,,,,,num_4,0.8798493999056518,num_4,0.45,0.6,0.45,0.6,17.19248,22.9233,return,0.6798928999342024,,,,,,,,,,,,,,,,,702,21,female,up_down_width,2024-05-10_11h54.33.042,exp1,2023.1.0,60.00398423900856,
,,,,,,,,,,,,,,,,4,8.35,9.45,10.55,11.65,0,1.1,0.7000000000000001,0.4,3.7,10,initial,36.05,301,341,380,420,0,9,9,9,9,0,,,,,,,3,0,3,0,0,29,29,21,,,,,,,,,,,,num_4,0.7491347999311984,num_4,0.4,0.7,0.4,0.7,15.2822,26.74385,return,0.8625953998416662,,,,,,,,,,,,,,,,,702,21,female,up_down_width,2024-05-10_11h54.33.042,exp1,2023.1.0,60.00398423900856,
,,,,,,,,,,,,,,,,4,8.825,9.608333333333333,10.391666666666667,11.175,0,0.7833333333333333,0.5333333333333333,0.25,2.6,10,match,36.05,318,346,375,403,0,9,9,9,9,0,,,,,,,3,0,3,0,0,30,30,5,,,,,,,,,,,,num_4,0.8319121999666095,num_4,0.45,1.1,0.35000000000000003,1.1,13.37193,42.02605,return,1.9934735998976976,,,,,,,,,,,,,,,,,702,21,female,up_down_width,2024-05-10_11h54.33.042,exp1,2023.1.0,60.00398423900856,
,,,,,,,,,,,,,,,,5,8.6,9.3,10,10.7,11.4,0.7,0.29999999999999993,0.4,3.1999999999999997,10,initial,36.05,310,335,361,386,411,9,9,9,9,9,,,,,,,3,0,3,0,0,31,31,44,,,,,,,,,,,,num_4,0.8074842998757958,num_4,0.35,1.3,0.49999999999999994,1.0,19.10275,38.2055,return,2.0768514999654144,,,,,,,,,,,,,,,,,702,21,female,up_down_width,2024-05-10_11h54.33.042,exp1,2023.1.0,60.00398423900856,
,,,,,,,,,,,,,,,,3,9.3,10,10.7,0,0,0.7,0.29999999999999993,0.4,1.8,10,initial,36.05,335,361,386,0,0,9,9,9,0,0,,,,,,,3,0,3,0,0,32,32,9,,,,,,,,,,,,num_3,0.6912487999070436,num_3,0.5,1,0.5,1,19.10275,38.2055,return,0.9948650000151247,,,,,,,,,,,,,,,,,702,21,female,up_down_width,2024-05-10_11h54.33.042,exp1,2023.1.0,60.00398423900856,
,,,,,,,,,,,,,,,,5,8.2,9.1,10,10.9,11.8,0.9,0.5,0.4,4,10,initial,36.05,296,328,361,393,425,9,9,9,9,9,,,,,,,3,0,3,0,0,33,33,50,,,,,,,,,,,,num_4,0.7261453999672085,num_4,0.25,0.4,0.25,0.9,9.55138,34.38495,return,1.8009932998102158,,,,,,,,,,,,,,,,,702,21,female,up_down_width,2024-05-10_11h54.33.042,exp1,2023.1.0,60.00398423900856,
,,,,,,,,,,,,,,,,5,8.6,9.3,10,10.7,11.4,0.7,0.1499999999999999,0.55,3.3499999999999996,10,initial,36.05,310,335,361,386,411,9,9,9,9,9,,,,,,,3,0,3,0,0,34,34,40,,,,,,,,,,,,num_4,0.7965173998381943,num_4,0.55,0.9,0.55,0.9,21.01303,34.38495,return,0.7126696999184787,,,,,,,,,,,,,,,,,702,21,female,up_down_width,2024-05-10_11h54.33.042,exp1,2023.1.0,60.00398423900856,
,,,,,,,,,,,,,,,,3,8.9,10,11.1,0,0,1.1,0.7000000000000001,0.4,2.6000000000000005,10,initial,36.05,321,361,400,0,0,9,9,9,0,0,,,,,,,3,0,3,0,0,35,35,4,,,,,,,,,,,,num_3,0.7913407997693866,num_3,0.2,0.4,0.2,0.8,7.6411,30.5644,return,2.2764290999621153,,,,,,,,,,,,,,,,,702,21,female,up_down_width,2024-05-10_11h54.33.042,exp1,2023.1.0,60.00398423900856,
,,,,,,,,,,,,,,,,3,7.8,10,12.2,0,0,2.2,1.9500000000000002,0.25,4.65,10,match,36.05,281,361,440,0,0,9,9,9,0,0,,,,,,,3,0,3,0,0,36,36,37,,,,,,,,,,,,num_3,0.9009474997874349,num_3,0.2,0.5,0.2,1.45,7.6411,55.39798,return,3.7035729000344872,,,,,,,,,,,,,,,,,702,21,female,up_down_width,2024-05-10_11h54.33.042,exp1,2023.1.0,60.00398423900856,
,,,,,,,,,,,,,,,,5,8.275,9.1375,10,10.8625,11.725,0.8625,0.6125,0.25,3.7,10,match,36.05,298,329,361,392,423,9,9,9,9,9,,,,,,,3,0,3,0,0,37,37,22,,,,,,,,,,,,num_4,0.6549703998025507,num_4,0.35,0.4,0.25,1.3,9.55138,49.66716,return,2.706974599743262,,,,,,,,,,,,,,,,,702,21,female,up_down_width,2024-05-10_11h54.33.042,exp1,2023.1.0,60.00398423900856,
,,,,,,,,,,,,,,,,4,8.65,9.55,10.45,11.35,0,0.9,0.65,0.25,2.95,10,initial,36.05,312,344,377,409,0,9,9,9,9,0,,,,,,,3,0,3,0,0,38,38,30,,,,,,,,,,,,num_3,0.8354257000610232,num_3,0.3,1.2,0.25,1.35,9.55138,51.57743,return,1.3288261997513473,,,,,,,,,,,,,,,,,702,21,female,up_down_width,2024-05-10_11h54.33.042,exp1,2023.1.0,60.00398423900856,
,,,,,,,,,,,,,,,,3,8.9,10,11.1,0,0,1.1,0.8500000000000001,0.25,2.45,10,initial,36.05,321,361,400,0,0,9,9,9,0,0,,,,,,,3,0,3,0,0,39,39,2,,,,,,,,,,,,num_3,0.6133406998123974,num_3,0.2,0.4,0.15000000000000002,0.85,5.73083,32.47468,return,2.0830472998786718,,,,,,,,,,,,,,,,,702,21,female,up_down_width,2024-05-10_11h54.33.042,exp1,2023.1.0,60.00398423900856,
,,,,,,,,,,,,,,,,4,8.65,9.55,10.45,11.35,0,0.9,0.5,0.4,3.1,10,initial,36.05,312,344,377,409,0,9,9,9,9,0,,,,,,,3,0,3,0,0,40,40,32,,,,,,,,,,,,num_4,1.1526792999356985,num_4,0.25,0.8,0.25,0.8,9.55138,30.5644,return,0.5883359999861568,,,,,,,,,,,,,,,,,702,21,female,up_down_width,2024-05-10_11h54.33.042,exp1,2023.1.0,60.00398423900856,
,,,,,,,,,,,,,,,,5,8.95,9.475,10,10.525,11.05,0.525,0.125,0.4,2.5,10,match,36.05,323,342,361,379,398,9,9,9,9,9,,,,,,,3,0,3,0,0,41,41,27,,,,,,,,,,,,num_4,0.8071049998980016,num_4,0.25,0.3,0.25,0.4,9.55138,15.2822,return,1.615278400015086,,,,,,,,,,,,,,,,,702,21,female,up_down_width,2024-05-10_11h54.33.042,exp1,2023.1.0,60.00398423900856,
,,,,,,,,,,,,,,,,4,8.95,9.65,10.35,11.05,0,0.7,0.29999999999999993,0.4,2.5,10,initial,36.05,323,348,373,398,0,9,9,9,9,0,,,,,,,3,0,3,0,0,42,42,26,,,,,,,,,,,,num_4,0.7691134999040514,num_4,0.25,0.6,0.39999999999999997,0.6,15.2822,22.9233,return,2.623924099840224,,,,,,,,,,,,,,,,,702,21,female,up_down_width,2024-05-10_11h54.33.042,exp1,2023.1.0,60.00398423900856,
,,,,,,,,,,,,,,,,4,8.35,9.45,10.55,11.65,0,1.1,0.55,0.55,3.8500000000000005,10,initial,36.05,301,341,380,420,0,9,9,9,9,0,,,,,,,3,0,3,0,0,43,43,17,,,,,,,,,,,,num_4,0.7843508999794722,num_4,0.25,1.2,0.7000000000000001,1.2,26.74385,45.8466,return,2.4625012998003513,,,,,,,,,,,,,,,,,702,21,female,up_down_width,2024-05-10_11h54.33.042,exp1,2023.1.0,60.00398423900856,
,,,,,,,,,,,,,,,,4,9.1,9.7,10.3,10.9,0,0.5999999999999999,0.3499999999999999,0.25,2.05,10,match,36.05,328,350,371,393,0,9,9,9,9,0,,,,,,,3,0,3,0,0,44,44,14,,,,,,,,,,,,num_4,0.6660439998377115,num_4,0.3,0.3,0.25,0.6,9.55138,22.9233,return,3.306457799859345,,,,,,,,,,,,,,,,,702,21,female,up_down_width,2024-05-10_11h54.33.042,exp1,2023.1.0,60.00398423900856,
,,,,,,,,,,,,,,,,4,9.3,9.766666666666667,10.233333333333333,10.7,0,0.4666666666666667,0.21666666666666665,0.25,1.65,10,match,36.05,335,352,369,386,0,9,9,9,9,0,,,,,,,3,0,3,0,0,45,45,8,,,,,,,,,,,,num_4,0.6879453000146896,num_4,0.25,1.1,0.25,0.5,9.55138,19.10275,return,2.997185399988666,,,,,,,,,,,,,,,,,702,21,female,up_down_width,2024-05-10_11h54.33.042,exp1,2023.1.0,60.00398423900856,
,,,,,,,,,,,,,,,,5,8.2,9.1,10,10.9,11.8,0.9,0.35,0.55,4.15,10,initial,36.05,296,328,361,393,425,9,9,9,9,9,,,,,,,3,0,3,0,0,46,46,46,,,,,,,,,,,,num_4,0.6977601000107825,num_4,0.2,0.4,0.5499999999999999,0.8,21.01303,30.5644,return,4.390490099787712,,,,,,,,,,,,,,,,,702,21,female,up_down_width,2024-05-10_11h54.33.042,exp1,2023.1.0,60.00398423900856,
,,,,,,,,,,,,,,,,3,9.1,10,10.9,0,0,0.9,0.35,0.55,2.35,10,initial,36.05,328,361,393,0,0,9,9,9,0,0,,,,,,,3,0,3,0,0,47,47,11,,,,,,,,,,,,num_2,0.9925545998848975,num_2,0.4,1.4,0.7500000000000002,1.4,28.65413,53.48771,return,1.6712875000666827,,,,,,,,,,,,,,,,,702,21,female,up_down_width,2024-05-10_11h54.33.042,exp1,2023.1.0,60.00398423900856,
,,,,,,,,,,,,,,,,5,7.8,8.9,10,11.1,12.2,1.1,0.8500000000000001,0.25,4.65,10,initial,36.05,281,321,361,400,440,9,9,9,9,9,,,,,,,3,0,3,0,0,48,48,36,,,,,,,,,,,,num_4,0.8616102999076247,num_4,0.3,0.5,0.15000000000000002,1.3,5.73083,49.66716,return,3.7357580000534654,,,,,,,,,,,,,,,,,702,21,female,up_down_width,2024-05-10_11h54.33.042,exp1,2023.1.0,60.00398423900856,
,,,,,,,,,,,,,,,,4,9.1,9.7,10.3,10.9,0,0.6,0.04999999999999997,0.55,2.35,10,match,36.05,328,350,371,393,0,9,9,9,9,0,,,,,,,3,0,3,0,0,49,49,12,,,,,,,,,,,,num_2,1.3489397000521421,num_2,0.35,1.0,0.6,0.5,22.9233,19.10275,return,9.85165339987725,,,,,,,,,,,,,,,,,702,21,female,up_down_width,2024-05-10_11h54.33.042,exp1,2023.1.0,60.00398423900856,
,,,,,,,,,,,,,,,,5,8.65,9.325,10,10.675,11.35,0.675,0.42500000000000004,0.25,2.95,10,match,36.05,312,336,361,385,409,9,9,9,9,9,,,,,,,3,0,3,0,0,50,50,31,,,,,,,,,,,,num_4,0.6959834997542202,num_4,0.35,1.0,0.3,0.5,11.46165,19.10275,return,2.565650299889967,,,,,,,,,,,,,,,,,702,21,female,up_down_width,2024-05-10_11h54.33.042,exp1,2023.1.0,60.00398423900856,
,,,,,,,,,,,,,,,,3,7.800000000000001,10,12.2,0,0,2.1999999999999997,1.7999999999999998,0.4,4.8,10,match,36.05,281,361,440,0,0,9,9,9,0,0,,,,,,,3,0,3,0,0,51,51,39,,,,,,,,,,,,num_2,0.768500299891457,num_2,0.25,1.0,0.44999999999999996,2.1,17.19248,80.23156,return,2.721451999852434,,,,,,,,,,,,,,,,,702,21,female,up_down_width,2024-05-10_11h54.33.042,exp1,2023.1.0,60.00398423900856,
,,,,,,,,,,,,,,,,,,,,,,,,,,,,,,,,,,,,,,,,,,,,,3,0,3,0,,,,,,,,,,,,,,,,,,,,,,,,,,,,,1521.9859511000104,1521.9859511000104,1521.9859511000104,,,,,,,,,,,,702,21,female,up_down_width,2024-05-10_11h54.33.042,exp1,2023.1.0,60.00398423900856,
,,,,,,,,,,,,,,,,3,7.800000000000001,10,12.2,0,0,2.1999999999999997,1.7999999999999998,0.4,4.8,10,match,36.05,281,361,440,0,0,9,9,9,0,0,,,,,,,4,0,4,0,0,0,0,39,,,,,,,,,,,,num_2,0.8442844999954104,num_2,0.5,0.6,0.5,1.6,19.10275,61.12881,return,2.1526104998774827,,,,,,,,,,,,,,,,,702,21,female,up_down_width,2024-05-10_11h54.33.042,exp1,2023.1.0,60.00398423900856,
,,,,,,,,,,,,,,,,3,9.1,10,10.9,0,0,0.9,0.35,0.55,2.35,10,initial,36.05,328,361,393,0,0,9,9,9,0,0,,,,,,,4,0,4,0,0,1,1,11,,,,,,,,,,,,num_2,0.6923803999088705,num_2,0.45,1.2,0.6000000000000001,1.2,22.9233,45.8466,return,3.173768599750474,,,,,,,,,,,,,,,,,702,21,female,up_down_width,2024-05-10_11h54.33.042,exp1,2023.1.0,60.00398423900856,
,,,,,,,,,,,,,,,,4,8.65,9.55,10.45,11.35,0,0.9,0.35,0.55,3.25,10,initial,36.05,312,344,377,409,0,9,9,9,9,0,,,,,,,4,0,4,0,0,2,2,28,,,,,,,,,,,,num_4,0.8061494997236878,num_4,0.2,1.0,0.5499999999999999,1.0,21.01303,38.2055,return,2.851306499913335,,,,,,,,,,,,,,,,,702,21,female,up_down_width,2024-05-10_11h54.33.042,exp1,2023.1.0,60.00398423900856,
,,,,,,,,,,,,,,,,4,8.65,9.55,10.45,11.35,0,0.9,0.5,0.4,3.1,10,initial,36.05,312,344,377,409,0,9,9,9,9,0,,,,,,,4,0,4,0,0,3,3,32,,,,,,,,,,,,num_4,0.9872337998822331,num_4,0.5,1.0,0.35000000000000003,1.0,13.37193,38.2055,return,1.922998399939388,,,,,,,,,,,,,,,,,702,21,female,up_down_width,2024-05-10_11h54.33.042,exp1,2023.1.0,60.00398423900856,
,,,,,,,,,,,,,,,,3,9.3,10,10.7,0,0,0.7,0.1499999999999999,0.55,1.95,10,initial,36.05,335,361,386,0,0,9,9,9,0,0,,,,,,,4,0,4,0,0,4,4,6,,,,,,,,,,,,num_2,0.8775665001012385,num_2,0.35,0.6,0.44999999999999996,0.6,17.19248,22.9233,return,1.9930419998709112,,,,,,,,,,,,,,,,,702,21,female,up_down_width,2024-05-10_11h54.33.042,exp1,2023.1.0,60.00398423900856,
,,,,,,,,,,,,,,,,5,7.8,8.9,10,11.1,12.2,1.1,0.8500000000000001,0.25,4.65,10,initial,36.05,281,321,361,400,440,9,9,9,9,9,,,,,,,4,0,4,0,0,5,5,36,,,,,,,,,,,,num_4,0.6998205999843776,num_4,0.3,0.7,0.3,1.8,11.46165,68.76991,return,2.4572570000309497,,,,,,,,,,,,,,,,,702,21,female,up_down_width,2024-05-10_11h54.33.042,exp1,2023.1.0,60.00398423900856,
,,,,,,,,,,,,,,,,3,9.1,10,10.9,0,0,0.9,0.65,0.25,2.05,10,initial,36.05,328,361,393,0,0,9,9,9,0,0,,,,,,,4,0,4,0,0,6,6,13,,,,,,,,,,,,num_2,0.8154678996652365,num_2,0.35,0.6,0.35,1.4,13.37193,53.48771,return,1.884883299935609,,,,,,,,,,,,,,,,,702,21,female,up_down_width,2024-05-10_11h54.33.042,exp1,2023.1.0,60.00398423900856,
,,,,,,,,,,,,,,,,4,9.3,9.766666666666667,10.233333333333333,10.7,0,0.4666666666666667,0.21666666666666665,0.25,1.65,10,match,36.05,335,352,369,386,0,9,9,9,9,0,,,,,,,4,0,4,0,0,7,7,8,,,,,,,,,,,,num_3,1.232854399830103,num_3,0.55,0.7,0.35000000000000003,0.95,13.37193,36.29523,return,2.989147200016305,,,,,,,,,,,,,,,,,702,21,female,up_down_width,2024-05-10_11h54.33.042,exp1,2023.1.0,60.00398423900856,
,,,,,,,,,,,,,,,,3,8.6,10,11.4,0,0,1.4,1.15,0.25,3.05,10,match,36.05,310,361,411,0,0,9,9,9,0,0,,,,,,,4,0,4,0,0,8,8,43,,,,,,,,,,,,num_3,0.8579173998441547,num_3,0.5,0.9,0.25000000000000006,1.65,9.55138,63.03908,return,4.805859099840745,,,,,,,,,,,,,,,,,702,21,female,up_down_width,2024-05-10_11h54.33.042,exp1,2023.1.0,60.00398423900856,
,,,,,,,,,,,,,,,,4,9.1,9.7,10.3,10.9,0,0.6000000000000001,0.20000000000000004,0.4,2.2,10,match,36.05,328,350,371,393,0,9,9,9,9,0,,,,,,,4,0,4,0,0,9,9,16,,,,,,,,,,,,num_3,0.7295746998861432,num_3,0.55,1,0.7000000000000002,0.9,26.74385,34.38495,return,2.2667617998085916,,,,,,,,,,,,,,,,,702,21,female,up_down_width,2024-05-10_11h54.33.042,exp1,2023.1.0,60.00398423900856,
,,,,,,,,,,,,,,,,4,8.95,9.65,10.35,11.05,0,0.7,0.1499999999999999,0.55,2.65,10,initial,36.05,323,348,373,398,0,9,9,9,9,0,,,,,,,4,0,4,0,0,10,10,23,,,,,,,,,,,,num_3,0.6638911000918597,num_3,0.45,0.5,0.6000000000000001,0.75,22.9233,28.65413,return,3.3559119997080415,,,,,,,,,,,,,,,,,702,21,female,up_down_width,2024-05-10_11h54.33.042,exp1,2023.1.0,60.00398423900856,
,,,,,,,,,,,,,,,,4,9.1,9.7,10.3,10.9,0,0.5999999999999999,0.3499999999999999,0.25,2.05,10,match,36.05,328,350,371,393,0,9,9,9,9,0,,,,,,,4,0,4,0,0,11,11,14,,,,,,,,,,,,num_4,0.6259369999170303,num_4,0.35,0.9,0.35,0.7,13.37193,26.74385,return,1.7114626998081803,,,,,,,,,,,,,,,,,702,21,female,up_down_width,2024-05-10_11h54.33.042,exp1,2023.1.0,60.00398423900856,
,,,,,,,,,,,,,,,,3,8.9,10,11.1,0,0,1.1,0.7000000000000001,0.4,2.6000000000000005,10,initial,36.05,321,361,400,0,0,9,9,9,0,0,,,,,,,4,0,4,0,0,12,12,4,,,,,,,,,,,,num_2,0.8454018998891115,num_2,0.45,0.6,0.35000000000000003,0.8,13.37193,30.5644,return,2.9508615997619927,,,,,,,,,,,,,,,,,702,21,female,up_down_width,2024-05-10_11h54.33.042,exp1,2023.1.0,60.00398423900856,
,,,,,,,,,,,,,,,,5,8.65,9.325,10,10.675,11.35,0.675,0.42500000000000004,0.25,2.95,10,match,36.05,312,336,361,385,409,9,9,9,9,9,,,,,,,4,0,4,0,0,13,13,31,,,,,,,,,,,,num_4,0.9655285999178886,num_4,0.55,1.0,0.4,1.0,15.2822,38.2055,return,1.8634720998816192,,,,,,,,,,,,,,,,,702,21,female,up_down_width,2024-05-10_11h54.33.042,exp1,2023.1.0,60.00398423900856,
,,,,,,,,,,,,,,,,5,8.35,9.175,10,10.825,11.65,0.825,0.575,0.25,3.55,10,match,36.05,301,331,361,390,420,9,9,9,9,9,,,,,,,4,0,4,0,0,14,14,20,,,,,,,,,,,,num_4,0.6669838998932391,num_4,0.5,1.3,0.25000000000000006,1.3,9.55138,49.66716,return,1.759758599800989,,,,,,,,,,,,,,,,,702,21,female,up_down_width,2024-05-10_11h54.33.042,exp1,2023.1.0,60.00398423900856,
,,,,,,,,,,,,,,,,3,8.2,10,11.8,0,0,1.7999999999999998,1.4,0.4,4,10,match,36.05,296,361,425,0,0,9,9,9,0,0,,,,,,,4,0,4,0,0,15,15,51,,,,,,,,,,,,num_2,0.9112202997785062,num_2,0.25,1.0,0.39999999999999997,1.6,15.2822,61.12881,return,2.404017899883911,,,,,,,,,,,,,,,,,702,21,female,up_down_width,2024-05-10_11h54.33.042,exp1,2023.1.0,60.00398423900856,
,,,,,,,,,,,,,,,,4,8.9,9.633333333333333,10.366666666666667,11.1,0,0.7333333333333333,0.18333333333333326,0.55,2.75,10,match,36.05,321,347,374,400,0,9,9,9,9,0,,,,,,,4,0,4,0,0,16,16,1,,,,,,,,,,,,num_2,0.8299585999920964,num_2,0.55,0.8,0.7500000000000002,1.0,28.65413,38.2055,return,2.2991902998182923,,,,,,,,,,,,,,,,,702,21,female,up_down_width,2024-05-10_11h54.33.042,exp1,2023.1.0,60.00398423900856,
,,,,,,,,,,,,,,,,5,8.6,9.3,10,10.7,11.4,0.7,0.29999999999999993,0.4,3.1999999999999997,10,initial,36.05,310,335,361,386,411,9,9,9,9,9,,,,,,,4,0,4,0,0,17,17,44,,,,,,,,,,,,num_4,0.8455804998520762,num_4,0.3,0.8,0.5499999999999999,0.8,21.01303,30.5644,return,4.313890899764374,,,,,,,,,,,,,,,,,702,21,female,up_down_width,2024-05-10_11h54.33.042,exp1,2023.1.0,60.00398423900856,
,,,,,,,,,,,,,,,,5,8.275,9.1375,10,10.8625,11.725,0.8625,0.6125,0.25,3.7,10,match,36.05,298,329,361,392,423,9,9,9,9,9,,,,,,,4,0,4,0,0,18,18,22,,,,,,,,,,,,num_4,0.8115633998531848,num_4,0.35,1.3,0.25,1.0,9.55138,38.2055,return,2.697243900038302,,,,,,,,,,,,,,,,,702,21,female,up_down_width,2024-05-10_11h54.33.042,exp1,2023.1.0,60.00398423900856,
,,,,,,,,,,,,,,,,5,8.2,9.1,10,10.9,11.8,0.9,0.35,0.55,4.15,10,initial,36.05,296,328,361,393,425,9,9,9,9,9,,,,,,,4,0,4,0,0,19,19,46,,,,,,,,,,,,num_5,0.9593288998585194,num_5,0.5,0.9,0.5,0.9,19.10275,34.38495,return,0.6897119998466223,,,,,,,,,,,,,,,,,702,21,female,up_down_width,2024-05-10_11h54.33.042,exp1,2023.1.0,60.00398423900856,
,,,,,,,,,,,,,,,,5,8.2,9.1,10,10.9,11.8,0.9,0.65,0.25,3.85,10,initial,36.05,296,328,361,393,425,9,9,9,9,9,,,,,,,4,0,4,0,0,20,20,48,,,,,,,,,,,,num_4,0.6807824999559671,num_4,0.45,0.5,0.25000000000000006,1.2,9.55138,45.8466,return,3.4282338998746127,,,,,,,,,,,,,,,,,702,21,female,up_down_width,2024-05-10_11h54.33.042,exp1,2023.1.0,60.00398423900856,
,,,,,,,,,,,,,,,,3,7.8,10,12.2,0,0,2.2,1.65,0.55,4.95,10,match,36.05,281,361,440,0,0,9,9,9,0,0,,,,,,,4,0,4,0,0,21,21,35,,,,,,,,,,,,num_3,0.9345406997017562,num_3,0.35,0.7,0.44999999999999996,1.35,17.19248,51.57743,return,3.4840959997382015,,,,,,,,,,,,,,,,,702,21,female,up_down_width,2024-05-10_11h54.33.042,exp1,2023.1.0,60.00398423900856,
,,,,,,,,,,,,,,,,3,8.9,10,11.1,0,0,1.1,0.8500000000000001,0.25,2.45,10,initial,36.05,321,361,400,0,0,9,9,9,0,0,,,,,,,4,0,4,0,0,22,22,2,,,,,,,,,,,,num_2,0.8366372000891715,num_2,0.55,1.0,0.25000000000000006,1.9,9.55138,72.59046,return,4.243213600013405,,,,,,,,,,,,,,,,,702,21,female,up_down_width,2024-05-10_11h54.33.042,exp1,2023.1.0,60.00398423900856,
,,,,,,,,,,,,,,,,3,8.2,10,11.8,0,0,1.8,1.25,0.55,4.15,10,match,36.05,296,361,425,0,0,9,9,9,0,0,,,,,,,4,0,4,0,0,23,23,47,,,,,,,,,,,,num_3,0.7424282000865787,num_3,0.25,0.6,0.49999999999999994,1.15,19.10275,43.93633,return,4.339372199960053,,,,,,,,,,,,,,,,,702,21,female,up_down_width,2024-05-10_11h54.33.042,exp1,2023.1.0,60.00398423900856,
,,,,,,,,,,,,,,,,3,9.3,10,10.7,0,0,0.7,0.29999999999999993,0.4,1.8,10,initial,36.05,335,361,386,0,0,9,9,9,0,0,,,,,,,4,0,4,0,0,24,24,9,,,,,,,,,,,,num_2,0.7152209000196308,num_2,0.3,1.6,0.7000000000000001,1.3,26.74385,49.66716,return,3.386376299895346,,,,,,,,,,,,,,,,,702,21,female,up_down_width,2024-05-10_11h54.33.042,exp1,2023.1.0,60.00398423900856,
,,,,,,,,,,,,,,,,4,8.95,9.65,10.35,11.05,0,0.7,0.44999999999999996,0.25,2.3499999999999996,10,initial,36.05,323,348,373,398,0,9,9,9,9,0,,,,,,,4,0,4,0,0,25,25,24,,,,,,,,,,,,num_4,0.7673320998437703,num_4,0.4,0.7,0.25000000000000006,0.7,9.55138,26.74385,return,1.3095408999361098,,,,,,,,,,,,,,,,,702,21,female,up_down_width,2024-05-10_11h54.33.042,exp1,2023.1.0,60.00398423900856,
,,,,,,,,,,,,,,,,5,7.8,8.9,10,11.1,12.2,1.1,0.7000000000000001,0.4,4.800000000000001,10,initial,36.05,281,321,361,400,440,9,9,9,9,9,,,,,,,4,0,4,0,0,26,26,38,,,,,,,,,,,,num_4,0.9140020997729152,num_4,0.3,0.5,0.3,1.0,11.46165,38.2055,return,1.8345652997959405,,,,,,,,,,,,,,,,,702,21,female,up_down_width,2024-05-10_11h54.33.042,exp1,2023.1.0,60.00398423900856,
,,,,,,,,,,,,,,,,5,8.95,9.475,10,10.525,11.05,0.525,0.275,0.25,2.35,10,match,36.05,323,342,361,379,398,9,9,9,9,9,,,,,,,4,0,4,0,0,27,27,25,,,,,,,,,,,,num_4,0.7580870999954641,num_4,0.2,0.5,0.2,0.5,7.6411,19.10275,return,0.8869569997768849,,,,,,,,,,,,,,,,,702,21,female,up_down_width,2024-05-10_11h54.33.042,exp1,2023.1.0,60.00398423900856,
,,,,,,,,,,,,,,,,5,8.35,9.175,10,10.825,11.65,0.8250000000000001,0.275,0.55,3.85,10,match,36.05,301,331,361,390,420,9,9,9,9,9,,,,,,,4,0,4,0,0,28,28,18,,,,,,,,,,,,num_5,0.7626759998966008,num_5,0.25,1.0,0.25,0.6,9.55138,22.9233,return,3.1750074999872595,,,,,,,,,,,,,,,,,702,21,female,up_down_width,2024-05-10_11h54.33.042,exp1,2023.1.0,60.00398423900856,
,,,,,,,,,,,,,,,,4,8.825,9.608333333333333,10.391666666666667,11.175,0,0.7833333333333333,0.5333333333333333,0.25,2.6,10,match,36.05,318,346,375,403,0,9,9,9,9,0,,,,,,,4,0,4,0,0,29,29,5,,,,,,,,,,,,num_4,0.6846002996899188,num_4,0.45,1.1,0.20000000000000007,1.1,7.6411,42.02605,return,1.5979491998441517,,,,,,,,,,,,,,,,,702,21,female,up_down_width,2024-05-10_11h54.33.042,exp1,2023.1.0,60.00398423900856,
,,,,,,,,,,,,,,,,4,9.3,9.766666666666667,10.233333333333333,10.7,0,0.4666666666666667,0.06666666666666665,0.4,1.8,10,match,36.05,335,352,369,386,0,9,9,9,9,0,,,,,,,4,0,4,0,0,30,30,10,,,,,,,,,,,,num_3,0.753135799895972,num_3,0.55,1.3,0.6500000000000001,0.8,24.83358,30.5644,return,5.690326499985531,,,,,,,,,,,,,,,,,702,21,female,up_down_width,2024-05-10_11h54.33.042,exp1,2023.1.0,60.00398423900856,
,,,,,,,,,,,,,,,,4,8.35,9.45,10.55,11.65,0,1.1,0.8500000000000001,0.25,3.5500000000000003,10,initial,36.05,301,341,380,420,0,9,9,9,9,0,,,,,,,4,0,4,0,0,31,31,19,,,,,,,,,,,,num_4,0.6510960999876261,num_4,0.2,0.6,0.2,0.6,7.6411,22.9233,return,0.7475741999223828,,,,,,,,,,,,,,,,,702,21,female,up_down_width,2024-05-10_11h54.33.042,exp1,2023.1.0,60.00398423900856,
,,,,,,,,,,,,,,,,5,8.6,9.3,10,10.7,11.4,0.7,0.44999999999999996,0.25,3.05,10,initial,36.05,310,335,361,386,411,9,9,9,9,9,,,,,,,4,0,4,0,0,32,32,42,,,,,,,,,,,,num_4,0.7561708998400718,num_4,0.35,0.4,0.2,1.1,7.6411,42.02605,return,3.1405875999480486,,,,,,,,,,,,,,,,,702,21,female,up_down_width,2024-05-10_11h54.33.042,exp1,2023.1.0,60.00398423900856,
,,,,,,,,,,,,,,,,5,8.65,9.325,10,10.675,11.35,0.675,0.275,0.4,3.1,10,match,36.05,312,336,361,385,409,9,9,9,9,9,,,,,,,4,0,4,0,0,33,33,33,,,,,,,,,,,,num_5,0.9920760998502374,num_5,0.5,0.7,0.5,0.7,19.10275,26.74385,return,0.7542225997895002,,,,,,,,,,,,,,,,,702,21,female,up_down_width,2024-05-10_11h54.33.042,exp1,2023.1.0,60.00398423900856,
,,,,,,,,,,,,,,,,3,7.8,10,12.2,0,0,2.2,1.9500000000000002,0.25,4.65,10,match,36.05,281,361,440,0,0,9,9,9,0,0,,,,,,,4,0,4,0,0,34,34,37,,,,,,,,,,,,num_3,0.6491992997471243,num_3,0.3,1,0.3,1.9,11.46165,72.59046,return,3.5992469997145236,,,,,,,,,,,,,,,,,702,21,female,up_down_width,2024-05-10_11h54.33.042,exp1,2023.1.0,60.00398423900856,
,,,,,,,,,,,,,,,,4,8.35,9.45,10.55,11.65,0,1.1,0.7000000000000001,0.4,3.7,10,initial,36.05,301,341,380,420,0,9,9,9,9,0,,,,,,,4,0,4,0,0,35,35,21,,,,,,,,,,,,num_4,0.8826509998179972,num_4,0.5,0.7,0.45,1.2,17.19248,45.8466,return,2.510326399933547,,,,,,,,,,,,,,,,,702,21,female,up_down_width,2024-05-10_11h54.33.042,exp1,2023.1.0,60.00398423900856,
,,,,,,,,,,,,,,,,5,7.8,8.9,10,11.1,12.2,1.1,0.55,0.55,4.95,10,initial,36.05,281,321,361,400,440,9,9,9,9,9,,,,,,,4,0,4,0,0,36,36,34,,,,,,,,,,,,num_4,0.7274585997220129,num_4,0.35,1.1,0.49999999999999994,1.1,19.10275,42.02605,return,4.115946699865162,,,,,,,,,,,,,,,,,702,21,female,up_down_width,2024-05-10_11h54.33.042,exp1,2023.1.0,60.00398423900856,
,,,,,,,,,,,,,,,,5,8.95,9.475,10,10.525,11.05,0.525,0.125,0.4,2.5,10,match,36.05,323,342,361,379,398,9,9,9,9,9,,,,,,,4,0,4,0,0,37,37,27,,,,,,,,,,,,num_4,0.7160920000169426,num_4,0.55,1.2,0.6500000000000001,0.8,24.83358,30.5644,return,2.8360562997404486,,,,,,,,,,,,,,,,,702,21,female,up_down_width,2024-05-10_11h54.33.042,exp1,2023.1.0,60.00398423900856,
,,,,,,,,,,,,,,,,3,9.3,10,10.7,0,0,0.7,0.44999999999999996,0.25,1.65,10,initial,36.05,335,361,386,0,0,9,9,9,0,0,,,,,,,4,0,4,0,0,38,38,7,,,,,,,,,,,,num_3,0.676895699929446,num_3,0.3,0.9,0.3,0.9,11.46165,34.38495,return,0.9025799999944866,,,,,,,,,,,,,,,,,702,21,female,up_down_width,2024-05-10_11h54.33.042,exp1,2023.1.0,60.00398423900856,
,,,,,,,,,,,,,,,,4,8.65,9.55,10.45,11.35,0,0.9,0.65,0.25,2.95,10,initial,36.05,312,344,377,409,0,9,9,9,9,0,,,,,,,4,0,4,0,0,39,39,30,,,,,,,,,,,,num_4,0.6350563999731094,num_4,0.45,1.1,0.30000000000000004,1.1,11.46165,42.02605,return,1.7733978000469506,,,,,,,,,,,,,,,,,702,21,female,up_down_width,2024-05-10_11h54.33.042,exp1,2023.1.0,60.00398423900856,
,,,,,,,,,,,,,,,,4,8.9,9.633333333333333,10.366666666666667,11.1,0,0.7333333333333334,0.4833333333333334,0.25,2.45,10,match,36.05,321,347,374,400,0,9,9,9,9,0,,,,,,,4,0,4,0,0,40,40,3,,,,,,,,,,,,num_3,0.6541228999849409,num_3,0.2,1.3,0.3,1.05,11.46165,40.11578,return,3.7134897999931127,,,,,,,,,,,,,,,,,702,21,female,up_down_width,2024-05-10_11h54.33.042,exp1,2023.1.0,60.00398423900856,
,,,,,,,,,,,,,,,,5,8.6,9.3,10,10.7,11.4,0.7,0.1499999999999999,0.55,3.3499999999999996,10,initial,36.05,310,335,361,386,411,9,9,9,9,9,,,,,,,4,0,4,0,0,41,41,40,,,,,,,,,,,,num_4,0.8940613998565823,num_4,0.25,0.4,0.44999999999999996,0.6,17.19248,22.9233,return,3.145304299890995,,,,,,,,,,,,,,,,,702,21,female,up_down_width,2024-05-10_11h54.33.042,exp1,2023.1.0,60.00398423900856,
,,,,,,,,,,,,,,,,4,9.1,9.7,10.3,10.9,0,0.6,0.04999999999999997,0.55,2.35,10,match,36.05,328,350,371,393,0,9,9,9,9,0,,,,,,,4,0,4,0,0,42,42,12,,,,,,,,,,,,num_3,0.8312979999464005,num_3,0.4,0.6,0.6000000000000001,0.65,22.9233,24.83358,return,2.381903599947691,,,,,,,,,,,,,,,,,702,21,female,up_down_width,2024-05-10_11h54.33.042,exp1,2023.1.0,60.00398423900856,
,,,,,,,,,,,,,,,,4,8.95,9.65,10.35,11.05,0,0.7,0.29999999999999993,0.4,2.5,10,initial,36.05,323,348,373,398,0,9,9,9,9,0,,,,,,,4,0,4,0,0,43,43,26,,,,,,,,,,,,num_3,0.6394168997649103,num_3,0.55,0.7,0.55,0.7,21.01303,26.74385,return,0.7562255999073386,,,,,,,,,,,,,,,,,702,21,female,up_down_width,2024-05-10_11h54.33.042,exp1,2023.1.0,60.00398423900856,
,,,,,,,,,,,,,,,,3,8.6,10,11.4,0,0,1.4,0.85,0.55,3.35,10,match,36.05,310,361,411,0,0,9,9,9,0,0,,,,,,,4,0,4,0,0,44,44,41,,,,,,,,,,,,num_3,0.6555666998028755,num_3,0.5,0.6,0.5,1.15,19.10275,43.93633,return,2.4833281999453902,,,,,,,,,,,,,,,,,702,21,female,up_down_width,2024-05-10_11h54.33.042,exp1,2023.1.0,60.00398423900856,
,,,,,,,,,,,,,,,,3,8.525,10,11.475,0,0,1.475,1.225,0.25,3.2,10,match,36.05,307,361,414,0,0,9,9,9,0,0,,,,,,,4,0,4,0,0,45,45,45,,,,,,,,,,,,num_2,0.784808199852705,num_2,0.4,1.0,0.35000000000000003,1.7,13.37193,64.94936,return,2.6197420000098646,,,,,,,,,,,,,,,,,702,21,female,up_down_width,2024-05-10_11h54.33.042,exp1,2023.1.0,60.00398423900856,
,,,,,,,,,,,,,,,,3,9.1,10,10.9,0,0,0.9,0.5,0.4,2.2,10,initial,36.05,328,361,393,0,0,9,9,9,0,0,,,,,,,4,0,4,0,0,46,46,15,,,,,,,,,,,,num_2,0.7729742999654263,num_2,0.25,1.0,0.6,1.3,22.9233,49.66716,return,2.5272994998376817,,,,,,,,,,,,,,,,,702,21,female,up_down_width,2024-05-10_11h54.33.042,exp1,2023.1.0,60.00398423900856,
,,,,,,,,,,,,,,,,3,8.2,10,11.8,0,0,1.8,1.55,0.25,3.85,10,match,36.05,296,361,425,0,0,9,9,9,0,0,,,,,,,4,0,4,0,0,47,47,49,,,,,,,,,,,,num_2,0.732145199785009,num_2,0.5,0.8,0.35000000000000003,1.1,13.37193,42.02605,return,3.4338827000465244,,,,,,,,,,,,,,,,,702,21,female,up_down_width,2024-05-10_11h54.33.042,exp1,2023.1.0,60.00398423900856,
,,,,,,,,,,,,,,,,5,8.2,9.1,10,10.9,11.8,0.9,0.5,0.4,4,10,initial,36.05,296,328,361,393,425,9,9,9,9,9,,,,,,,4,0,4,0,0,48,48,50,,,,,,,,,,,,num_4,0.9253682000562549,num_4,0.4,1.1,0.4,1.1,15.2822,42.02605,return,0.8980006999336183,,,,,,,,,,,,,,,,,702,21,female,up_down_width,2024-05-10_11h54.33.042,exp1,2023.1.0,60.00398423900856,
,,,,,,,,,,,,,,,,4,8.35,9.45,10.55,11.65,0,1.1,0.55,0.55,3.8500000000000005,10,initial,36.05,301,341,380,420,0,9,9,9,9,0,,,,,,,4,0,4,0,0,49,49,17,,,,,,,,,,,,num_4,0.7722352999262512,num_4,0.55,1.1,0.45,1.1,17.19248,42.02605,return,1.9664104997646064,,,,,,,,,,,,,,,,,702,21,female,up_down_width,2024-05-10_11h54.33.042,exp1,2023.1.0,60.00398423900856,
,,,,,,,,,,,,,,,,3,8.9,10,11.1,0,0,1.1,0.55,0.55,2.75,10,initial,36.05,321,361,400,0,0,9,9,9,0,0,,,,,,,4,0,4,0,0,50,50,0,,,,,,,,,,,,num_3,0.9128890000283718,num_3,0.55,1.3,0.55,1.3,21.01303,49.66716,return,0.7611683998256922,,,,,,,,,,,,,,,,,702,21,female,up_down_width,2024-05-10_11h54.33.042,exp1,2023.1.0,60.00398423900856,
,,,,,,,,,,,,,,,,5,8.65,9.325,10,10.675,11.35,0.675,0.125,0.55,3.25,10,match,36.05,312,336,361,385,409,9,9,9,9,9,,,,,,,4,0,4,0,0,51,51,29,,,,,,,,,,,,num_4,0.7366359997540712,num_4,0.55,1.0,0.6500000000000001,1.0,24.83358,38.2055,return,2.235858299769461,,,,,,,,,,,,,,,,,702,21,female,up_down_width,2024-05-10_11h54.33.042,exp1,2023.1.0,60.00398423900856,
,,,,,,,,,,,,,,,,,,,,,,,,,,,,,,,,,,,,,,,,,,,,,4,0,4,0,,,,,,,,,,,,,,,,,,,,,,,,,,,,,1782.6689176000655,1782.6689176000655,1782.6689176000655,,,,,,,,,,,,702,21,female,up_down_width,2024-05-10_11h54.33.042,exp1,2023.1.0,60.00398423900856,
,,,,,,,,,,,,,,,,3,7.8,10,12.2,0,0,2.2,1.9500000000000002,0.25,4.65,10,match,36.05,281,361,440,0,0,9,9,9,0,0,,,,,,,5,0,5,0,0,0,0,37,,,,,,,,,,,,num_2,1.2738957998808473,num_2,0.55,1.2,0.35000000000000003,1.5,13.37193,57.30826,return,3.0612985999323428,,,,,,,,,,,,,,,,,702,21,female,up_down_width,2024-05-10_11h54.33.042,exp1,2023.1.0,60.00398423900856,
,,,,,,,,,,,,,,,,4,9.3,9.766666666666667,10.233333333333333,10.7,0,0.4666666666666667,0.21666666666666665,0.25,1.65,10,match,36.05,335,352,369,386,0,9,9,9,9,0,,,,,,,5,0,5,0,0,1,1,8,,,,,,,,,,,,num_4,0.9051197997760028,num_4,0.5,1.2,0.4,0.5,15.2822,19.10275,return,2.6062380999792367,,,,,,,,,,,,,,,,,702,21,female,up_down_width,2024-05-10_11h54.33.042,exp1,2023.1.0,60.00398423900856,
,,,,,,,,,,,,,,,,3,9.3,10,10.7,0,0,0.7,0.29999999999999993,0.4,1.8,10,initial,36.05,335,361,386,0,0,9,9,9,0,0,,,,,,,5,0,5,0,0,2,2,9,,,,,,,,,,,,num_2,0.7287129999604076,num_2,0.2,1.4,0.6,1.0,22.9233,38.2055,return,3.302871899912134,,,,,,,,,,,,,,,,,702,21,female,up_down_width,2024-05-10_11h54.33.042,exp1,2023.1.0,60.00398423900856,
,,,,,,,,,,,,,,,,4,9.1,9.7,10.3,10.9,0,0.6000000000000001,0.20000000000000004,0.4,2.2,10,match,36.05,328,350,371,393,0,9,9,9,9,0,,,,,,,5,0,5,0,0,3,3,16,,,,,,,,,,,,num_4,0.7973540998063982,num_4,0.5,1.0,0.5,0.6,19.10275,22.9233,return,1.7530965998303145,,,,,,,,,,,,,,,,,702,21,female,up_down_width,2024-05-10_11h54.33.042,exp1,2023.1.0,60.00398423900856,
,,,,,,,,,,,,,,,,4,9.1,9.7,10.3,10.9,0,0.5999999999999999,0.3499999999999999,0.25,2.05,10,match,36.05,328,350,371,393,0,9,9,9,9,0,,,,,,,5,0,5,0,0,4,4,14,,,,,,,,,,,,num_3,0.7428160000126809,num_3,0.2,0.4,0.2,0.4,7.6411,15.2822,return,0.7117709999438375,,,,,,,,,,,,,,,,,702,21,female,up_down_width,2024-05-10_11h54.33.042,exp1,2023.1.0,60.00398423900856,
,,,,,,,,,,,,,,,,3,9.1,10,10.9,0,0,0.9,0.5,0.4,2.2,10,initial,36.05,328,361,393,0,0,9,9,9,0,0,,,,,,,5,0,5,0,0,5,5,15,,,,,,,,,,,,num_3,0.8212384998332709,num_3,0.4,1.2,0.35000000000000003,0.85,13.37193,32.47468,return,2.4823275997769088,,,,,,,,,,,,,,,,,702,21,female,up_down_width,2024-05-10_11h54.33.042,exp1,2023.1.0,60.00398423900856,
,,,,,,,,,,,,,,,,4,8.9,9.633333333333333,10.366666666666667,11.1,0,0.7333333333333334,0.4833333333333334,0.25,2.45,10,match,36.05,321,347,374,400,0,9,9,9,9,0,,,,,,,5,0,5,0,0,6,6,3,,,,,,,,,,,,num_4,0.7228305998723954,num_4,0.45,1.2,0.35000000000000003,0.8,13.37193,30.5644,return,2.239838699810207,,,,,,,,,,,,,,,,,702,21,female,up_down_width,2024-05-10_11h54.33.042,exp1,2023.1.0,60.00398423900856,
,,,,,,,,,,,,,,,,3,9.3,10,10.7,0,0,0.7,0.44999999999999996,0.25,1.65,10,initial,36.05,335,361,386,0,0,9,9,9,0,0,,,,,,,5,0,5,0,0,7,7,7,,,,,,,,,,,,num_3,0.7818140997551382,num_3,0.45,1,0.30000000000000004,0.9,11.46165,34.38495,return,2.063045399961993,,,,,,,,,,,,,,,,,702,21,female,up_down_width,2024-05-10_11h54.33.042,exp1,2023.1.0,60.00398423900856,
,,,,,,,,,,,,,,,,5,8.65,9.325,10,10.675,11.35,0.675,0.42500000000000004,0.25,2.95,10,match,36.05,312,336,361,385,409,9,9,9,9,9,,,,,,,5,0,5,0,0,8,8,31,,,,,,,,,,,,num_4,0.7006955998949707,num_4,0.35,0.5,0.3,0.5,11.46165,19.10275,return,1.6613120997790247,,,,,,,,,,,,,,,,,702,21,female,up_down_width,2024-05-10_11h54.33.042,exp1,2023.1.0,60.00398423900856,
