amount_p,posx1_p,posx2_p,posx3_p,posx4_p,posx5_p,center_to_center_p,edge_to_edge_p,w_p,stim_lengt_p,eccentricity_p,line1_p,line2_p,line3_p,line4_p,line5_p,amount,posx1,posx2,posx3,posx4,posx5,center_to_center,edge_to_edge,w,stim_length,eccentricity,trial_type,deg_to_pix_index,posx1_in_pix,posx2_in_pix,posx3_in_pix,posx4_in_pix,posx5_in_pix,line1,line2,line3,line4,line5,posx,setsize_cobdi,trials.thisRepN,trials.thisTrialN,trials.thisN,trials.thisIndex,blocks.thisRepN,blocks.thisTrialN,blocks.thisN,blocks.thisIndex,loop.thisRepN,loop.thisTrialN,loop.thisN,loop.thisIndex,first.thisRepN,first.thisTrialN,first.thisN,first.thisIndex,second.thisRepN,second.thisTrialN,second.thisN,second.thisIndex,key_resp_3.started,key_resp_3.keys,key_resp_3.rt,key_resp.keys,key_resp.rt,response,starting_width_deg,starting_space_deg,response_width_degree,response_spacing_degree,response_width_pixel,response_spacing_pixel,next_5.keys,next_5.rt,key_resp_4.keys,key_resp_4.rt,text_3.started,text_4.started,key_resp_2.started,text_2.started,key_resp_2.keys,key_resp_2.rt,adjusting.started,next.keys,next.rt,text_control2.started,key_resp.started,key_resp.corr,text_bye.started,text_bye.stopped,participant,age,gender,resp_group,date,expName,psychopyVersion,frameRate,
,,,,,,,,,,,,,,,,,,,,,,,,,,,,,,,,,,,,,,,,,,,,,,,,,,,,,,,,,,,,,32.16174530000001,c,139.28832599999998,,,,,,,,,,,,,,,,,,,,,,,,,,,,705,19,female,left_right_width,2024-05-17_16h07.01.705,exp1,2023.1.0,59.99858403342073,
5,8.6,9.3,10,10.7,11.4,0.7,0.29999999999999993,0.4,3.1999999999999997,10,9,9,9,9,9,,,,,,,,,,,,,,,,,,,,,,,,,,0,0,0,7,,,,,,,,,,,,,,,,,,,,num_4,4.154401199999981,num_4,0.5,1.2,0.5,1.0,19.10275,38.2055,return,11.20461619999999,,,,,,,,,,,,,,,,,705,19,female,left_right_width,2024-05-17_16h07.01.705,exp1,2023.1.0,59.99858403342073,
4,8.65,9.55,10.45,11.35,0,0.9,0.5,0.4,3.1,10,9,9,9,9,0,,,,,,,,,,,,,,,,,,,,,,,,,,0,1,1,5,,,,,,,,,,,,,,,,,,,,num_4,3.8475444999999837,num_4,0.35,0.9,0.39999999999999997,0.8,15.2822,30.5644,return,6.71120999999998,,,,,,,,,,,,,,,,,705,19,female,left_right_width,2024-05-17_16h07.01.705,exp1,2023.1.0,59.99858403342073,
3,9.5,10,10.5,0,0,0.5,0.4,0.1,1.1,10,9,9,9,0,0,,,,,,,,,,,,,,,,,,,,,,,,,,0,2,2,0,,,,,,,,,,,,,,,,,,,,num_3,4.1045017,num_3,0.5,1.2,0.10000000000000007,0.75,3.82055,28.65413,return,9.523289099999985,,,,,,,,,,,,,,,,,705,19,female,left_right_width,2024-05-17_16h07.01.705,exp1,2023.1.0,59.99858403342073,
3,9,10,11,0,0,1,0.9,0.1,2.1,10,9,9,9,0,0,,,,,,,,,,,,,,,,,,,,,,,,,,0,3,3,1,,,,,,,,,,,,,,,,,,,,num_3,2.167784200000014,num_3,0.2,0.9,0.10000000000000002,0.85,3.82055,32.47468,return,6.9883386999999715,,,,,,,,,,,,,,,,,705,19,female,left_right_width,2024-05-17_16h07.01.705,exp1,2023.1.0,59.99858403342073,
4,9.25,9.75,10.25,10.75,0,0.5,0.25,0.25,1.75,10,9,9,9,9,0,,,,,,,,,,,,,,,,,,,,,,,,,,0,4,4,4,,,,,,,,,,,,,,,,,,,,num_4,2.4473755999999725,num_4,0.35,1.2,0.3,0.6,11.46165,22.9233,return,9.448535299999989,,,,,,,,,,,,,,,,,705,19,female,left_right_width,2024-05-17_16h07.01.705,exp1,2023.1.0,59.99858403342073,
3,8.2,10,11.8,0,0,1.7999999999999998,1.4,0.4,4,10,9,9,9,0,0,,,,,,,,,,,,,,,,,,,,,,,,,,0,5,5,2,,,,,,,,,,,,,,,,,,,,num_3,3.1396165999999965,num_3,0.35,1,0.39999999999999997,1.25,15.2822,47.75688,return,11.061021200000013,,,,,,,,,,,,,,,,,705,19,female,left_right_width,2024-05-17_16h07.01.705,exp1,2023.1.0,59.99858403342073,
5,9,9.5,10,10.5,11,0.5,0.09999999999999998,0.4,2.4,10,9,9,9,9,9,,,,,,,,,,,,,,,,,,,,,,,,,,0,6,6,8,,,,,,,,,,,,,,,,,,,,num_6,2.439119400000024,num_6,0.2,0.7,0.35,0.6,13.37193,22.9233,return,14.228846100000041,,,,,,,,,,,,,,,,,705,19,female,left_right_width,2024-05-17_16h07.01.705,exp1,2023.1.0,59.99858403342073,
4,9.5,9.833333333333334,10.166666666666666,10.5,0,0.33333333333333337,0.23333333333333336,0.1,1.1,10,9,9,9,9,0,,,,,,,,,,,,,,,,,,,,,,,,,,0,7,7,3,,,,,,,,,,,,,,,,,,,,num_5,3.652091900000002,num_5,0.35,0.5,0.15000000000000002,0.35,5.73083,13.37193,return,7.953468900000004,,,,,,,,,,,,,,,,,705,19,female,left_right_width,2024-05-17_16h07.01.705,exp1,2023.1.0,59.99858403342073,
5,9.25,9.625,10,10.375,10.75,0.375,0.125,0.25,1.75,10,9,9,9,9,9,,,,,,,,,,,,,,,,,,,,,,,,,,0,8,8,6,,,,,,,,,,,,,,,,,,,,num_5,12.128194300000004,num_5,0.2,1.1,0.25,0.45,9.55138,17.19248,return,7.913359699999987,,,,,,,,,,,,,,,,,705,19,female,left_right_width,2024-05-17_16h07.01.705,exp1,2023.1.0,59.99858403342073,
,,,,,,,,,,,,,,,,,,,,,,,,,,,,,,,,,,,,,,,,,,,,,,,,,,,,,,,,,,,,,,,,,,,,,,,,,,,c,157.30196309999997,,,,,,,,,,,,,,,705,19,female,left_right_width,2024-05-17_16h07.01.705,exp1,2023.1.0,59.99858403342073,
,,,,,,,,,,,,,,,,4,8.35,9.45,10.55,11.65,0,1.1,0.7000000000000001,0.4,3.7,10,initial,36.05,301,341,380,420,0,9,9,9,9,0,,,,,,,0,0,0,0,0,0,0,21,,,,,,,,,,,,num_4,1.946958600000002,num_4,0.2,0.4,0.35,0.6,13.37193,22.9233,return,7.178513199999983,,,,,,,,,,,,,,,,,705,19,female,left_right_width,2024-05-17_16h07.01.705,exp1,2023.1.0,59.99858403342073,
,,,,,,,,,,,,,,,,4,8.825,9.608333333333333,10.391666666666667,11.175,0,0.7833333333333333,0.5333333333333333,0.25,2.6,10,match,36.05,318,346,375,403,0,9,9,9,9,0,,,,,,,0,0,0,0,0,1,1,5,,,,,,,,,,,,num_4,1.558756300000013,num_4,0.25,1.3,0.25,0.7,9.55138,26.74385,return,6.022971699999957,,,,,,,,,,,,,,,,,705,19,female,left_right_width,2024-05-17_16h07.01.705,exp1,2023.1.0,59.99858403342073,
,,,,,,,,,,,,,,,,5,8.95,9.475,10,10.525,11.05,0.525,0.125,0.4,2.5,10,match,36.05,323,342,361,379,398,9,9,9,9,9,,,,,,,0,0,0,0,0,2,2,27,,,,,,,,,,,,num_5,2.2873276999999774,num_5,0.2,0.8,0.3,0.55,11.46165,21.01303,return,7.454647399999985,,,,,,,,,,,,,,,,,705,19,female,left_right_width,2024-05-17_16h07.01.705,exp1,2023.1.0,59.99858403342073,
,,,,,,,,,,,,,,,,3,8.9,10,11.1,0,0,1.1,0.7000000000000001,0.4,2.6000000000000005,10,initial,36.05,321,361,400,0,0,9,9,9,0,0,,,,,,,0,0,0,0,0,3,3,4,,,,,,,,,,,,num_3,2.725251899999975,num_3,0.2,1.1,0.49999999999999994,0.95,19.10275,36.29523,return,9.015859599999985,,,,,,,,,,,,,,,,,705,19,female,left_right_width,2024-05-17_16h07.01.705,exp1,2023.1.0,59.99858403342073,
,,,,,,,,,,,,,,,,3,8.6,10,11.4,0,0,1.4,1.15,0.25,3.05,10,match,36.05,310,361,411,0,0,9,9,9,0,0,,,,,,,0,0,0,0,0,4,4,43,,,,,,,,,,,,num_3,3.179660300000009,num_3,0.45,0.5,0.15000000000000008,0.7,5.73083,26.74385,return,13.255391099999983,,,,,,,,,,,,,,,,,705,19,female,left_right_width,2024-05-17_16h07.01.705,exp1,2023.1.0,59.99858403342073,
,,,,,,,,,,,,,,,,4,9.1,9.7,10.3,10.9,0,0.6000000000000001,0.20000000000000004,0.4,2.2,10,match,36.05,328,350,371,393,0,9,9,9,9,0,,,,,,,0,0,0,0,0,5,5,16,,,,,,,,,,,,num_4,1.9541649000000092,num_4,0.45,1.2,0.35000000000000003,0.6,13.37193,22.9233,return,4.688506800000013,,,,,,,,,,,,,,,,,705,19,female,left_right_width,2024-05-17_16h07.01.705,exp1,2023.1.0,59.99858403342073,
,,,,,,,,,,,,,,,,5,8.65,9.325,10,10.675,11.35,0.675,0.125,0.55,3.25,10,match,36.05,312,336,361,385,409,9,9,9,9,9,,,,,,,0,0,0,0,0,6,6,29,,,,,,,,,,,,num_5,1.984414000000001,num_5,0.45,1.0,0.4,0.6,15.2822,22.9233,return,6.719430299999985,,,,,,,,,,,,,,,,,705,19,female,left_right_width,2024-05-17_16h07.01.705,exp1,2023.1.0,59.99858403342073,
,,,,,,,,,,,,,,,,4,8.65,9.55,10.45,11.35,0,0.9,0.35,0.55,3.25,10,initial,36.05,312,344,377,409,0,9,9,9,9,0,,,,,,,0,0,0,0,0,7,7,28,,,,,,,,,,,,num_4,1.6123943000001049,num_4,0.3,0.4,0.44999999999999996,0.7,17.19248,26.74385,return,7.498692699999978,,,,,,,,,,,,,,,,,705,19,female,left_right_width,2024-05-17_16h07.01.705,exp1,2023.1.0,59.99858403342073,
,,,,,,,,,,,,,,,,4,9.3,9.766666666666667,10.233333333333333,10.7,0,0.4666666666666667,0.21666666666666665,0.25,1.65,10,match,36.05,335,352,369,386,0,9,9,9,9,0,,,,,,,0,0,0,0,0,8,8,8,,,,,,,,,,,,num_4,2.007606199999927,num_4,0.25,0.9,0.25,0.6,9.55138,22.9233,return,9.078161799999961,,,,,,,,,,,,,,,,,705,19,female,left_right_width,2024-05-17_16h07.01.705,exp1,2023.1.0,59.99858403342073,
,,,,,,,,,,,,,,,,3,8.2,10,11.8,0,0,1.8,1.25,0.55,4.15,10,match,36.05,296,361,425,0,0,9,9,9,0,0,,,,,,,0,0,0,0,0,9,9,47,,,,,,,,,,,,num_3,2.32348039999998,num_3,0.5,0.9,0.45,1.05,17.19248,40.11578,return,12.78825469999991,,,,,,,,,,,,,,,,,705,19,female,left_right_width,2024-05-17_16h07.01.705,exp1,2023.1.0,59.99858403342073,
,,,,,,,,,,,,,,,,3,8.9,10,11.1,0,0,1.1,0.55,0.55,2.75,10,initial,36.05,321,361,400,0,0,9,9,9,0,0,,,,,,,0,0,0,0,0,10,10,0,,,,,,,,,,,,num_4,1.9013651000000067,num_4,0.35,0.6,0.35,0.8,13.37193,30.5644,return,10.288488100000095,,,,,,,,,,,,,,,,,705,19,female,left_right_width,2024-05-17_16h07.01.705,exp1,2023.1.0,59.99858403342073,
,,,,,,,,,,,,,,,,5,8.2,9.1,10,10.9,11.8,0.9,0.35,0.55,4.15,10,initial,36.05,296,328,361,393,425,9,9,9,9,9,,,,,,,0,0,0,0,0,11,11,46,,,,,,,,,,,,num_6,2.722802699999974,num_6,0.3,0.5,0.39999999999999997,0.6,15.2822,22.9233,return,11.713146199999969,,,,,,,,,,,,,,,,,705,19,female,left_right_width,2024-05-17_16h07.01.705,exp1,2023.1.0,59.99858403342073,
,,,,,,,,,,,,,,,,5,7.8,8.9,10,11.1,12.2,1.1,0.7000000000000001,0.4,4.800000000000001,10,initial,36.05,281,321,361,400,440,9,9,9,9,9,,,,,,,0,0,0,0,0,12,12,38,,,,,,,,,,,,num_6,3.0309976000000773,num_6,0.55,1.0,0.35000000000000003,0.7,13.37193,26.74385,return,10.248423200000033,,,,,,,,,,,,,,,,,705,19,female,left_right_width,2024-05-17_16h07.01.705,exp1,2023.1.0,59.99858403342073,
,,,,,,,,,,,,,,,,5,8.6,9.3,10,10.7,11.4,0.7,0.29999999999999993,0.4,3.1999999999999997,10,initial,36.05,310,335,361,386,411,9,9,9,9,9,,,,,,,0,0,0,0,0,13,13,44,,,,,,,,,,,,num_5,1.924837899999929,num_5,0.5,0.9,0.4,0.7,15.2822,26.74385,return,10.002675300000064,,,,,,,,,,,,,,,,,705,19,female,left_right_width,2024-05-17_16h07.01.705,exp1,2023.1.0,59.99858403342073,
,,,,,,,,,,,,,,,,3,9.3,10,10.7,0,0,0.7,0.44999999999999996,0.25,1.65,10,initial,36.05,335,361,386,0,0,9,9,9,0,0,,,,,,,0,0,0,0,0,14,14,7,,,,,,,,,,,,num_3,1.843352299999978,num_3,0.35,1,0.3,0.7,11.46165,26.74385,return,5.7191858999999425,,,,,,,,,,,,,,,,,705,19,female,left_right_width,2024-05-17_16h07.01.705,exp1,2023.1.0,59.99858403342073,
,,,,,,,,,,,,,,,,5,8.6,9.3,10,10.7,11.4,0.7,0.44999999999999996,0.25,3.05,10,initial,36.05,310,335,361,386,411,9,9,9,9,9,,,,,,,0,0,0,0,0,15,15,42,,,,,,,,,,,,num_5,2.2684917000000127,num_5,0.2,1.0,0.25,0.7,9.55138,26.74385,return,5.420410899999965,,,,,,,,,,,,,,,,,705,19,female,left_right_width,2024-05-17_16h07.01.705,exp1,2023.1.0,59.99858403342073,
,,,,,,,,,,,,,,,,3,7.800000000000001,10,12.2,0,0,2.1999999999999997,1.7999999999999998,0.4,4.8,10,match,36.05,281,361,440,0,0,9,9,9,0,0,,,,,,,0,0,0,0,0,16,16,39,,,,,,,,,,,,num_3,1.9982810000000057,num_3,0.55,0.8,0.4,1.85,15.2822,70.68018,return,16.542141099999967,,,,,,,,,,,,,,,,,705,19,female,left_right_width,2024-05-17_16h07.01.705,exp1,2023.1.0,59.99858403342073,
,,,,,,,,,,,,,,,,3,8.2,10,11.8,0,0,1.7999999999999998,1.4,0.4,4,10,match,36.05,296,361,425,0,0,9,9,9,0,0,,,,,,,0,0,0,0,0,17,17,51,,,,,,,,,,,,num_3,1.6759193999999837,num_3,0.25,1.2,0.39999999999999997,1.7,15.2822,64.94936,return,10.708209499999938,,,,,,,,,,,,,,,,,705,19,female,left_right_width,2024-05-17_16h07.01.705,exp1,2023.1.0,59.99858403342073,
,,,,,,,,,,,,,,,,3,7.8,10,12.2,0,0,2.2,1.9500000000000002,0.25,4.65,10,match,36.05,281,361,440,0,0,9,9,9,0,0,,,,,,,0,0,0,0,0,18,18,37,,,,,,,,,,,,num_3,1.6348529000000411,num_3,0.4,1.3,0.20000000000000007,1.65,7.6411,63.03908,return,10.062892900000051,,,,,,,,,,,,,,,,,705,19,female,left_right_width,2024-05-17_16h07.01.705,exp1,2023.1.0,59.99858403342073,
,,,,,,,,,,,,,,,,4,8.9,9.633333333333333,10.366666666666667,11.1,0,0.7333333333333334,0.4833333333333334,0.25,2.45,10,match,36.05,321,347,374,400,0,9,9,9,9,0,,,,,,,0,0,0,0,0,19,19,3,,,,,,,,,,,,num_4,1.770192100000017,num_4,0.25,0.8,0.2,0.9,7.6411,34.38495,return,6.3052979000000136,,,,,,,,,,,,,,,,,705,19,female,left_right_width,2024-05-17_16h07.01.705,exp1,2023.1.0,59.99858403342073,
,,,,,,,,,,,,,,,,5,8.35,9.175,10,10.825,11.65,0.8250000000000001,0.275,0.55,3.85,10,match,36.05,301,331,361,390,420,9,9,9,9,9,,,,,,,0,0,0,0,0,20,20,18,,,,,,,,,,,,num_5,1.8531907000000132,num_5,0.25,0.9,0.44999999999999996,0.65,17.19248,24.83358,return,7.416749299999978,,,,,,,,,,,,,,,,,705,19,female,left_right_width,2024-05-17_16h07.01.705,exp1,2023.1.0,59.99858403342073,
,,,,,,,,,,,,,,,,3,9.3,10,10.7,0,0,0.7,0.29999999999999993,0.4,1.8,10,initial,36.05,335,361,386,0,0,9,9,9,0,0,,,,,,,0,0,0,0,0,21,21,9,,,,,,,,,,,,num_3,2.4800643000000804,num_3,0.35,0.5,0.35,0.6,13.37193,22.9233,return,5.846353200000053,,,,,,,,,,,,,,,,,705,19,female,left_right_width,2024-05-17_16h07.01.705,exp1,2023.1.0,59.99858403342073,
,,,,,,,,,,,,,,,,3,9.1,10,10.9,0,0,0.9,0.35,0.55,2.35,10,initial,36.05,328,361,393,0,0,9,9,9,0,0,,,,,,,0,0,0,0,0,22,22,11,,,,,,,,,,,,num_3,1.6749383999999594,num_3,0.3,0.5,0.49999999999999994,0.65,19.10275,24.83358,return,4.690961999999999,,,,,,,,,,,,,,,,,705,19,female,left_right_width,2024-05-17_16h07.01.705,exp1,2023.1.0,59.99858403342073,
,,,,,,,,,,,,,,,,5,8.35,9.175,10,10.825,11.65,0.825,0.575,0.25,3.55,10,match,36.05,301,331,361,390,420,9,9,9,9,9,,,,,,,0,0,0,0,0,23,23,20,,,,,,,,,,,,num_5,1.4931016999999969,num_5,0.55,0.6,0.30000000000000004,0.7,11.46165,26.74385,return,8.083875500000076,,,,,,,,,,,,,,,,,705,19,female,left_right_width,2024-05-17_16h07.01.705,exp1,2023.1.0,59.99858403342073,
,,,,,,,,,,,,,,,,5,7.8,8.9,10,11.1,12.2,1.1,0.55,0.55,4.95,10,initial,36.05,281,321,361,400,440,9,9,9,9,9,,,,,,,0,0,0,0,0,24,24,34,,,,,,,,,,,,num_5,1.3651684999999674,num_5,0.5,1.1,0.5,0.85,19.10275,32.47468,return,7.644905900000012,,,,,,,,,,,,,,,,,705,19,female,left_right_width,2024-05-17_16h07.01.705,exp1,2023.1.0,59.99858403342073,
,,,,,,,,,,,,,,,,4,9.1,9.7,10.3,10.9,0,0.5999999999999999,0.3499999999999999,0.25,2.05,10,match,36.05,328,350,371,393,0,9,9,9,9,0,,,,,,,0,0,0,0,0,25,25,14,,,,,,,,,,,,num_4,2.6059381999999545,num_4,0.5,1.1,0.20000000000000007,0.5,7.6411,19.10275,return,7.01049840000006,,,,,,,,,,,,,,,,,705,19,female,left_right_width,2024-05-17_16h07.01.705,exp1,2023.1.0,59.99858403342073,
,,,,,,,,,,,,,,,,5,8.6,9.3,10,10.7,11.4,0.7,0.1499999999999999,0.55,3.3499999999999996,10,initial,36.05,310,335,361,386,411,9,9,9,9,9,,,,,,,0,0,0,0,0,26,26,40,,,,,,,,,,,,num_5,1.1663594999999845,num_5,0.4,1.1,0.5,0.7,19.10275,26.74385,return,9.132955799999976,,,,,,,,,,,,,,,,,705,19,female,left_right_width,2024-05-17_16h07.01.705,exp1,2023.1.0,59.99858403342073,
,,,,,,,,,,,,,,,,3,8.2,10,11.8,0,0,1.8,1.55,0.25,3.85,10,match,36.05,296,361,425,0,0,9,9,9,0,0,,,,,,,0,0,0,0,0,27,27,49,,,,,,,,,,,,num_3,1.5441552999999288,num_3,0.4,1,0.20000000000000007,1.45,7.6411,55.39798,return,9.05115970000007,,,,,,,,,,,,,,,,,705,19,female,left_right_width,2024-05-17_16h07.01.705,exp1,2023.1.0,59.99858403342073,
,,,,,,,,,,,,,,,,3,9.1,10,10.9,0,0,0.9,0.65,0.25,2.05,10,initial,36.05,328,361,393,0,0,9,9,9,0,0,,,,,,,0,0,0,0,0,28,28,13,,,,,,,,,,,,num_3,1.3195054000000113,num_3,0.45,0.6,0.25000000000000006,1.05,9.55138,40.11578,return,8.86283539999998,,,,,,,,,,,,,,,,,705,19,female,left_right_width,2024-05-17_16h07.01.705,exp1,2023.1.0,59.99858403342073,
,,,,,,,,,,,,,,,,5,8.2,9.1,10,10.9,11.8,0.9,0.65,0.25,3.85,10,initial,36.05,296,328,361,393,425,9,9,9,9,9,,,,,,,0,0,0,0,0,29,29,48,,,,,,,,,,,,num_5,1.269551700000065,num_5,0.55,1.2,0.25000000000000006,0.9,9.55138,34.38495,return,5.325482800000017,,,,,,,,,,,,,,,,,705,19,female,left_right_width,2024-05-17_16h07.01.705,exp1,2023.1.0,59.99858403342073,
,,,,,,,,,,,,,,,,4,8.65,9.55,10.45,11.35,0,0.9,0.5,0.4,3.1,10,initial,36.05,312,344,377,409,0,9,9,9,9,0,,,,,,,0,0,0,0,0,30,30,32,,,,,,,,,,,,num_4,1.0767527999999942,num_4,0.4,0.6,0.4,1.0,15.2822,38.2055,return,8.85349589999997,,,,,,,,,,,,,,,,,705,19,female,left_right_width,2024-05-17_16h07.01.705,exp1,2023.1.0,59.99858403342073,
,,,,,,,,,,,,,,,,5,8.275,9.1375,10,10.8625,11.725,0.8625,0.6125,0.25,3.7,10,match,36.05,298,329,361,392,423,9,9,9,9,9,,,,,,,0,0,0,0,0,31,31,22,,,,,,,,,,,,num_5,1.2723721999999356,num_5,0.25,0.3,0.15000000000000002,0.45,5.73083,17.19248,return,11.135189799999907,,,,,,,,,,,,,,,,,705,19,female,left_right_width,2024-05-17_16h07.01.705,exp1,2023.1.0,59.99858403342073,
,,,,,,,,,,,,,,,,5,8.2,9.1,10,10.9,11.8,0.9,0.5,0.4,4,10,initial,36.05,296,328,361,393,425,9,9,9,9,9,,,,,,,0,0,0,0,0,32,32,50,,,,,,,,,,,,num_5,1.719530699999936,num_5,0.25,1.1,0.44999999999999996,0.6,17.19248,22.9233,return,8.062746499999989,,,,,,,,,,,,,,,,,705,19,female,left_right_width,2024-05-17_16h07.01.705,exp1,2023.1.0,59.99858403342073,
,,,,,,,,,,,,,,,,5,8.95,9.475,10,10.525,11.05,0.525,0.275,0.25,2.35,10,match,36.05,323,342,361,379,398,9,9,9,9,9,,,,,,,0,0,0,0,0,33,33,25,,,,,,,,,,,,num_5,1.1712155000000024,num_5,0.55,0.7,0.45,0.65,17.19248,24.83358,return,7.756210799999948,,,,,,,,,,,,,,,,,705,19,female,left_right_width,2024-05-17_16h07.01.705,exp1,2023.1.0,59.99858403342073,
,,,,,,,,,,,,,,,,4,9.1,9.7,10.3,10.9,0,0.6,0.04999999999999997,0.55,2.35,10,match,36.05,328,350,371,393,0,9,9,9,9,0,,,,,,,0,0,0,0,0,34,34,12,,,,,,,,,,,,num_4,1.5192114000000032,num_4,0.3,0.6,0.39999999999999997,0.5,15.2822,19.10275,return,11.63432120000003,,,,,,,,,,,,,,,,,705,19,female,left_right_width,2024-05-17_16h07.01.705,exp1,2023.1.0,59.99858403342073,
,,,,,,,,,,,,,,,,4,8.35,9.45,10.55,11.65,0,1.1,0.8500000000000001,0.25,3.5500000000000003,10,initial,36.05,301,341,380,420,0,9,9,9,9,0,,,,,,,0,0,0,0,0,35,35,19,,,,,,,,,,,,num_4,1.3101281000000284,num_4,0.25,0.8,0.25,1.1,9.55138,42.02605,return,7.668353600000032,,,,,,,,,,,,,,,,,705,19,female,left_right_width,2024-05-17_16h07.01.705,exp1,2023.1.0,59.99858403342073,
,,,,,,,,,,,,,,,,3,8.9,10,11.1,0,0,1.1,0.8500000000000001,0.25,2.45,10,initial,36.05,321,361,400,0,0,9,9,9,0,0,,,,,,,0,0,0,0,0,36,36,2,,,,,,,,,,,,num_3,1.6855242000000175,num_3,0.2,0.9,0.2,0.85,7.6411,32.47468,return,8.460023299999975,,,,,,,,,,,,,,,,,705,19,female,left_right_width,2024-05-17_16h07.01.705,exp1,2023.1.0,59.99858403342073,
,,,,,,,,,,,,,,,,3,8.525,10,11.475,0,0,1.475,1.225,0.25,3.2,10,match,36.05,307,361,414,0,0,9,9,9,0,0,,,,,,,0,0,0,0,0,37,37,45,,,,,,,,,,,,num_3,1.6155076999999523,num_3,0.45,1.1,0.20000000000000007,1.0,7.6411,38.2055,return,10.695091799999986,,,,,,,,,,,,,,,,,705,19,female,left_right_width,2024-05-17_16h07.01.705,exp1,2023.1.0,59.99858403342073,
,,,,,,,,,,,,,,,,3,8.6,10,11.4,0,0,1.4,0.85,0.55,3.35,10,match,36.05,310,361,411,0,0,9,9,9,0,0,,,,,,,0,0,0,0,0,38,38,41,,,,,,,,,,,,num_3,1.276195799999968,num_3,0.25,0.6,0.49999999999999994,1.0,19.10275,38.2055,return,7.616530199999929,,,,,,,,,,,,,,,,,705,19,female,left_right_width,2024-05-17_16h07.01.705,exp1,2023.1.0,59.99858403342073,
,,,,,,,,,,,,,,,,3,9.1,10,10.9,0,0,0.9,0.5,0.4,2.2,10,initial,36.05,328,361,393,0,0,9,9,9,0,0,,,,,,,0,0,0,0,0,39,39,15,,,,,,,,,,,,num_3,1.3798011999999602,num_3,0.35,0.7,0.44999999999999996,0.75,17.19248,28.65413,return,7.686667199999974,,,,,,,,,,,,,,,,,705,19,female,left_right_width,2024-05-17_16h07.01.705,exp1,2023.1.0,59.99858403342073,
,,,,,,,,,,,,,,,,4,8.35,9.45,10.55,11.65,0,1.1,0.55,0.55,3.8500000000000005,10,initial,36.05,301,341,380,420,0,9,9,9,9,0,,,,,,,0,0,0,0,0,40,40,17,,,,,,,,,,,,num_5,1.182138199999926,num_5,0.35,1.1,0.49999999999999994,0.85,19.10275,32.47468,return,5.803408799999929,,,,,,,,,,,,,,,,,705,19,female,left_right_width,2024-05-17_16h07.01.705,exp1,2023.1.0,59.99858403342073,
,,,,,,,,,,,,,,,,5,8.65,9.325,10,10.675,11.35,0.675,0.275,0.4,3.1,10,match,36.05,312,336,361,385,409,9,9,9,9,9,,,,,,,0,0,0,0,0,41,41,33,,,,,,,,,,,,num_6,1.5034878999999677,num_6,0.25,0.3,0.25,0.5,9.55138,19.10275,return,5.2599435000000625,,,,,,,,,,,,,,,,,705,19,female,left_right_width,2024-05-17_16h07.01.705,exp1,2023.1.0,59.99858403342073,
,,,,,,,,,,,,,,,,4,8.95,9.65,10.35,11.05,0,0.7,0.44999999999999996,0.25,2.3499999999999996,10,initial,36.05,323,348,373,398,0,9,9,9,9,0,,,,,,,0,0,0,0,0,42,42,24,,,,,,,,,,,,num_4,1.3354226999999668,num_4,0.25,0.4,0.3,0.6,11.46165,22.9233,return,5.6564154,,,,,,,,,,,,,,,,,705,19,female,left_right_width,2024-05-17_16h07.01.705,exp1,2023.1.0,59.99858403342073,
,,,,,,,,,,,,,,,,5,7.8,8.9,10,11.1,12.2,1.1,0.8500000000000001,0.25,4.65,10,initial,36.05,281,321,361,400,440,9,9,9,9,9,,,,,,,0,0,0,0,0,43,43,36,,,,,,,,,,,,num_6,1.3992716000000058,num_6,0.25,0.5,0.15000000000000002,0.7,5.73083,26.74385,return,5.722361900000109,,,,,,,,,,,,,,,,,705,19,female,left_right_width,2024-05-17_16h07.01.705,exp1,2023.1.0,59.99858403342073,
,,,,,,,,,,,,,,,,4,8.95,9.65,10.35,11.05,0,0.7,0.29999999999999993,0.4,2.5,10,initial,36.05,323,348,373,398,0,9,9,9,9,0,,,,,,,0,0,0,0,0,44,44,26,,,,,,,,,,,,num_5,2.242735399999887,num_5,0.3,0.8,0.39999999999999997,0.65,15.2822,24.83358,return,6.452239100000028,,,,,,,,,,,,,,,,,705,19,female,left_right_width,2024-05-17_16h07.01.705,exp1,2023.1.0,59.99858403342073,
,,,,,,,,,,,,,,,,3,9.3,10,10.7,0,0,0.7,0.1499999999999999,0.55,1.95,10,initial,36.05,335,361,386,0,0,9,9,9,0,0,,,,,,,0,0,0,0,0,45,45,6,,,,,,,,,,,,num_2,1.2227774000000267,num_2,0.3,0.6,0.49999999999999994,0.7,19.10275,26.74385,return,10.546444199999982,,,,,,,,,,,,,,,,,705,19,female,left_right_width,2024-05-17_16h07.01.705,exp1,2023.1.0,59.99858403342073,
,,,,,,,,,,,,,,,,4,8.9,9.633333333333333,10.366666666666667,11.1,0,0.7333333333333333,0.18333333333333326,0.55,2.75,10,match,36.05,321,347,374,400,0,9,9,9,9,0,,,,,,,0,0,0,0,0,46,46,1,,,,,,,,,,,,num_3,1.9307335999999253,num_3,0.5,1,0.5,0.8,19.10275,30.5644,return,4.941312499999853,,,,,,,,,,,,,,,,,705,19,female,left_right_width,2024-05-17_16h07.01.705,exp1,2023.1.0,59.99858403342073,
,,,,,,,,,,,,,,,,4,9.3,9.766666666666667,10.233333333333333,10.7,0,0.4666666666666667,0.06666666666666665,0.4,1.8,10,match,36.05,335,352,369,386,0,9,9,9,9,0,,,,,,,0,0,0,0,0,47,47,10,,,,,,,,,,,,num_4,1.0492725000001286,num_4,0.4,1.2,0.4,0.5,15.2822,19.10275,return,5.052497200000161,,,,,,,,,,,,,,,,,705,19,female,left_right_width,2024-05-17_16h07.01.705,exp1,2023.1.0,59.99858403342073,
,,,,,,,,,,,,,,,,4,8.95,9.65,10.35,11.05,0,0.7,0.1499999999999999,0.55,2.65,10,initial,36.05,323,348,373,398,0,9,9,9,9,0,,,,,,,0,0,0,0,0,48,48,23,,,,,,,,,,,,num_5,1.3015818999998459,num_5,0.45,0.9,0.45,0.6,17.19248,22.9233,return,4.156049699999912,,,,,,,,,,,,,,,,,705,19,female,left_right_width,2024-05-17_16h07.01.705,exp1,2023.1.0,59.99858403342073,
,,,,,,,,,,,,,,,,5,8.65,9.325,10,10.675,11.35,0.675,0.42500000000000004,0.25,2.95,10,match,36.05,312,336,361,385,409,9,9,9,9,9,,,,,,,0,0,0,0,0,49,49,31,,,,,,,,,,,,num_6,1.382975900000119,num_6,0.55,0.7,0.30000000000000004,0.5,11.46165,19.10275,return,7.726736900000205,,,,,,,,,,,,,,,,,705,19,female,left_right_width,2024-05-17_16h07.01.705,exp1,2023.1.0,59.99858403342073,
,,,,,,,,,,,,,,,,4,8.65,9.55,10.45,11.35,0,0.9,0.65,0.25,2.95,10,initial,36.05,312,344,377,409,0,9,9,9,9,0,,,,,,,0,0,0,0,0,50,50,30,,,,,,,,,,,,num_4,1.2986494000000306,num_4,0.35,0.5,0.25,0.7,9.55138,26.74385,return,10.618544300000039,,,,,,,,,,,,,,,,,705,19,female,left_right_width,2024-05-17_16h07.01.705,exp1,2023.1.0,59.99858403342073,
,,,,,,,,,,,,,,,,3,7.8,10,12.2,0,0,2.2,1.65,0.55,4.95,10,match,36.05,281,361,440,0,0,9,9,9,0,0,,,,,,,0,0,0,0,0,51,51,35,,,,,,,,,,,,num_3,1.3894658000000248,num_3,0.4,1.1,0.45,2.2,17.19248,84.05211,return,11.152398699999921,,,,,,,,,,,,,,,,,705,19,female,left_right_width,2024-05-17_16h07.01.705,exp1,2023.1.0,59.99858403342073,
,,,,,,,,,,,,,,,,,,,,,,,,,,,,,,,,,,,,,,,,,,,,,0,0,0,0,,,,,,,,,,,,,,,,,,,,,,,,,,,,,1074.6134942,1074.6134942,1074.6134942,,,,,,,,,,,,705,19,female,left_right_width,2024-05-17_16h07.01.705,exp1,2023.1.0,59.99858403342073,
,,,,,,,,,,,,,,,,3,8.525,10,11.475,0,0,1.475,1.225,0.25,3.2,10,match,36.05,307,361,414,0,0,9,9,9,0,0,,,,,,,1,0,1,0,0,0,0,45,,,,,,,,,,,,num_3,1.343094199999868,num_3,0.3,0.6,0.15000000000000002,0.9,5.73083,34.38495,return,4.1158271999998846,,,,,,,,,,,,,,,,,705,19,female,left_right_width,2024-05-17_16h07.01.705,exp1,2023.1.0,59.99858403342073,
,,,,,,,,,,,,,,,,4,8.65,9.55,10.45,11.35,0,0.9,0.35,0.55,3.25,10,initial,36.05,312,344,377,409,0,9,9,9,9,0,,,,,,,1,0,1,0,0,1,1,28,,,,,,,,,,,,num_4,1.22673769999993,num_4,0.55,0.6,0.55,0.9,21.01303,34.38495,return,3.4141292999998853,,,,,,,,,,,,,,,,,705,19,female,left_right_width,2024-05-17_16h07.01.705,exp1,2023.1.0,59.99858403342073,
,,,,,,,,,,,,,,,,3,9.1,10,10.9,0,0,0.9,0.35,0.55,2.35,10,initial,36.05,328,361,393,0,0,9,9,9,0,0,,,,,,,1,0,1,0,0,2,2,11,,,,,,,,,,,,num_3,1.2860434000000254,num_3,0.55,0.8,0.6000000000000001,0.75,22.9233,28.65413,return,3.618438799999794,,,,,,,,,,,,,,,,,705,19,female,left_right_width,2024-05-17_16h07.01.705,exp1,2023.1.0,59.99858403342073,
,,,,,,,,,,,,,,,,5,8.2,9.1,10,10.9,11.8,0.9,0.5,0.4,4,10,initial,36.05,296,328,361,393,425,9,9,9,9,9,,,,,,,1,0,1,0,0,3,3,50,,,,,,,,,,,,num_4,1.2409315000000873,num_4,0.35,1.0,0.6,0.9,22.9233,34.38495,return,3.846856299999999,,,,,,,,,,,,,,,,,705,19,female,left_right_width,2024-05-17_16h07.01.705,exp1,2023.1.0,59.99858403342073,
,,,,,,,,,,,,,,,,3,8.2,10,11.8,0,0,1.8,1.25,0.55,4.15,10,match,36.05,296,361,425,0,0,9,9,9,0,0,,,,,,,1,0,1,0,0,4,4,47,,,,,,,,,,,,num_3,1.2904397999999304,num_3,0.45,1.1,0.6500000000000001,1.35,24.83358,51.57743,return,6.707389499999962,,,,,,,,,,,,,,,,,705,19,female,left_right_width,2024-05-17_16h07.01.705,exp1,2023.1.0,59.99858403342073,
,,,,,,,,,,,,,,,,4,8.9,9.633333333333333,10.366666666666667,11.1,0,0.7333333333333333,0.18333333333333326,0.55,2.75,10,match,36.05,321,347,374,400,0,9,9,9,9,0,,,,,,,1,0,1,0,0,5,5,1,,,,,,,,,,,,num_4,1.0727893000001671,num_4,0.5,0.8,0.6000000000000001,0.8,22.9233,30.5644,return,6.5633635999998745,,,,,,,,,,,,,,,,,705,19,female,left_right_width,2024-05-17_16h07.01.705,exp1,2023.1.0,59.99858403342073,
,,,,,,,,,,,,,,,,4,8.95,9.65,10.35,11.05,0,0.7,0.29999999999999993,0.4,2.5,10,initial,36.05,323,348,373,398,0,9,9,9,9,0,,,,,,,1,0,1,0,0,6,6,26,,,,,,,,,,,,num_4,3.2858339999998947,num_4,0.3,1.2,0.49999999999999994,0.7,19.10275,26.74385,return,6.0916918000001345,,,,,,,,,,,,,,,,,705,19,female,left_right_width,2024-05-17_16h07.01.705,exp1,2023.1.0,59.99858403342073,
,,,,,,,,,,,,,,,,5,8.65,9.325,10,10.675,11.35,0.675,0.275,0.4,3.1,10,match,36.05,312,336,361,385,409,9,9,9,9,9,,,,,,,1,0,1,0,0,7,7,33,,,,,,,,,,,,num_6,1.3436956000001459,num_6,0.2,1.3,0.3,0.5,11.46165,19.10275,return,4.312018899999757,,,,,,,,,,,,,,,,,705,19,female,left_right_width,2024-05-17_16h07.01.705,exp1,2023.1.0,59.99858403342073,
,,,,,,,,,,,,,,,,4,8.35,9.45,10.55,11.65,0,1.1,0.7000000000000001,0.4,3.7,10,initial,36.05,301,341,380,420,0,9,9,9,9,0,,,,,,,1,0,1,0,0,8,8,21,,,,,,,,,,,,num_4,0.9492587999999245,num_4,0.45,0.9,0.5,1.2,19.10275,45.8466,return,5.610733400000171,,,,,,,,,,,,,,,,,705,19,female,left_right_width,2024-05-17_16h07.01.705,exp1,2023.1.0,59.99858403342073,
,,,,,,,,,,,,,,,,4,9.3,9.766666666666667,10.233333333333333,10.7,0,0.4666666666666667,0.06666666666666665,0.4,1.8,10,match,36.05,335,352,369,386,0,9,9,9,9,0,,,,,,,1,0,1,0,0,9,9,10,,,,,,,,,,,,num_4,1.3014547999997461,num_4,0.55,0.8,0.45,0.6,17.19248,22.9233,return,6.271492500000122,,,,,,,,,,,,,,,,,705,19,female,left_right_width,2024-05-17_16h07.01.705,exp1,2023.1.0,59.99858403342073,
,,,,,,,,,,,,,,,,5,8.35,9.175,10,10.825,11.65,0.825,0.575,0.25,3.55,10,match,36.05,301,331,361,390,420,9,9,9,9,9,,,,,,,1,0,1,0,0,10,10,20,,,,,,,,,,,,num_6,1.082841499999958,num_6,0.55,0.9,0.25000000000000006,0.6,9.55138,22.9233,return,4.633608700000067,,,,,,,,,,,,,,,,,705,19,female,left_right_width,2024-05-17_16h07.01.705,exp1,2023.1.0,59.99858403342073,
,,,,,,,,,,,,,,,,5,8.2,9.1,10,10.9,11.8,0.9,0.65,0.25,3.85,10,initial,36.05,296,328,361,393,425,9,9,9,9,9,,,,,,,1,0,1,0,0,11,11,48,,,,,,,,,,,,num_6,1.0846377999999817,num_6,0.3,0.4,0.2,0.6,7.6411,22.9233,return,4.497280399999781,,,,,,,,,,,,,,,,,705,19,female,left_right_width,2024-05-17_16h07.01.705,exp1,2023.1.0,59.99858403342073,
,,,,,,,,,,,,,,,,4,8.65,9.55,10.45,11.35,0,0.9,0.65,0.25,2.95,10,initial,36.05,312,344,377,409,0,9,9,9,9,0,,,,,,,1,0,1,0,0,12,12,30,,,,,,,,,,,,num_4,0.9218947000002657,num_4,0.3,0.6,0.15000000000000002,0.8,5.73083,30.5644,return,6.722954999999828,,,,,,,,,,,,,,,,,705,19,female,left_right_width,2024-05-17_16h07.01.705,exp1,2023.1.0,59.99858403342073,
,,,,,,,,,,,,,,,,4,8.35,9.45,10.55,11.65,0,1.1,0.55,0.55,3.8500000000000005,10,initial,36.05,301,341,380,420,0,9,9,9,9,0,,,,,,,1,0,1,0,0,13,13,17,,,,,,,,,,,,num_4,1.0880734999999362,num_4,0.45,0.8,0.5,1.1,19.10275,42.02605,return,5.29401689999996,,,,,,,,,,,,,,,,,705,19,female,left_right_width,2024-05-17_16h07.01.705,exp1,2023.1.0,59.99858403342073,
,,,,,,,,,,,,,,,,4,8.95,9.65,10.35,11.05,0,0.7,0.44999999999999996,0.25,2.3499999999999996,10,initial,36.05,323,348,373,398,0,9,9,9,9,0,,,,,,,1,0,1,0,0,14,14,24,,,,,,,,,,,,num_4,0.9035179000000966,num_4,0.4,0.5,0.20000000000000007,0.6,7.6411,22.9233,return,3.759713099999871,,,,,,,,,,,,,,,,,705,19,female,left_right_width,2024-05-17_16h07.01.705,exp1,2023.1.0,59.99858403342073,
,,,,,,,,,,,,,,,,5,8.6,9.3,10,10.7,11.4,0.7,0.29999999999999993,0.4,3.1999999999999997,10,initial,36.05,310,335,361,386,411,9,9,9,9,9,,,,,,,1,0,1,0,0,15,15,44,,,,,,,,,,,,num_6,1.042951900000034,num_6,0.25,0.4,0.35,0.6,13.37193,22.9233,return,3.817032300000264,,,,,,,,,,,,,,,,,705,19,female,left_right_width,2024-05-17_16h07.01.705,exp1,2023.1.0,59.99858403342073,
,,,,,,,,,,,,,,,,5,8.95,9.475,10,10.525,11.05,0.525,0.125,0.4,2.5,10,match,36.05,323,342,361,379,398,9,9,9,9,9,,,,,,,1,0,1,0,0,16,16,27,,,,,,,,,,,,num_5,1.0100618000000026,num_5,0.25,0.7,0.35,0.55,13.37193,21.01303,return,4.840558199999904,,,,,,,,,,,,,,,,,705,19,female,left_right_width,2024-05-17_16h07.01.705,exp1,2023.1.0,59.99858403342073,
,,,,,,,,,,,,,,,,5,7.8,8.9,10,11.1,12.2,1.1,0.55,0.55,4.95,10,initial,36.05,281,321,361,400,440,9,9,9,9,9,,,,,,,1,0,1,0,0,17,17,34,,,,,,,,,,,,num_5,1.030892600000115,num_5,0.2,0.3,0.44999999999999996,0.65,17.19248,24.83358,return,6.030286499999747,,,,,,,,,,,,,,,,,705,19,female,left_right_width,2024-05-17_16h07.01.705,exp1,2023.1.0,59.99858403342073,
,,,,,,,,,,,,,,,,4,8.825,9.608333333333333,10.391666666666667,11.175,0,0.7833333333333333,0.5333333333333333,0.25,2.6,10,match,36.05,318,346,375,403,0,9,9,9,9,0,,,,,,,1,0,1,0,0,18,18,5,,,,,,,,,,,,num_3,1.6677911999998827,num_3,0.3,0.6,0.25,0.8,9.55138,30.5644,return,5.640772599999863,,,,,,,,,,,,,,,,,705,19,female,left_right_width,2024-05-17_16h07.01.705,exp1,2023.1.0,59.99858403342073,
,,,,,,,,,,,,,,,,3,8.9,10,11.1,0,0,1.1,0.55,0.55,2.75,10,initial,36.05,321,361,400,0,0,9,9,9,0,0,,,,,,,1,0,1,0,0,19,19,0,,,,,,,,,,,,num_3,1.184220599999989,num_3,0.55,0.6,0.55,1.05,21.01303,40.11578,return,4.911718299999947,,,,,,,,,,,,,,,,,705,19,female,left_right_width,2024-05-17_16h07.01.705,exp1,2023.1.0,59.99858403342073,
,,,,,,,,,,,,,,,,5,8.35,9.175,10,10.825,11.65,0.8250000000000001,0.275,0.55,3.85,10,match,36.05,301,331,361,390,420,9,9,9,9,9,,,,,,,1,0,1,0,0,20,20,18,,,,,,,,,,,,num_4,1.4434323999999918,num_4,0.25,1.0,0.5499999999999999,0.8,21.01303,30.5644,return,8.20125700000004,,,,,,,,,,,,,,,,,705,19,female,left_right_width,2024-05-17_16h07.01.705,exp1,2023.1.0,59.99858403342073,
,,,,,,,,,,,,,,,,5,7.8,8.9,10,11.1,12.2,1.1,0.8500000000000001,0.25,4.65,10,initial,36.05,281,321,361,400,440,9,9,9,9,9,,,,,,,1,0,1,0,0,21,21,36,,,,,,,,,,,,num_6,1.0376032000000208,num_6,0.35,1.0,0.25,0.9,9.55138,34.38495,return,3.902327800000066,,,,,,,,,,,,,,,,,705,19,female,left_right_width,2024-05-17_16h07.01.705,exp1,2023.1.0,59.99858403342073,
,,,,,,,,,,,,,,,,3,8.9,10,11.1,0,0,1.1,0.8500000000000001,0.25,2.45,10,initial,36.05,321,361,400,0,0,9,9,9,0,0,,,,,,,1,0,1,0,0,22,22,2,,,,,,,,,,,,num_3,1.3040624999997448,num_3,0.45,1.2,0.30000000000000004,1.0,11.46165,38.2055,return,8.123906100000212,,,,,,,,,,,,,,,,,705,19,female,left_right_width,2024-05-17_16h07.01.705,exp1,2023.1.0,59.99858403342073,
,,,,,,,,,,,,,,,,5,8.6,9.3,10,10.7,11.4,0.7,0.44999999999999996,0.25,3.05,10,initial,36.05,310,335,361,386,411,9,9,9,9,9,,,,,,,1,0,1,0,0,23,23,42,,,,,,,,,,,,num_5,1.1019469999999814,num_5,0.4,0.9,0.25000000000000006,0.7,9.55138,26.74385,return,5.9612482000000995,,,,,,,,,,,,,,,,,705,19,female,left_right_width,2024-05-17_16h07.01.705,exp1,2023.1.0,59.99858403342073,
,,,,,,,,,,,,,,,,5,8.65,9.325,10,10.675,11.35,0.675,0.42500000000000004,0.25,2.95,10,match,36.05,312,336,361,385,409,9,9,9,9,9,,,,,,,1,0,1,0,0,24,24,31,,,,,,,,,,,,num_6,1.1368738999998271,num_6,0.5,0.6,0.30000000000000004,0.6,11.46165,22.9233,return,7.745139700000081,,,,,,,,,,,,,,,,,705,19,female,left_right_width,2024-05-17_16h07.01.705,exp1,2023.1.0,59.99858403342073,
,,,,,,,,,,,,,,,,4,8.65,9.55,10.45,11.35,0,0.9,0.5,0.4,3.1,10,initial,36.05,312,344,377,409,0,9,9,9,9,0,,,,,,,1,0,1,0,0,25,25,32,,,,,,,,,,,,num_5,0.9306730999997939,num_5,0.45,0.7,0.45,0.65,17.19248,24.83358,return,2.2172552999999056,,,,,,,,,,,,,,,,,705,19,female,left_right_width,2024-05-17_16h07.01.705,exp1,2023.1.0,59.99858403342073,
,,,,,,,,,,,,,,,,3,7.800000000000001,10,12.2,0,0,2.1999999999999997,1.7999999999999998,0.4,4.8,10,match,36.05,281,361,440,0,0,9,9,9,0,0,,,,,,,1,0,1,0,0,26,26,39,,,,,,,,,,,,num_3,1.1590836999999823,num_3,0.4,0.7,0.45,1.35,17.19248,51.57743,return,7.124861600000131,,,,,,,,,,,,,,,,,705,19,female,left_right_width,2024-05-17_16h07.01.705,exp1,2023.1.0,59.99858403342073,
,,,,,,,,,,,,,,,,4,9.1,9.7,10.3,10.9,0,0.6000000000000001,0.20000000000000004,0.4,2.2,10,match,36.05,328,350,371,393,0,9,9,9,9,0,,,,,,,1,0,1,0,0,27,27,16,,,,,,,,,,,,num_3,1.203505100000129,num_3,0.25,0.5,0.39999999999999997,0.55,15.2822,21.01303,return,5.6164466999997416,,,,,,,,,,,,,,,,,705,19,female,left_right_width,2024-05-17_16h07.01.705,exp1,2023.1.0,59.99858403342073,
,,,,,,,,,,,,,,,,4,8.9,9.633333333333333,10.366666666666667,11.1,0,0.7333333333333334,0.4833333333333334,0.25,2.45,10,match,36.05,321,347,374,400,0,9,9,9,9,0,,,,,,,1,0,1,0,0,28,28,3,,,,,,,,,,,,num_3,1.2684331000001379,num_3,0.35,0.9,0.3,0.95,11.46165,36.29523,return,6.272681599999814,,,,,,,,,,,,,,,,,705,19,female,left_right_width,2024-05-17_16h07.01.705,exp1,2023.1.0,59.99858403342073,
,,,,,,,,,,,,,,,,5,8.65,9.325,10,10.675,11.35,0.675,0.125,0.55,3.25,10,match,36.05,312,336,361,385,409,9,9,9,9,9,,,,,,,1,0,1,0,0,29,29,29,,,,,,,,,,,,num_5,1.1436173999999113,num_5,0.25,0.3,0.44999999999999996,0.55,17.19248,21.01303,return,5.412300100000138,,,,,,,,,,,,,,,,,705,19,female,left_right_width,2024-05-17_16h07.01.705,exp1,2023.1.0,59.99858403342073,
,,,,,,,,,,,,,,,,5,8.275,9.1375,10,10.8625,11.725,0.8625,0.6125,0.25,3.7,10,match,36.05,298,329,361,392,423,9,9,9,9,9,,,,,,,1,0,1,0,0,30,30,22,,,,,,,,,,,,num_6,1.281158700000205,num_6,0.2,0.3,0.2,0.6,7.6411,22.9233,return,3.7360113000000723,,,,,,,,,,,,,,,,,705,19,female,left_right_width,2024-05-17_16h07.01.705,exp1,2023.1.0,59.99858403342073,
,,,,,,,,,,,,,,,,3,7.8,10,12.2,0,0,2.2,1.9500000000000002,0.25,4.65,10,match,36.05,281,361,440,0,0,9,9,9,0,0,,,,,,,1,0,1,0,0,31,31,37,,,,,,,,,,,,num_3,1.1761582999998694,num_3,0.3,1.2,0.25,2.0,9.55138,76.41101,return,9.45887239999989,,,,,,,,,,,,,,,,,705,19,female,left_right_width,2024-05-17_16h07.01.705,exp1,2023.1.0,59.99858403342073,
,,,,,,,,,,,,,,,,4,9.1,9.7,10.3,10.9,0,0.6,0.04999999999999997,0.55,2.35,10,match,36.05,328,350,371,393,0,9,9,9,9,0,,,,,,,1,0,1,0,0,32,32,12,,,,,,,,,,,,num_4,1.1404504999996874,num_4,0.55,1.2,0.5,0.6,19.10275,22.9233,return,5.134208700000144,,,,,,,,,,,,,,,,,705,19,female,left_right_width,2024-05-17_16h07.01.705,exp1,2023.1.0,59.99858403342073,
,,,,,,,,,,,,,,,,4,8.95,9.65,10.35,11.05,0,0.7,0.1499999999999999,0.55,2.65,10,initial,36.05,323,348,373,398,0,9,9,9,9,0,,,,,,,1,0,1,0,0,33,33,23,,,,,,,,,,,,num_4,1.3658344999997638,num_4,0.4,1.2,0.5,0.6,19.10275,22.9233,return,4.601734499999893,,,,,,,,,,,,,,,,,705,19,female,left_right_width,2024-05-17_16h07.01.705,exp1,2023.1.0,59.99858403342073,
,,,,,,,,,,,,,,,,4,9.3,9.766666666666667,10.233333333333333,10.7,0,0.4666666666666667,0.21666666666666665,0.25,1.65,10,match,36.05,335,352,369,386,0,9,9,9,9,0,,,,,,,1,0,1,0,0,34,34,8,,,,,,,,,,,,num_4,1.2027244000001787,num_4,0.35,0.5,0.39999999999999997,0.5,15.2822,19.10275,return,2.3687344999999453,,,,,,,,,,,,,,,,,705,19,female,left_right_width,2024-05-17_16h07.01.705,exp1,2023.1.0,59.99858403342073,
,,,,,,,,,,,,,,,,5,8.6,9.3,10,10.7,11.4,0.7,0.1499999999999999,0.55,3.3499999999999996,10,initial,36.05,310,335,361,386,411,9,9,9,9,9,,,,,,,1,0,1,0,0,35,35,40,,,,,,,,,,,,num_5,0.9700487999997307,num_5,0.45,1.1,0.55,0.7,21.01303,26.74385,return,4.8014179000000325,,,,,,,,,,,,,,,,,705,19,female,left_right_width,2024-05-17_16h07.01.705,exp1,2023.1.0,59.99858403342073,
,,,,,,,,,,,,,,,,3,9.1,10,10.9,0,0,0.9,0.65,0.25,2.05,10,initial,36.05,328,361,393,0,0,9,9,9,0,0,,,,,,,1,0,1,0,0,36,36,13,,,,,,,,,,,,num_3,1.3396553000001035,num_3,0.4,1.2,0.25000000000000006,1.2,9.55138,45.8466,return,2.46545130000014,,,,,,,,,,,,,,,,,705,19,female,left_right_width,2024-05-17_16h07.01.705,exp1,2023.1.0,59.99858403342073,
,,,,,,,,,,,,,,,,3,8.6,10,11.4,0,0,1.4,0.85,0.55,3.35,10,match,36.05,310,361,411,0,0,9,9,9,0,0,,,,,,,1,0,1,0,0,37,37,41,,,,,,,,,,,,num_3,1.0995394000000118,num_3,0.35,0.5,0.6,0.8,22.9233,30.5644,return,6.136463300000159,,,,,,,,,,,,,,,,,705,19,female,left_right_width,2024-05-17_16h07.01.705,exp1,2023.1.0,59.99858403342073,
,,,,,,,,,,,,,,,,5,8.95,9.475,10,10.525,11.05,0.525,0.275,0.25,2.35,10,match,36.05,323,342,361,379,398,9,9,9,9,9,,,,,,,1,0,1,0,0,38,38,25,,,,,,,,,,,,num_5,1.0657979000001063,num_5,0.5,0.9,0.30000000000000004,0.55,11.46165,21.01303,return,8.35095770000008,,,,,,,,,,,,,,,,,705,19,female,left_right_width,2024-05-17_16h07.01.705,exp1,2023.1.0,59.99858403342073,
,,,,,,,,,,,,,,,,5,7.8,8.9,10,11.1,12.2,1.1,0.7000000000000001,0.4,4.800000000000001,10,initial,36.05,281,321,361,400,440,9,9,9,9,9,,,,,,,1,0,1,0,0,39,39,38,,,,,,,,,,,,num_6,1.0494120000001743,num_6,0.5,0.7,0.35000000000000003,0.7,13.37193,26.74385,return,3.2557519999996742,,,,,,,,,,,,,,,,,705,19,female,left_right_width,2024-05-17_16h07.01.705,exp1,2023.1.0,59.99858403342073,
,,,,,,,,,,,,,,,,3,9.3,10,10.7,0,0,0.7,0.29999999999999993,0.4,1.8,10,initial,36.05,335,361,386,0,0,9,9,9,0,0,,,,,,,1,0,1,0,0,40,40,9,,,,,,,,,,,,num_3,1.1292233999998729,num_3,0.25,0.8,0.35,0.65,13.37193,24.83358,return,12.001369899999972,,,,,,,,,,,,,,,,,705,19,female,left_right_width,2024-05-17_16h07.01.705,exp1,2023.1.0,59.99858403342073,
,,,,,,,,,,,,,,,,3,8.2,10,11.8,0,0,1.8,1.55,0.25,3.85,10,match,36.05,296,361,425,0,0,9,9,9,0,0,,,,,,,1,0,1,0,0,41,41,49,,,,,,,,,,,,num_3,1.1588626000001199,num_3,0.25,1,0.25,1.7,9.55138,64.94936,return,7.92150730000013,,,,,,,,,,,,,,,,,705,19,female,left_right_width,2024-05-17_16h07.01.705,exp1,2023.1.0,59.99858403342073,
,,,,,,,,,,,,,,,,4,8.35,9.45,10.55,11.65,0,1.1,0.8500000000000001,0.25,3.5500000000000003,10,initial,36.05,301,341,380,420,0,9,9,9,9,0,,,,,,,1,0,1,0,0,42,42,19,,,,,,,,,,,,num_4,1.1060214999998692,num_4,0.5,0.9,0.30000000000000004,1.2,11.46165,45.8466,return,4.0981358999998605,,,,,,,,,,,,,,,,,705,19,female,left_right_width,2024-05-17_16h07.01.705,exp1,2023.1.0,59.99858403342073,
,,,,,,,,,,,,,,,,5,8.2,9.1,10,10.9,11.8,0.9,0.35,0.55,4.15,10,initial,36.05,296,328,361,393,425,9,9,9,9,9,,,,,,,1,0,1,0,0,43,43,46,,,,,,,,,,,,num_4,0.948105799999766,num_4,0.3,0.6,0.6,1.0,22.9233,38.2055,return,5.437687399999831,,,,,,,,,,,,,,,,,705,19,female,left_right_width,2024-05-17_16h07.01.705,exp1,2023.1.0,59.99858403342073,
,,,,,,,,,,,,,,,,3,9.3,10,10.7,0,0,0.7,0.44999999999999996,0.25,1.65,10,initial,36.05,335,361,386,0,0,9,9,9,0,0,,,,,,,1,0,1,0,0,44,44,7,,,,,,,,,,,,num_3,1.3487778999998312,num_3,0.4,0.6,0.30000000000000004,0.65,11.46165,24.83358,return,3.592995000000073,,,,,,,,,,,,,,,,,705,19,female,left_right_width,2024-05-17_16h07.01.705,exp1,2023.1.0,59.99858403342073,
,,,,,,,,,,,,,,,,4,9.1,9.7,10.3,10.9,0,0.5999999999999999,0.3499999999999999,0.25,2.05,10,match,36.05,328,350,371,393,0,9,9,9,9,0,,,,,,,1,0,1,0,0,45,45,14,,,,,,,,,,,,num_4,0.9291594000002164,num_4,0.3,1.3,0.3,0.6,11.46165,22.9233,return,4.042559699999956,,,,,,,,,,,,,,,,,705,19,female,left_right_width,2024-05-17_16h07.01.705,exp1,2023.1.0,59.99858403342073,
,,,,,,,,,,,,,,,,3,8.9,10,11.1,0,0,1.1,0.7000000000000001,0.4,2.6000000000000005,10,initial,36.05,321,361,400,0,0,9,9,9,0,0,,,,,,,1,0,1,0,0,46,46,4,,,,,,,,,,,,num_3,1.305559399999865,num_3,0.45,0.8,0.45,0.8,17.19248,30.5644,return,3.0601484999998405,,,,,,,,,,,,,,,,,705,19,female,left_right_width,2024-05-17_16h07.01.705,exp1,2023.1.0,59.99858403342073,
,,,,,,,,,,,,,,,,3,7.8,10,12.2,0,0,2.2,1.65,0.55,4.95,10,match,36.05,281,361,440,0,0,9,9,9,0,0,,,,,,,1,0,1,0,0,47,47,35,,,,,,,,,,,,num_3,1.3722381999999556,num_3,0.35,1.2,0.6,1.55,22.9233,59.21853,return,6.963985200000124,,,,,,,,,,,,,,,,,705,19,female,left_right_width,2024-05-17_16h07.01.705,exp1,2023.1.0,59.99858403342073,
,,,,,,,,,,,,,,,,3,8.6,10,11.4,0,0,1.4,1.15,0.25,3.05,10,match,36.05,310,361,411,0,0,9,9,9,0,0,,,,,,,1,0,1,0,0,48,48,43,,,,,,,,,,,,num_3,1.0707017000000718,num_3,0.2,0.4,0.2,1.3,7.6411,49.66716,return,8.1094736000001,,,,,,,,,,,,,,,,,705,19,female,left_right_width,2024-05-17_16h07.01.705,exp1,2023.1.0,59.99858403342073,
,,,,,,,,,,,,,,,,3,9.1,10,10.9,0,0,0.9,0.5,0.4,2.2,10,initial,36.05,328,361,393,0,0,9,9,9,0,0,,,,,,,1,0,1,0,0,49,49,15,,,,,,,,,,,,num_3,1.0519709999997389,num_3,0.55,1,0.45,1.2,17.19248,45.8466,return,3.1575373000001576,,,,,,,,,,,,,,,,,705,19,female,left_right_width,2024-05-17_16h07.01.705,exp1,2023.1.0,59.99858403342073,
,,,,,,,,,,,,,,,,3,8.2,10,11.8,0,0,1.7999999999999998,1.4,0.4,4,10,match,36.05,296,361,425,0,0,9,9,9,0,0,,,,,,,1,0,1,0,0,50,50,51,,,,,,,,,,,,num_3,1.0512047000000706,num_3,0.5,1.3,0.45,1.7,17.19248,64.94936,return,7.003905000000131,,,,,,,,,,,,,,,,,705,19,female,left_right_width,2024-05-17_16h07.01.705,exp1,2023.1.0,59.99858403342073,
,,,,,,,,,,,,,,,,3,9.3,10,10.7,0,0,0.7,0.1499999999999999,0.55,1.95,10,initial,36.05,335,361,386,0,0,9,9,9,0,0,,,,,,,1,0,1,0,0,51,51,6,,,,,,,,,,,,num_3,1.216264799999962,num_3,0.35,0.7,0.6,0.7,22.9233,26.74385,return,3.17610640000008,,,,,,,,,,,,,,,,,705,19,female,left_right_width,2024-05-17_16h07.01.705,exp1,2023.1.0,59.99858403342073,
,,,,,,,,,,,,,,,,,,,,,,,,,,,,,,,,,,,,,,,,,,,,,1,0,1,0,,,,,,,,,,,,,,,,,,,,,,,,,,,,,1522.7970770000002,1522.7970770000002,1522.7970770000002,,,,,,,,,,,,705,19,female,left_right_width,2024-05-17_16h07.01.705,exp1,2023.1.0,59.99858403342073,
,,,,,,,,,,,,,,,,5,8.65,9.325,10,10.675,11.35,0.675,0.275,0.4,3.1,10,match,36.05,312,336,361,385,409,9,9,9,9,9,,,,,,,2,0,2,0,0,0,0,33,,,,,,,,,,,,num_4,0.9926758999998668,num_4,0.35,0.4,0.35,0.8,13.37193,30.5644,return,3.284034000000119,,,,,,,,,,,,,,,,,705,19,female,left_right_width,2024-05-17_16h07.01.705,exp1,2023.1.0,59.99858403342073,
,,,,,,,,,,,,,,,,4,9.1,9.7,10.3,10.9,0,0.6000000000000001,0.20000000000000004,0.4,2.2,10,match,36.05,328,350,371,393,0,9,9,9,9,0,,,,,,,2,0,2,0,0,1,1,16,,,,,,,,,,,,num_4,1.447220199999819,num_4,0.25,1.3,0.35,0.6,13.37193,22.9233,return,5.269966199999871,,,,,,,,,,,,,,,,,705,19,female,left_right_width,2024-05-17_16h07.01.705,exp1,2023.1.0,59.99858403342073,
,,,,,,,,,,,,,,,,3,9.1,10,10.9,0,0,0.9,0.35,0.55,2.35,10,initial,36.05,328,361,393,0,0,9,9,9,0,0,,,,,,,2,0,2,0,0,2,2,11,,,,,,,,,,,,num_2,1.5326312000000684,num_2,0.3,0.4,0.7000000000000001,1.0,26.74385,38.2055,return,5.164189299999961,,,,,,,,,,,,,,,,,705,19,female,left_right_width,2024-05-17_16h07.01.705,exp1,2023.1.0,59.99858403342073,
,,,,,,,,,,,,,,,,3,9.3,10,10.7,0,0,0.7,0.1499999999999999,0.55,1.95,10,initial,36.05,335,361,386,0,0,9,9,9,0,0,,,,,,,2,0,2,0,0,3,3,6,,,,,,,,,,,,num_2,0.8660221999999607,num_2,0.35,0.4,0.7000000000000001,0.9,26.74385,34.38495,return,5.978577299999742,,,,,,,,,,,,,,,,,705,19,female,left_right_width,2024-05-17_16h07.01.705,exp1,2023.1.0,59.99858403342073,
,,,,,,,,,,,,,,,,5,8.2,9.1,10,10.9,11.8,0.9,0.65,0.25,3.85,10,initial,36.05,296,328,361,393,425,9,9,9,9,9,,,,,,,2,0,2,0,0,4,4,48,,,,,,,,,,,,num_6,1.084723399999902,num_6,0.45,1.2,0.20000000000000007,0.7,7.6411,26.74385,return,4.782501599999804,,,,,,,,,,,,,,,,,705,19,female,left_right_width,2024-05-17_16h07.01.705,exp1,2023.1.0,59.99858403342073,
,,,,,,,,,,,,,,,,4,8.95,9.65,10.35,11.05,0,0.7,0.1499999999999999,0.55,2.65,10,initial,36.05,323,348,373,398,0,9,9,9,9,0,,,,,,,2,0,2,0,0,5,5,23,,,,,,,,,,,,num_4,0.9362342999998958,num_4,0.2,1.1,0.7000000000000001,1.0,26.74385,38.2055,return,9.376969600000038,,,,,,,,,,,,,,,,,705,19,female,left_right_width,2024-05-17_16h07.01.705,exp1,2023.1.0,59.99858403342073,
,,,,,,,,,,,,,,,,3,7.8,10,12.2,0,0,2.2,1.65,0.55,4.95,10,match,36.05,281,361,440,0,0,9,9,9,0,0,,,,,,,2,0,2,0,0,6,6,35,,,,,,,,,,,,num_3,1.400676999999959,num_3,0.25,0.5,0.8000000000000002,1.0,30.5644,38.2055,return,6.556150699999861,,,,,,,,,,,,,,,,,705,19,female,left_right_width,2024-05-17_16h07.01.705,exp1,2023.1.0,59.99858403342073,
,,,,,,,,,,,,,,,,3,9.3,10,10.7,0,0,0.7,0.29999999999999993,0.4,1.8,10,initial,36.05,335,361,386,0,0,9,9,9,0,0,,,,,,,2,0,2,0,0,7,7,9,,,,,,,,,,,,num_3,1.0828729000000834,num_3,0.35,1.2,0.44999999999999996,0.7,17.19248,26.74385,return,6.459676099999896,,,,,,,,,,,,,,,,,705,19,female,left_right_width,2024-05-17_16h07.01.705,exp1,2023.1.0,59.99858403342073,
,,,,,,,,,,,,,,,,5,8.35,9.175,10,10.825,11.65,0.8250000000000001,0.275,0.55,3.85,10,match,36.05,301,331,361,390,420,9,9,9,9,9,,,,,,,2,0,2,0,0,8,8,18,,,,,,,,,,,,num_5,0.9901931999998936,num_5,0.45,1.1,0.55,0.75,21.01303,28.65413,return,7.343901799999784,,,,,,,,,,,,,,,,,705,19,female,left_right_width,2024-05-17_16h07.01.705,exp1,2023.1.0,59.99858403342073,
,,,,,,,,,,,,,,,,5,8.95,9.475,10,10.525,11.05,0.525,0.275,0.25,2.35,10,match,36.05,323,342,361,379,398,9,9,9,9,9,,,,,,,2,0,2,0,0,9,9,25,,,,,,,,,,,,num_6,1.3130201000000028,num_6,0.35,0.7,0.2,0.5,7.6411,19.10275,return,3.6883129999999795,,,,,,,,,,,,,,,,,705,19,female,left_right_width,2024-05-17_16h07.01.705,exp1,2023.1.0,59.99858403342073,
,,,,,,,,,,,,,,,,4,8.95,9.65,10.35,11.05,0,0.7,0.29999999999999993,0.4,2.5,10,initial,36.05,323,348,373,398,0,9,9,9,9,0,,,,,,,2,0,2,0,0,10,10,26,,,,,,,,,,,,num_4,0.8081338999999019,num_4,0.2,0.9,0.44999999999999996,0.7,17.19248,26.74385,return,4.613720900000189,,,,,,,,,,,,,,,,,705,19,female,left_right_width,2024-05-17_16h07.01.705,exp1,2023.1.0,59.99858403342073,
,,,,,,,,,,,,,,,,3,8.9,10,11.1,0,0,1.1,0.7000000000000001,0.4,2.6000000000000005,10,initial,36.05,321,361,400,0,0,9,9,9,0,0,,,,,,,2,0,2,0,0,11,11,4,,,,,,,,,,,,num_3,1.205515300000215,num_3,0.55,0.7,0.55,1.15,21.01303,43.93633,return,3.5732822999999456,,,,,,,,,,,,,,,,,705,19,female,left_right_width,2024-05-17_16h07.01.705,exp1,2023.1.0,59.99858403342073,
,,,,,,,,,,,,,,,,5,7.8,8.9,10,11.1,12.2,1.1,0.8500000000000001,0.25,4.65,10,initial,36.05,281,321,361,400,440,9,9,9,9,9,,,,,,,2,0,2,0,0,12,12,36,,,,,,,,,,,,num_6,0.9665053999998321,num_6,0.55,1.1,0.25000000000000006,0.7,9.55138,26.74385,return,9.599316899999948,,,,,,,,,,,,,,,,,705,19,female,left_right_width,2024-05-17_16h07.01.705,exp1,2023.1.0,59.99858403342073,
,,,,,,,,,,,,,,,,3,8.9,10,11.1,0,0,1.1,0.8500000000000001,0.25,2.45,10,initial,36.05,321,361,400,0,0,9,9,9,0,0,,,,,,,2,0,2,0,0,13,13,2,,,,,,,,,,,,num_3,1.0255134000000083,num_3,0.25,1.1,0.25,1.1,9.55138,42.02605,return,4.838625899999769,,,,,,,,,,,,,,,,,705,19,female,left_right_width,2024-05-17_16h07.01.705,exp1,2023.1.0,59.99858403342073,
,,,,,,,,,,,,,,,,4,8.35,9.45,10.55,11.65,0,1.1,0.8500000000000001,0.25,3.5500000000000003,10,initial,36.05,301,341,380,420,0,9,9,9,9,0,,,,,,,2,0,2,0,0,14,14,19,,,,,,,,,,,,num_4,0.9662265999998993,num_4,0.5,0.7,0.25000000000000006,0.8,9.55138,30.5644,return,5.001578299999991,,,,,,,,,,,,,,,,,705,19,female,left_right_width,2024-05-17_16h07.01.705,exp1,2023.1.0,59.99858403342073,
,,,,,,,,,,,,,,,,4,8.35,9.45,10.55,11.65,0,1.1,0.7000000000000001,0.4,3.7,10,initial,36.05,301,341,380,420,0,9,9,9,9,0,,,,,,,2,0,2,0,0,15,15,21,,,,,,,,,,,,num_4,0.9513292999998697,num_4,0.2,1.3,0.5499999999999999,1.1,21.01303,42.02605,return,3.791176600000071,,,,,,,,,,,,,,,,,705,19,female,left_right_width,2024-05-17_16h07.01.705,exp1,2023.1.0,59.99858403342073,
,,,,,,,,,,,,,,,,3,8.2,10,11.8,0,0,1.7999999999999998,1.4,0.4,4,10,match,36.05,296,361,425,0,0,9,9,9,0,0,,,,,,,2,0,2,0,0,16,16,51,,,,,,,,,,,,num_3,1.3178351000000106,num_3,0.2,0.7,0.49999999999999994,1.1,19.10275,42.02605,return,4.90952460000004,,,,,,,,,,,,,,,,,705,19,female,left_right_width,2024-05-17_16h07.01.705,exp1,2023.1.0,59.99858403342073,
,,,,,,,,,,,,,,,,5,8.65,9.325,10,10.675,11.35,0.675,0.125,0.55,3.25,10,match,36.05,312,336,361,385,409,9,9,9,9,9,,,,,,,2,0,2,0,0,17,17,29,,,,,,,,,,,,num_5,0.8942800000000801,num_5,0.35,1.2,0.5499999999999999,0.7,21.01303,26.74385,return,4.793891699999776,,,,,,,,,,,,,,,,,705,19,female,left_right_width,2024-05-17_16h07.01.705,exp1,2023.1.0,59.99858403342073,
,,,,,,,,,,,,,,,,5,8.6,9.3,10,10.7,11.4,0.7,0.29999999999999993,0.4,3.1999999999999997,10,initial,36.05,310,335,361,386,411,9,9,9,9,9,,,,,,,2,0,2,0,0,18,18,44,,,,,,,,,,,,num_6,0.9156024000002247,num_6,0.4,1.0,0.4,0.6,15.2822,22.9233,return,3.4701736000002796,,,,,,,,,,,,,,,,,705,19,female,left_right_width,2024-05-17_16h07.01.705,exp1,2023.1.0,59.99858403342073,
,,,,,,,,,,,,,,,,5,8.2,9.1,10,10.9,11.8,0.9,0.35,0.55,4.15,10,initial,36.05,296,328,361,393,425,9,9,9,9,9,,,,,,,2,0,2,0,0,19,19,46,,,,,,,,,,,,num_5,0.7678621999999535,num_5,0.55,0.9,0.55,0.8,21.01303,30.5644,return,2.5595269999999886,,,,,,,,,,,,,,,,,705,19,female,left_right_width,2024-05-17_16h07.01.705,exp1,2023.1.0,59.99858403342073,
,,,,,,,,,,,,,,,,3,8.6,10,11.4,0,0,1.4,1.15,0.25,3.05,10,match,36.05,310,361,411,0,0,9,9,9,0,0,,,,,,,2,0,2,0,0,20,20,43,,,,,,,,,,,,num_3,1.0308616999999316,num_3,0.55,1.2,0.25000000000000006,1.3,9.55138,49.66716,return,5.788205400000251,,,,,,,,,,,,,,,,,705,19,female,left_right_width,2024-05-17_16h07.01.705,exp1,2023.1.0,59.99858403342073,
,,,,,,,,,,,,,,,,5,8.65,9.325,10,10.675,11.35,0.675,0.42500000000000004,0.25,2.95,10,match,36.05,312,336,361,385,409,9,9,9,9,9,,,,,,,2,0,2,0,0,21,21,31,,,,,,,,,,,,num_5,0.9263242000000531,num_5,0.4,1.1,0.25000000000000006,0.75,9.55138,28.65413,return,4.488432700000075,,,,,,,,,,,,,,,,,705,19,female,left_right_width,2024-05-17_16h07.01.705,exp1,2023.1.0,59.99858403342073,
,,,,,,,,,,,,,,,,4,9.3,9.766666666666667,10.233333333333333,10.7,0,0.4666666666666667,0.21666666666666665,0.25,1.65,10,match,36.05,335,352,369,386,0,9,9,9,9,0,,,,,,,2,0,2,0,0,22,22,8,,,,,,,,,,,,num_5,0.9130509999998679,num_5,0.3,0.5,0.25,0.4,9.55138,15.2822,return,2.9531143000002515,,,,,,,,,,,,,,,,,705,19,female,left_right_width,2024-05-17_16h07.01.705,exp1,2023.1.0,59.99858403342073,
,,,,,,,,,,,,,,,,3,7.8,10,12.2,0,0,2.2,1.9500000000000002,0.25,4.65,10,match,36.05,281,361,440,0,0,9,9,9,0,0,,,,,,,2,0,2,0,0,23,23,37,,,,,,,,,,,,num_3,1.246369599999852,num_3,0.35,0.5,0.25,1.1,9.55138,42.02605,return,5.899354299999786,,,,,,,,,,,,,,,,,705,19,female,left_right_width,2024-05-17_16h07.01.705,exp1,2023.1.0,59.99858403342073,
,,,,,,,,,,,,,,,,3,8.9,10,11.1,0,0,1.1,0.55,0.55,2.75,10,initial,36.05,321,361,400,0,0,9,9,9,0,0,,,,,,,2,0,2,0,0,24,24,0,,,,,,,,,,,,num_3,1.079721299999946,num_3,0.4,1.3,0.6000000000000001,1.1,22.9233,42.02605,return,5.143241999999745,,,,,,,,,,,,,,,,,705,19,female,left_right_width,2024-05-17_16h07.01.705,exp1,2023.1.0,59.99858403342073,
,,,,,,,,,,,,,,,,3,8.2,10,11.8,0,0,1.8,1.25,0.55,4.15,10,match,36.05,296,361,425,0,0,9,9,9,0,0,,,,,,,2,0,2,0,0,25,25,47,,,,,,,,,,,,num_3,1.0227645000000933,num_3,0.45,0.8,0.6000000000000001,1.8,22.9233,68.76991,return,8.732753000000102,,,,,,,,,,,,,,,,,705,19,female,left_right_width,2024-05-17_16h07.01.705,exp1,2023.1.0,59.99858403342073,
,,,,,,,,,,,,,,,,5,7.8,8.9,10,11.1,12.2,1.1,0.55,0.55,4.95,10,initial,36.05,281,321,361,400,440,9,9,9,9,9,,,,,,,2,0,2,0,0,26,26,34,,,,,,,,,,,,num_6,1.5033384000001746,num_6,0.25,1.3,0.7000000000000001,0.9,26.74385,34.38495,return,7.873706199999887,,,,,,,,,,,,,,,,,705,19,female,left_right_width,2024-05-17_16h07.01.705,exp1,2023.1.0,59.99858403342073,
,,,,,,,,,,,,,,,,5,8.6,9.3,10,10.7,11.4,0.7,0.1499999999999999,0.55,3.3499999999999996,10,initial,36.05,310,335,361,386,411,9,9,9,9,9,,,,,,,2,0,2,0,0,27,27,40,,,,,,,,,,,,num_5,0.9430419999997497,num_5,0.25,1.0,0.65,0.85,24.83358,32.47468,return,8.263491299999814,,,,,,,,,,,,,,,,,705,19,female,left_right_width,2024-05-17_16h07.01.705,exp1,2023.1.0,59.99858403342073,
,,,,,,,,,,,,,,,,4,9.3,9.766666666666667,10.233333333333333,10.7,0,0.4666666666666667,0.06666666666666665,0.4,1.8,10,match,36.05,335,352,369,386,0,9,9,9,9,0,,,,,,,2,0,2,0,0,28,28,10,,,,,,,,,,,,num_5,0.9450415999998398,num_5,0.2,0.5,0.3,0.4,11.46165,15.2822,return,3.1264990999999185,,,,,,,,,,,,,,,,,705,19,female,left_right_width,2024-05-17_16h07.01.705,exp1,2023.1.0,59.99858403342073,
,,,,,,,,,,,,,,,,5,8.95,9.475,10,10.525,11.05,0.525,0.125,0.4,2.5,10,match,36.05,323,342,361,379,398,9,9,9,9,9,,,,,,,2,0,2,0,0,29,29,27,,,,,,,,,,,,num_5,0.9760050999999379,num_5,0.3,1.3,0.39999999999999997,0.55,15.2822,21.01303,return,8.151164799999933,,,,,,,,,,,,,,,,,705,19,female,left_right_width,2024-05-17_16h07.01.705,exp1,2023.1.0,59.99858403342073,
,,,,,,,,,,,,,,,,5,8.35,9.175,10,10.825,11.65,0.825,0.575,0.25,3.55,10,match,36.05,301,331,361,390,420,9,9,9,9,9,,,,,,,2,0,2,0,0,30,30,20,,,,,,,,,,,,num_6,1.070400700000036,num_6,0.25,0.7,0.25,1.0,9.55138,38.2055,return,3.443417100000133,,,,,,,,,,,,,,,,,705,19,female,left_right_width,2024-05-17_16h07.01.705,exp1,2023.1.0,59.99858403342073,
,,,,,,,,,,,,,,,,3,9.1,10,10.9,0,0,0.9,0.5,0.4,2.2,10,initial,36.05,328,361,393,0,0,9,9,9,0,0,,,,,,,2,0,2,0,0,31,31,15,,,,,,,,,,,,num_3,1.1972193999998666,num_3,0.35,1,0.44999999999999996,0.8,17.19248,30.5644,return,4.268398000000033,,,,,,,,,,,,,,,,,705,19,female,left_right_width,2024-05-17_16h07.01.705,exp1,2023.1.0,59.99858403342073,
,,,,,,,,,,,,,,,,5,8.2,9.1,10,10.9,11.8,0.9,0.5,0.4,4,10,initial,36.05,296,328,361,393,425,9,9,9,9,9,,,,,,,2,0,2,0,0,32,32,50,,,,,,,,,,,,num_6,1.210224000000025,num_6,0.4,1.3,0.4,0.7,15.2822,26.74385,return,2.8999058000000417,,,,,,,,,,,,,,,,,705,19,female,left_right_width,2024-05-17_16h07.01.705,exp1,2023.1.0,59.99858403342073,
,,,,,,,,,,,,,,,,4,9.1,9.7,10.3,10.9,0,0.6,0.04999999999999997,0.55,2.35,10,match,36.05,328,350,371,393,0,9,9,9,9,0,,,,,,,2,0,2,0,0,33,33,12,,,,,,,,,,,,num_4,1.2697739999999698,num_4,0.3,0.7,0.5499999999999999,0.6,21.01303,22.9233,return,3.698903300000083,,,,,,,,,,,,,,,,,705,19,female,left_right_width,2024-05-17_16h07.01.705,exp1,2023.1.0,59.99858403342073,
,,,,,,,,,,,,,,,,4,8.65,9.55,10.45,11.35,0,0.9,0.65,0.25,2.95,10,initial,36.05,312,344,377,409,0,9,9,9,9,0,,,,,,,2,0,2,0,0,34,34,30,,,,,,,,,,,,num_4,1.0474209000002332,num_4,0.5,1.1,0.25000000000000006,1.0,9.55138,38.2055,return,4.745881599999947,,,,,,,,,,,,,,,,,705,19,female,left_right_width,2024-05-17_16h07.01.705,exp1,2023.1.0,59.99858403342073,
,,,,,,,,,,,,,,,,4,8.825,9.608333333333333,10.391666666666667,11.175,0,0.7833333333333333,0.5333333333333333,0.25,2.6,10,match,36.05,318,346,375,403,0,9,9,9,9,0,,,,,,,2,0,2,0,0,35,35,5,,,,,,,,,,,,num_4,1.2173452000002811,num_4,0.3,0.5,0.2,0.7,7.6411,26.74385,return,4.781901900000193,,,,,,,,,,,,,,,,,705,19,female,left_right_width,2024-05-17_16h07.01.705,exp1,2023.1.0,59.99858403342073,
,,,,,,,,,,,,,,,,5,8.275,9.1375,10,10.8625,11.725,0.8625,0.6125,0.25,3.7,10,match,36.05,298,329,361,392,423,9,9,9,9,9,,,,,,,2,0,2,0,0,36,36,22,,,,,,,,,,,,num_5,1.053388300000151,num_5,0.4,0.5,0.25000000000000006,0.75,9.55138,28.65413,return,6.7195943999998775,,,,,,,,,,,,,,,,,705,19,female,left_right_width,2024-05-17_16h07.01.705,exp1,2023.1.0,59.99858403342073,
,,,,,,,,,,,,,,,,3,8.525,10,11.475,0,0,1.475,1.225,0.25,3.2,10,match,36.05,307,361,414,0,0,9,9,9,0,0,,,,,,,2,0,2,0,0,37,37,45,,,,,,,,,,,,num_3,1.1747809999998111,num_3,0.5,0.8,0.20000000000000007,1.05,7.6411,40.11578,return,6.626427199999952,,,,,,,,,,,,,,,,,705,19,female,left_right_width,2024-05-17_16h07.01.705,exp1,2023.1.0,59.99858403342073,
,,,,,,,,,,,,,,,,4,8.9,9.633333333333333,10.366666666666667,11.1,0,0.7333333333333334,0.4833333333333334,0.25,2.45,10,match,36.05,321,347,374,400,0,9,9,9,9,0,,,,,,,2,0,2,0,0,38,38,3,,,,,,,,,,,,num_4,0.9906086000001864,num_4,0.2,0.3,0.2,0.6,7.6411,22.9233,return,3.782267100000226,,,,,,,,,,,,,,,,,705,19,female,left_right_width,2024-05-17_16h07.01.705,exp1,2023.1.0,59.99858403342073,
,,,,,,,,,,,,,,,,4,8.65,9.55,10.45,11.35,0,0.9,0.35,0.55,3.25,10,initial,36.05,312,344,377,409,0,9,9,9,9,0,,,,,,,2,0,2,0,0,39,39,28,,,,,,,,,,,,num_4,0.8880412000001883,num_4,0.25,0.9,0.6,0.7,22.9233,26.74385,return,3.761270300000305,,,,,,,,,,,,,,,,,705,19,female,left_right_width,2024-05-17_16h07.01.705,exp1,2023.1.0,59.99858403342073,
,,,,,,,,,,,,,,,,4,8.35,9.45,10.55,11.65,0,1.1,0.55,0.55,3.8500000000000005,10,initial,36.05,301,341,380,420,0,9,9,9,9,0,,,,,,,2,0,2,0,0,40,40,17,,,,,,,,,,,,num_4,0.7607507999999683,num_4,0.35,0.9,0.6,1.0,22.9233,38.2055,return,3.539571599999917,,,,,,,,,,,,,,,,,705,19,female,left_right_width,2024-05-17_16h07.01.705,exp1,2023.1.0,59.99858403342073,
,,,,,,,,,,,,,,,,3,7.800000000000001,10,12.2,0,0,2.1999999999999997,1.7999999999999998,0.4,4.8,10,match,36.05,281,361,440,0,0,9,9,9,0,0,,,,,,,2,0,2,0,0,41,41,39,,,,,,,,,,,,num_3,1.1746300999999306,num_3,0.2,0.5,0.49999999999999994,1.6,19.10275,61.12881,return,10.198502500000231,,,,,,,,,,,,,,,,,705,19,female,left_right_width,2024-05-17_16h07.01.705,exp1,2023.1.0,59.99858403342073,
,,,,,,,,,,,,,,,,5,7.8,8.9,10,11.1,12.2,1.1,0.7000000000000001,0.4,4.800000000000001,10,initial,36.05,281,321,361,400,440,9,9,9,9,9,,,,,,,2,0,2,0,0,42,42,38,,,,,,,,,,,,num_4,0.9507130000000501,num_4,0.4,0.5,0.4,1.1,15.2822,42.02605,return,3.4211693000000736,,,,,,,,,,,,,,,,,705,19,female,left_right_width,2024-05-17_16h07.01.705,exp1,2023.1.0,59.99858403342073,
,,,,,,,,,,,,,,,,3,9.1,10,10.9,0,0,0.9,0.65,0.25,2.05,10,initial,36.05,328,361,393,0,0,9,9,9,0,0,,,,,,,2,0,2,0,0,43,43,13,,,,,,,,,,,,num_3,1.3039600999999124,num_3,0.45,0.7,0.30000000000000004,0.9,11.46165,34.38495,return,3.562973799999881,,,,,,,,,,,,,,,,,705,19,female,left_right_width,2024-05-17_16h07.01.705,exp1,2023.1.0,59.99858403342073,
,,,,,,,,,,,,,,,,4,8.9,9.633333333333333,10.366666666666667,11.1,0,0.7333333333333333,0.18333333333333326,0.55,2.75,10,match,36.05,321,347,374,400,0,9,9,9,9,0,,,,,,,2,0,2,0,0,44,44,1,,,,,,,,,,,,num_4,0.8845345999996965,num_4,0.55,1.3,0.6000000000000001,0.8,22.9233,30.5644,return,6.763653200000235,,,,,,,,,,,,,,,,,705,19,female,left_right_width,2024-05-17_16h07.01.705,exp1,2023.1.0,59.99858403342073,
,,,,,,,,,,,,,,,,4,8.65,9.55,10.45,11.35,0,0.9,0.5,0.4,3.1,10,initial,36.05,312,344,377,409,0,9,9,9,9,0,,,,,,,2,0,2,0,0,45,45,32,,,,,,,,,,,,num_4,0.9369738999999839,num_4,0.3,0.5,0.5499999999999999,0.8,21.01303,30.5644,return,5.5630775999999145,,,,,,,,,,,,,,,,,705,19,female,left_right_width,2024-05-17_16h07.01.705,exp1,2023.1.0,59.99858403342073,
,,,,,,,,,,,,,,,,4,8.95,9.65,10.35,11.05,0,0.7,0.44999999999999996,0.25,2.3499999999999996,10,initial,36.05,323,348,373,398,0,9,9,9,9,0,,,,,,,2,0,2,0,0,46,46,24,,,,,,,,,,,,num_4,0.8590886000000495,num_4,0.3,1.2,0.3,0.7,11.46165,26.74385,return,3.6688662000000107,,,,,,,,,,,,,,,,,705,19,female,left_right_width,2024-05-17_16h07.01.705,exp1,2023.1.0,59.99858403342073,
,,,,,,,,,,,,,,,,5,8.6,9.3,10,10.7,11.4,0.7,0.44999999999999996,0.25,3.05,10,initial,36.05,310,335,361,386,411,9,9,9,9,9,,,,,,,2,0,2,0,0,47,47,42,,,,,,,,,,,,num_6,1.1109102000001343,num_6,0.5,0.8,0.30000000000000004,0.6,11.46165,22.9233,return,4.069123299999873,,,,,,,,,,,,,,,,,705,19,female,left_right_width,2024-05-17_16h07.01.705,exp1,2023.1.0,59.99858403342073,
,,,,,,,,,,,,,,,,3,9.3,10,10.7,0,0,0.7,0.44999999999999996,0.25,1.65,10,initial,36.05,335,361,386,0,0,9,9,9,0,0,,,,,,,2,0,2,0,0,48,48,7,,,,,,,,,,,,num_3,1.0399006999999614,num_3,0.55,0.7,0.25000000000000006,0.65,9.55138,24.83358,return,4.434850499999911,,,,,,,,,,,,,,,,,705,19,female,left_right_width,2024-05-17_16h07.01.705,exp1,2023.1.0,59.99858403342073,
,,,,,,,,,,,,,,,,4,9.1,9.7,10.3,10.9,0,0.5999999999999999,0.3499999999999999,0.25,2.05,10,match,36.05,328,350,371,393,0,9,9,9,9,0,,,,,,,2,0,2,0,0,49,49,14,,,,,,,,,,,,num_4,1.0508814999999316,num_4,0.55,0.6,0.25000000000000006,0.4,9.55138,15.2822,return,4.653422299999747,,,,,,,,,,,,,,,,,705,19,female,left_right_width,2024-05-17_16h07.01.705,exp1,2023.1.0,59.99858403342073,
,,,,,,,,,,,,,,,,3,8.6,10,11.4,0,0,1.4,0.85,0.55,3.35,10,match,36.05,310,361,411,0,0,9,9,9,0,0,,,,,,,2,0,2,0,0,50,50,41,,,,,,,,,,,,num_3,1.0456450999998737,num_3,0.35,0.6,0.65,0.85,24.83358,32.47468,return,4.773934599999947,,,,,,,,,,,,,,,,,705,19,female,left_right_width,2024-05-17_16h07.01.705,exp1,2023.1.0,59.99858403342073,
,,,,,,,,,,,,,,,,3,8.2,10,11.8,0,0,1.8,1.55,0.25,3.85,10,match,36.05,296,361,425,0,0,9,9,9,0,0,,,,,,,2,0,2,0,0,51,51,49,,,,,,,,,,,,num_3,0.968323099999779,num_3,0.35,0.4,0.3,0.8,11.46165,30.5644,return,8.013282399999852,,,,,,,,,,,,,,,,,705,19,female,left_right_width,2024-05-17_16h07.01.705,exp1,2023.1.0,59.99858403342073,
,,,,,,,,,,,,,,,,,,,,,,,,,,,,,,,,,,,,,,,,,,,,,2,0,2,0,,,,,,,,,,,,,,,,,,,,,,,,,,,,,1967.9639854000002,1967.9639854000002,1967.9639854000002,,,,,,,,,,,,705,19,female,left_right_width,2024-05-17_16h07.01.705,exp1,2023.1.0,59.99858403342073,
,,,,,,,,,,,,,,,,3,8.2,10,11.8,0,0,1.7999999999999998,1.4,0.4,4,10,match,36.05,296,361,425,0,0,9,9,9,0,0,,,,,,,3,0,3,0,0,0,0,51,,,,,,,,,,,,num_3,1.0602867999999575,num_3,0.55,0.7,0.55,1.25,21.01303,47.75688,return,6.896940599999979,,,,,,,,,,,,,,,,,705,19,female,left_right_width,2024-05-17_16h07.01.705,exp1,2023.1.0,59.99858403342073,
,,,,,,,,,,,,,,,,5,8.35,9.175,10,10.825,11.65,0.8250000000000001,0.275,0.55,3.85,10,match,36.05,301,331,361,390,420,9,9,9,9,9,,,,,,,3,0,3,0,0,1,1,18,,,,,,,,,,,,num_4,1.1902831999999393,num_4,0.4,0.5,0.55,0.8,21.01303,30.5644,return,2.912084799999647,,,,,,,,,,,,,,,,,705,19,female,left_right_width,2024-05-17_16h07.01.705,exp1,2023.1.0,59.99858403342073,
,,,,,,,,,,,,,,,,5,8.6,9.3,10,10.7,11.4,0.7,0.1499999999999999,0.55,3.3499999999999996,10,initial,36.05,310,335,361,386,411,9,9,9,9,9,,,,,,,3,0,3,0,0,2,2,40,,,,,,,,,,,,num_5,0.9968120000001903,num_5,0.45,0.9,0.6000000000000001,0.75,22.9233,28.65413,return,3.7669363999997216,,,,,,,,,,,,,,,,,705,19,female,left_right_width,2024-05-17_16h07.01.705,exp1,2023.1.0,59.99858403342073,
,,,,,,,,,,,,,,,,5,8.2,9.1,10,10.9,11.8,0.9,0.35,0.55,4.15,10,initial,36.05,296,328,361,393,425,9,9,9,9,9,,,,,,,3,0,3,0,0,3,3,46,,,,,,,,,,,,num_5,0.9908098999998032,num_5,0.2,1.3,0.49999999999999994,0.75,19.10275,28.65413,return,5.7283056999998365,,,,,,,,,,,,,,,,,705,19,female,left_right_width,2024-05-17_16h07.01.705,exp1,2023.1.0,59.99858403342073,
,,,,,,,,,,,,,,,,3,8.2,10,11.8,0,0,1.8,1.55,0.25,3.85,10,match,36.05,296,361,425,0,0,9,9,9,0,0,,,,,,,3,0,3,0,0,4,4,49,,,,,,,,,,,,num_3,1.044508499999992,num_3,0.2,0.3,0.2,1.05,7.6411,40.11578,return,4.628714599999839,,,,,,,,,,,,,,,,,705,19,female,left_right_width,2024-05-17_16h07.01.705,exp1,2023.1.0,59.99858403342073,
,,,,,,,,,,,,,,,,5,8.35,9.175,10,10.825,11.65,0.825,0.575,0.25,3.55,10,match,36.05,301,331,361,390,420,9,9,9,9,9,,,,,,,3,0,3,0,0,5,5,20,,,,,,,,,,,,num_4,0.8816298000000273,num_4,0.35,0.6,0.2,1.0,7.6411,38.2055,return,3.081996600000238,,,,,,,,,,,,,,,,,705,19,female,left_right_width,2024-05-17_16h07.01.705,exp1,2023.1.0,59.99858403342073,
,,,,,,,,,,,,,,,,3,8.9,10,11.1,0,0,1.1,0.55,0.55,2.75,10,initial,36.05,321,361,400,0,0,9,9,9,0,0,,,,,,,3,0,3,0,0,6,6,0,,,,,,,,,,,,num_3,1.1553735999999475,num_3,0.3,1.2,0.44999999999999996,1.1,17.19248,42.02605,return,2.590469999999968,,,,,,,,,,,,,,,,,705,19,female,left_right_width,2024-05-17_16h07.01.705,exp1,2023.1.0,59.99858403342073,
,,,,,,,,,,,,,,,,4,8.825,9.608333333333333,10.391666666666667,11.175,0,0.7833333333333333,0.5333333333333333,0.25,2.6,10,match,36.05,318,346,375,403,0,9,9,9,9,0,,,,,,,3,0,3,0,0,7,7,5,,,,,,,,,,,,num_4,0.8881755000000879,num_4,0.4,0.7,0.30000000000000004,0.6,11.46165,22.9233,return,2.5325558999996787,,,,,,,,,,,,,,,,,705,19,female,left_right_width,2024-05-17_16h07.01.705,exp1,2023.1.0,59.99858403342073,
,,,,,,,,,,,,,,,,3,9.3,10,10.7,0,0,0.7,0.1499999999999999,0.55,1.95,10,initial,36.05,335,361,386,0,0,9,9,9,0,0,,,,,,,3,0,3,0,0,8,8,6,,,,,,,,,,,,num_2,1.0646614999999287,num_2,0.4,0.8,0.45,0.6,17.19248,22.9233,return,2.728062200000167,,,,,,,,,,,,,,,,,705,19,female,left_right_width,2024-05-17_16h07.01.705,exp1,2023.1.0,59.99858403342073,
,,,,,,,,,,,,,,,,3,8.2,10,11.8,0,0,1.8,1.25,0.55,4.15,10,match,36.05,296,361,425,0,0,9,9,9,0,0,,,,,,,3,0,3,0,0,9,9,47,,,,,,,,,,,,num_3,0.8619464999995756,num_3,0.45,1.2,0.5,1.5,19.10275,57.30826,return,2.8739920999999953,,,,,,,,,,,,,,,,,705,19,female,left_right_width,2024-05-17_16h07.01.705,exp1,2023.1.0,59.99858403342073,
,,,,,,,,,,,,,,,,3,9.1,10,10.9,0,0,0.9,0.5,0.4,2.2,10,initial,36.05,328,361,393,0,0,9,9,9,0,0,,,,,,,3,0,3,0,0,10,10,15,,,,,,,,,,,,num_3,0.8257799000001427,num_3,0.25,0.8,0.44999999999999996,0.85,17.19248,32.47468,return,4.135225199999567,,,,,,,,,,,,,,,,,705,19,female,left_right_width,2024-05-17_16h07.01.705,exp1,2023.1.0,59.99858403342073,
,,,,,,,,,,,,,,,,3,7.800000000000001,10,12.2,0,0,2.1999999999999997,1.7999999999999998,0.4,4.8,10,match,36.05,281,361,440,0,0,9,9,9,0,0,,,,,,,3,0,3,0,0,11,11,39,,,,,,,,,,,,num_3,0.9324666000000974,num_3,0.5,0.6,0.4,1.3,15.2822,49.66716,return,6.9098416999998875,,,,,,,,,,,,,,,,,705,19,female,left_right_width,2024-05-17_16h07.01.705,exp1,2023.1.0,59.99858403342073,
,,,,,,,,,,,,,,,,3,7.8,10,12.2,0,0,2.2,1.65,0.55,4.95,10,match,36.05,281,361,440,0,0,9,9,9,0,0,,,,,,,3,0,3,0,0,12,12,35,,,,,,,,,,,,num_3,1.302451999999775,num_3,0.45,0.8,0.55,1.4,21.01303,53.48771,return,4.895845399999743,,,,,,,,,,,,,,,,,705,19,female,left_right_width,2024-05-17_16h07.01.705,exp1,2023.1.0,59.99858403342073,
,,,,,,,,,,,,,,,,4,8.9,9.633333333333333,10.366666666666667,11.1,0,0.7333333333333334,0.4833333333333334,0.25,2.45,10,match,36.05,321,347,374,400,0,9,9,9,9,0,,,,,,,3,0,3,0,0,13,13,3,,,,,,,,,,,,num_4,0.8680767999997983,num_4,0.25,0.7,0.25,1.0,9.55138,38.2055,return,3.792148499999584,,,,,,,,,,,,,,,,,705,19,female,left_right_width,2024-05-17_16h07.01.705,exp1,2023.1.0,59.99858403342073,
,,,,,,,,,,,,,,,,5,8.2,9.1,10,10.9,11.8,0.9,0.65,0.25,3.85,10,initial,36.05,296,328,361,393,425,9,9,9,9,9,,,,,,,3,0,3,0,0,14,14,48,,,,,,,,,,,,num_6,1.0037217999996386,num_6,0.45,1.3,0.20000000000000007,0.9,7.6411,34.38495,return,5.055052599999598,,,,,,,,,,,,,,,,,705,19,female,left_right_width,2024-05-17_16h07.01.705,exp1,2023.1.0,59.99858403342073,
,,,,,,,,,,,,,,,,5,8.95,9.475,10,10.525,11.05,0.525,0.125,0.4,2.5,10,match,36.05,323,342,361,379,398,9,9,9,9,9,,,,,,,3,0,3,0,0,15,15,27,,,,,,,,,,,,num_5,0.943685000000059,num_5,0.45,0.6,0.35000000000000003,0.6,13.37193,22.9233,return,2.2267095999999214,,,,,,,,,,,,,,,,,705,19,female,left_right_width,2024-05-17_16h07.01.705,exp1,2023.1.0,59.99858403342073,
,,,,,,,,,,,,,,,,4,8.65,9.55,10.45,11.35,0,0.9,0.65,0.25,2.95,10,initial,36.05,312,344,377,409,0,9,9,9,9,0,,,,,,,3,0,3,0,0,16,16,30,,,,,,,,,,,,num_4,0.8726894999998507,num_4,0.55,0.8,0.25000000000000006,0.6,9.55138,22.9233,return,5.168536399999866,,,,,,,,,,,,,,,,,705,19,female,left_right_width,2024-05-17_16h07.01.705,exp1,2023.1.0,59.99858403342073,
,,,,,,,,,,,,,,,,3,9.1,10,10.9,0,0,0.9,0.65,0.25,2.05,10,initial,36.05,328,361,393,0,0,9,9,9,0,0,,,,,,,3,0,3,0,0,17,17,13,,,,,,,,,,,,num_3,1.1123970999995976,num_3,0.2,0.8,0.15000000000000002,0.75,5.73083,28.65413,return,3.624182199999595,,,,,,,,,,,,,,,,,705,19,female,left_right_width,2024-05-17_16h07.01.705,exp1,2023.1.0,59.99858403342073,
,,,,,,,,,,,,,,,,4,8.35,9.45,10.55,11.65,0,1.1,0.55,0.55,3.8500000000000005,10,initial,36.05,301,341,380,420,0,9,9,9,9,0,,,,,,,3,0,3,0,0,18,18,17,,,,,,,,,,,,num_4,0.9554701999999082,num_4,0.5,1.1,0.45,0.9,17.19248,34.38495,return,3.187506300000095,,,,,,,,,,,,,,,,,705,19,female,left_right_width,2024-05-17_16h07.01.705,exp1,2023.1.0,59.99858403342073,
,,,,,,,,,,,,,,,,4,8.95,9.65,10.35,11.05,0,0.7,0.29999999999999993,0.4,2.5,10,initial,36.05,323,348,373,398,0,9,9,9,9,0,,,,,,,3,0,3,0,0,19,19,26,,,,,,,,,,,,num_4,0.9643617999998781,num_4,0.55,0.9,0.5,0.8,19.10275,30.5644,return,3.878012999999882,,,,,,,,,,,,,,,,,705,19,female,left_right_width,2024-05-17_16h07.01.705,exp1,2023.1.0,59.99858403342073,
,,,,,,,,,,,,,,,,5,8.65,9.325,10,10.675,11.35,0.675,0.42500000000000004,0.25,2.95,10,match,36.05,312,336,361,385,409,9,9,9,9,9,,,,,,,3,0,3,0,0,20,20,31,,,,,,,,,,,,num_5,0.8257022999999748,num_5,0.4,1.1,0.25000000000000006,0.8,9.55138,30.5644,return,5.013117199999542,,,,,,,,,,,,,,,,,705,19,female,left_right_width,2024-05-17_16h07.01.705,exp1,2023.1.0,59.99858403342073,
,,,,,,,,,,,,,,,,5,8.95,9.475,10,10.525,11.05,0.525,0.275,0.25,2.35,10,match,36.05,323,342,361,379,398,9,9,9,9,9,,,,,,,3,0,3,0,0,21,21,25,,,,,,,,,,,,num_6,0.9302784999998579,num_6,0.2,1.0,0.2,0.6,7.6411,22.9233,return,5.324029899999786,,,,,,,,,,,,,,,,,705,19,female,left_right_width,2024-05-17_16h07.01.705,exp1,2023.1.0,59.99858403342073,
,,,,,,,,,,,,,,,,3,9.3,10,10.7,0,0,0.7,0.29999999999999993,0.4,1.8,10,initial,36.05,335,361,386,0,0,9,9,9,0,0,,,,,,,3,0,3,0,0,22,22,9,,,,,,,,,,,,num_2,1.3539022999997172,num_2,0.45,1.0,0.45,0.8,17.19248,30.5644,return,4.255873299999948,,,,,,,,,,,,,,,,,705,19,female,left_right_width,2024-05-17_16h07.01.705,exp1,2023.1.0,59.99858403342073,
,,,,,,,,,,,,,,,,4,9.3,9.766666666666667,10.233333333333333,10.7,0,0.4666666666666667,0.21666666666666665,0.25,1.65,10,match,36.05,335,352,369,386,0,9,9,9,9,0,,,,,,,3,0,3,0,0,23,23,8,,,,,,,,,,,,num_4,0.922074800000118,num_4,0.45,1.1,0.25000000000000006,0.5,9.55138,19.10275,return,4.481401599999899,,,,,,,,,,,,,,,,,705,19,female,left_right_width,2024-05-17_16h07.01.705,exp1,2023.1.0,59.99858403342073,
,,,,,,,,,,,,,,,,5,8.275,9.1375,10,10.8625,11.725,0.8625,0.6125,0.25,3.7,10,match,36.05,298,329,361,392,423,9,9,9,9,9,,,,,,,3,0,3,0,0,24,24,22,,,,,,,,,,,,num_6,0.9162095000000221,num_6,0.3,1.3,0.3,0.7,11.46165,26.74385,return,5.605603800000026,,,,,,,,,,,,,,,,,705,19,female,left_right_width,2024-05-17_16h07.01.705,exp1,2023.1.0,59.99858403342073,
,,,,,,,,,,,,,,,,4,8.35,9.45,10.55,11.65,0,1.1,0.8500000000000001,0.25,3.5500000000000003,10,initial,36.05,301,341,380,420,0,9,9,9,9,0,,,,,,,3,0,3,0,0,25,25,19,,,,,,,,,,,,num_4,1.7014744999995486,num_4,0.4,1.1,0.25000000000000006,1.1,9.55138,42.02605,return,4.329007300000157,,,,,,,,,,,,,,,,,705,19,female,left_right_width,2024-05-17_16h07.01.705,exp1,2023.1.0,59.99858403342073,
,,,,,,,,,,,,,,,,5,7.8,8.9,10,11.1,12.2,1.1,0.7000000000000001,0.4,4.800000000000001,10,initial,36.05,281,321,361,400,440,9,9,9,9,9,,,,,,,3,0,3,0,0,26,26,38,,,,,,,,,,,,num_6,0.8992812000000043,num_6,0.55,1.3,0.4,1.0,15.2822,38.2055,return,3.674788499999849,,,,,,,,,,,,,,,,,705,19,female,left_right_width,2024-05-17_16h07.01.705,exp1,2023.1.0,59.99858403342073,
,,,,,,,,,,,,,,,,5,8.65,9.325,10,10.675,11.35,0.675,0.125,0.55,3.25,10,match,36.05,312,336,361,385,409,9,9,9,9,9,,,,,,,3,0,3,0,0,27,27,29,,,,,,,,,,,,num_5,0.9159525999997271,num_5,0.55,1.1,0.6000000000000001,0.8,22.9233,30.5644,return,5.214260899999644,,,,,,,,,,,,,,,,,705,19,female,left_right_width,2024-05-17_16h07.01.705,exp1,2023.1.0,59.99858403342073,
,,,,,,,,,,,,,,,,3,8.6,10,11.4,0,0,1.4,1.15,0.25,3.05,10,match,36.05,310,361,411,0,0,9,9,9,0,0,,,,,,,3,0,3,0,0,28,28,43,,,,,,,,,,,,num_3,1.1090740999996882,num_3,0.35,0.9,0.25,1.3,9.55138,49.66716,return,8.068906800000022,,,,,,,,,,,,,,,,,705,19,female,left_right_width,2024-05-17_16h07.01.705,exp1,2023.1.0,59.99858403342073,
,,,,,,,,,,,,,,,,3,9.1,10,10.9,0,0,0.9,0.35,0.55,2.35,10,initial,36.05,328,361,393,0,0,9,9,9,0,0,,,,,,,3,0,3,0,0,29,29,11,,,,,,,,,,,,num_2,1.0468853000000848,num_2,0.25,1.2,0.65,0.9,24.83358,34.38495,return,4.284593400000048,,,,,,,,,,,,,,,,,705,19,female,left_right_width,2024-05-17_16h07.01.705,exp1,2023.1.0,59.99858403342073,
,,,,,,,,,,,,,,,,5,8.6,9.3,10,10.7,11.4,0.7,0.29999999999999993,0.4,3.1999999999999997,10,initial,36.05,310,335,361,386,411,9,9,9,9,9,,,,,,,3,0,3,0,0,30,30,44,,,,,,,,,,,,num_5,0.862693500000077,num_5,0.2,1.1,0.39999999999999997,0.9,15.2822,34.38495,return,6.106206399999664,,,,,,,,,,,,,,,,,705,19,female,left_right_width,2024-05-17_16h07.01.705,exp1,2023.1.0,59.99858403342073,
,,,,,,,,,,,,,,,,5,8.6,9.3,10,10.7,11.4,0.7,0.44999999999999996,0.25,3.05,10,initial,36.05,310,335,361,386,411,9,9,9,9,9,,,,,,,3,0,3,0,0,31,31,42,,,,,,,,,,,,num_5,0.9677912999999165,num_5,0.3,0.7,0.15000000000000002,0.8,5.73083,30.5644,return,4.121550700000043,,,,,,,,,,,,,,,,,705,19,female,left_right_width,2024-05-17_16h07.01.705,exp1,2023.1.0,59.99858403342073,
,,,,,,,,,,,,,,,,4,8.65,9.55,10.45,11.35,0,0.9,0.5,0.4,3.1,10,initial,36.05,312,344,377,409,0,9,9,9,9,0,,,,,,,3,0,3,0,0,32,32,32,,,,,,,,,,,,num_4,0.9158817000000994,num_4,0.4,0.8,0.35000000000000003,0.8,13.37193,30.5644,return,2.233288000000229,,,,,,,,,,,,,,,,,705,19,female,left_right_width,2024-05-17_16h07.01.705,exp1,2023.1.0,59.99858403342073,
,,,,,,,,,,,,,,,,4,8.65,9.55,10.45,11.35,0,0.9,0.35,0.55,3.25,10,initial,36.05,312,344,377,409,0,9,9,9,9,0,,,,,,,3,0,3,0,0,33,33,28,,,,,,,,,,,,num_3,1.3425664999998475,num_3,0.2,1.3,0.65,1.25,24.83358,47.75688,return,6.1951679000002144,,,,,,,,,,,,,,,,,705,19,female,left_right_width,2024-05-17_16h07.01.705,exp1,2023.1.0,59.99858403342073,
,,,,,,,,,,,,,,,,4,8.95,9.65,10.35,11.05,0,0.7,0.44999999999999996,0.25,2.3499999999999996,10,initial,36.05,323,348,373,398,0,9,9,9,9,0,,,,,,,3,0,3,0,0,34,34,24,,,,,,,,,,,,num_4,0.9569814000000036,num_4,0.2,0.5,0.2,0.8,7.6411,30.5644,return,2.2930084999996865,,,,,,,,,,,,,,,,,705,19,female,left_right_width,2024-05-17_16h07.01.705,exp1,2023.1.0,59.99858403342073,
,,,,,,,,,,,,,,,,3,9.3,10,10.7,0,0,0.7,0.44999999999999996,0.25,1.65,10,initial,36.05,335,361,386,0,0,9,9,9,0,0,,,,,,,3,0,3,0,0,35,35,7,,,,,,,,,,,,num_2,0.92881149999981,num_2,0.45,1.6,0.35000000000000003,1.2,13.37193,45.8466,return,3.526567199999917,,,,,,,,,,,,,,,,,705,19,female,left_right_width,2024-05-17_16h07.01.705,exp1,2023.1.0,59.99858403342073,
,,,,,,,,,,,,,,,,4,9.1,9.7,10.3,10.9,0,0.5999999999999999,0.3499999999999999,0.25,2.05,10,match,36.05,328,350,371,393,0,9,9,9,9,0,,,,,,,3,0,3,0,0,36,36,14,,,,,,,,,,,,num_4,0.8522255999999828,num_4,0.55,1.0,0.30000000000000004,0.8,11.46165,30.5644,return,4.362793900000142,,,,,,,,,,,,,,,,,705,19,female,left_right_width,2024-05-17_16h07.01.705,exp1,2023.1.0,59.99858403342073,
,,,,,,,,,,,,,,,,4,9.3,9.766666666666667,10.233333333333333,10.7,0,0.4666666666666667,0.06666666666666665,0.4,1.8,10,match,36.05,335,352,369,386,0,9,9,9,9,0,,,,,,,3,0,3,0,0,37,37,10,,,,,,,,,,,,num_4,0.9392940000001175,num_4,0.25,0.5,0.39999999999999997,0.5,15.2822,19.10275,return,2.6093088999999594,,,,,,,,,,,,,,,,,705,19,female,left_right_width,2024-05-17_16h07.01.705,exp1,2023.1.0,59.99858403342073,
,,,,,,,,,,,,,,,,3,8.9,10,11.1,0,0,1.1,0.7000000000000001,0.4,2.6000000000000005,10,initial,36.05,321,361,400,0,0,9,9,9,0,0,,,,,,,3,0,3,0,0,38,38,4,,,,,,,,,,,,num_2,1.146386999999649,num_2,0.3,0.8,0.5499999999999999,1.7,21.01303,64.94936,return,5.078307300000105,,,,,,,,,,,,,,,,,705,19,female,left_right_width,2024-05-17_16h07.01.705,exp1,2023.1.0,59.99858403342073,
,,,,,,,,,,,,,,,,4,8.9,9.633333333333333,10.366666666666667,11.1,0,0.7333333333333333,0.18333333333333326,0.55,2.75,10,match,36.05,321,347,374,400,0,9,9,9,9,0,,,,,,,3,0,3,0,0,39,39,1,,,,,,,,,,,,num_4,0.9321107999997906,num_4,0.45,1.3,0.55,0.7,21.01303,26.74385,return,3.41658669999957,,,,,,,,,,,,,,,,,705,19,female,left_right_width,2024-05-17_16h07.01.705,exp1,2023.1.0,59.99858403342073,
,,,,,,,,,,,,,,,,4,9.1,9.7,10.3,10.9,0,0.6,0.04999999999999997,0.55,2.35,10,match,36.05,328,350,371,393,0,9,9,9,9,0,,,,,,,3,0,3,0,0,40,40,12,,,,,,,,,,,,num_4,1.4104120000000506,num_4,0.5,1.2,0.6500000000000001,0.7,24.83358,26.74385,return,6.148133999999899,,,,,,,,,,,,,,,,,705,19,female,left_right_width,2024-05-17_16h07.01.705,exp1,2023.1.0,59.99858403342073,
,,,,,,,,,,,,,,,,4,9.1,9.7,10.3,10.9,0,0.6000000000000001,0.20000000000000004,0.4,2.2,10,match,36.05,328,350,371,393,0,9,9,9,9,0,,,,,,,3,0,3,0,0,41,41,16,,,,,,,,,,,,num_5,1.0515018999998205,num_5,0.4,1.2,0.30000000000000004,0.5,11.46165,19.10275,return,5.163256799999871,,,,,,,,,,,,,,,,,705,19,female,left_right_width,2024-05-17_16h07.01.705,exp1,2023.1.0,59.99858403342073,
,,,,,,,,,,,,,,,,4,8.95,9.65,10.35,11.05,0,0.7,0.1499999999999999,0.55,2.65,10,initial,36.05,323,348,373,398,0,9,9,9,9,0,,,,,,,3,0,3,0,0,42,42,23,,,,,,,,,,,,num_4,0.9071212000002191,num_4,0.35,1.0,0.5499999999999999,0.7,21.01303,26.74385,return,2.913066799999669,,,,,,,,,,,,,,,,,705,19,female,left_right_width,2024-05-17_16h07.01.705,exp1,2023.1.0,59.99858403342073,
,,,,,,,,,,,,,,,,4,8.35,9.45,10.55,11.65,0,1.1,0.7000000000000001,0.4,3.7,10,initial,36.05,301,341,380,420,0,9,9,9,9,0,,,,,,,3,0,3,0,0,43,43,21,,,,,,,,,,,,num_4,1.1086199999998456,num_4,0.5,0.6,0.4,0.9,15.2822,34.38495,return,3.351216700000222,,,,,,,,,,,,,,,,,705,19,female,left_right_width,2024-05-17_16h07.01.705,exp1,2023.1.0,59.99858403342073,
,,,,,,,,,,,,,,,,3,7.8,10,12.2,0,0,2.2,1.9500000000000002,0.25,4.65,10,match,36.05,281,361,440,0,0,9,9,9,0,0,,,,,,,3,0,3,0,0,44,44,37,,,,,,,,,,,,num_3,1.185067600000238,num_3,0.25,0.6,0.2,0.9,7.6411,34.38495,return,4.348360899999861,,,,,,,,,,,,,,,,,705,19,female,left_right_width,2024-05-17_16h07.01.705,exp1,2023.1.0,59.99858403342073,
,,,,,,,,,,,,,,,,5,8.2,9.1,10,10.9,11.8,0.9,0.5,0.4,4,10,initial,36.05,296,328,361,393,425,9,9,9,9,9,,,,,,,3,0,3,0,0,45,45,50,,,,,,,,,,,,num_5,0.9657615999998228,num_5,0.35,0.7,0.39999999999999997,0.8,15.2822,30.5644,return,3.4228210999998367,,,,,,,,,,,,,,,,,705,19,female,left_right_width,2024-05-17_16h07.01.705,exp1,2023.1.0,59.99858403342073,
,,,,,,,,,,,,,,,,3,8.6,10,11.4,0,0,1.4,0.85,0.55,3.35,10,match,36.05,310,361,411,0,0,9,9,9,0,0,,,,,,,3,0,3,0,0,46,46,41,,,,,,,,,,,,num_2,1.0533177999994763,num_2,0.2,1.6,0.65,1.6,24.83358,61.12881,return,3.498259699999707,,,,,,,,,,,,,,,,,705,19,female,left_right_width,2024-05-17_16h07.01.705,exp1,2023.1.0,59.99858403342073,
,,,,,,,,,,,,,,,,5,8.65,9.325,10,10.675,11.35,0.675,0.275,0.4,3.1,10,match,36.05,312,336,361,385,409,9,9,9,9,9,,,,,,,3,0,3,0,0,47,47,33,,,,,,,,,,,,num_5,0.9267754000000963,num_5,0.45,0.5,0.45,0.75,17.19248,28.65413,return,2.7081747000000718,,,,,,,,,,,,,,,,,705,19,female,left_right_width,2024-05-17_16h07.01.705,exp1,2023.1.0,59.99858403342073,
,,,,,,,,,,,,,,,,5,7.8,8.9,10,11.1,12.2,1.1,0.55,0.55,4.95,10,initial,36.05,281,321,361,400,440,9,9,9,9,9,,,,,,,3,0,3,0,0,48,48,34,,,,,,,,,,,,num_4,1.118600499999829,num_4,0.3,0.6,0.49999999999999994,1.0,19.10275,38.2055,return,3.9791121000001652,,,,,,,,,,,,,,,,,705,19,female,left_right_width,2024-05-17_16h07.01.705,exp1,2023.1.0,59.99858403342073,
,,,,,,,,,,,,,,,,3,8.9,10,11.1,0,0,1.1,0.8500000000000001,0.25,2.45,10,initial,36.05,321,361,400,0,0,9,9,9,0,0,,,,,,,3,0,3,0,0,49,49,2,,,,,,,,,,,,num_3,1.1681204999998585,num_3,0.3,1.2,0.3,1.2,11.46165,45.8466,return,1.705537700000022,,,,,,,,,,,,,,,,,705,19,female,left_right_width,2024-05-17_16h07.01.705,exp1,2023.1.0,59.99858403342073,
,,,,,,,,,,,,,,,,5,7.8,8.9,10,11.1,12.2,1.1,0.8500000000000001,0.25,4.65,10,initial,36.05,281,321,361,400,440,9,9,9,9,9,,,,,,,3,0,3,0,0,50,50,36,,,,,,,,,,,,num_4,0.8785897999999719,num_4,0.35,0.8,0.2,1.2,7.6411,45.8466,return,4.184164099999961,,,,,,,,,,,,,,,,,705,19,female,left_right_width,2024-05-17_16h07.01.705,exp1,2023.1.0,59.99858403342073,
,,,,,,,,,,,,,,,,3,8.525,10,11.475,0,0,1.475,1.225,0.25,3.2,10,match,36.05,307,361,414,0,0,9,9,9,0,0,,,,,,,3,0,3,0,0,51,51,45,,,,,,,,,,,,num_3,1.0397081999998221,num_3,0.55,0.8,0.25000000000000006,1.15,9.55138,43.93633,return,5.151206700000202,,,,,,,,,,,,,,,,,705,19,female,left_right_width,2024-05-17_16h07.01.705,exp1,2023.1.0,59.99858403342073,
,,,,,,,,,,,,,,,,,,,,,,,,,,,,,,,,,,,,,,,,,,,,,3,0,3,0,,,,,,,,,,,,,,,,,,,,,,,,,,,,,2346.6141734,2346.6141734,2346.6141734,,,,,,,,,,,,705,19,female,left_right_width,2024-05-17_16h07.01.705,exp1,2023.1.0,59.99858403342073,
,,,,,,,,,,,,,,,,3,7.8,10,12.2,0,0,2.2,1.9500000000000002,0.25,4.65,10,match,36.05,281,361,440,0,0,9,9,9,0,0,,,,,,,4,0,4,0,0,0,0,37,,,,,,,,,,,,num_3,1.5258594000000443,num_3,0.3,1,0.25,1.25,9.55138,47.75688,return,3.872225999999827,,,,,,,,,,,,,,,,,705,19,female,left_right_width,2024-05-17_16h07.01.705,exp1,2023.1.0,59.99858403342073,
,,,,,,,,,,,,,,,,4,9.1,9.7,10.3,10.9,0,0.5999999999999999,0.3499999999999999,0.25,2.05,10,match,36.05,328,350,371,393,0,9,9,9,9,0,,,,,,,4,0,4,0,0,1,1,14,,,,,,,,,,,,num_4,0.9683530999999306,num_4,0.35,0.7,0.25,0.5,9.55138,19.10275,return,2.445851499999989,,,,,,,,,,,,,,,,,705,19,female,left_right_width,2024-05-17_16h07.01.705,exp1,2023.1.0,59.99858403342073,
,,,,,,,,,,,,,,,,3,8.2,10,11.8,0,0,1.8,1.55,0.25,3.85,10,match,36.05,296,361,425,0,0,9,9,9,0,0,,,,,,,4,0,4,0,0,2,2,49,,,,,,,,,,,,num_3,0.9357115999995216,num_3,0.5,1,0.30000000000000004,0.9,11.46165,34.38495,return,3.201426999999839,,,,,,,,,,,,,,,,,705,19,female,left_right_width,2024-05-17_16h07.01.705,exp1,2023.1.0,59.99858403342073,
,,,,,,,,,,,,,,,,3,9.3,10,10.7,0,0,0.7,0.1499999999999999,0.55,1.95,10,initial,36.05,335,361,386,0,0,9,9,9,0,0,,,,,,,4,0,4,0,0,3,3,6,,,,,,,,,,,,num_2,0.9053999999999718,num_2,0.2,1.0,0.5499999999999999,0.8,21.01303,30.5644,return,3.6350624999998757,,,,,,,,,,,,,,,,,705,19,female,left_right_width,2024-05-17_16h07.01.705,exp1,2023.1.0,59.99858403342073,
,,,,,,,,,,,,,,,,4,8.35,9.45,10.55,11.65,0,1.1,0.55,0.55,3.8500000000000005,10,initial,36.05,301,341,380,420,0,9,9,9,9,0,,,,,,,4,0,4,0,0,4,4,17,,,,,,,,,,,,num_3,1.146355499999899,num_3,0.25,0.4,0.44999999999999996,0.65,17.19248,24.83358,return,4.043685199999672,,,,,,,,,,,,,,,,,705,19,female,left_right_width,2024-05-17_16h07.01.705,exp1,2023.1.0,59.99858403342073,
,,,,,,,,,,,,,,,,3,8.9,10,11.1,0,0,1.1,0.7000000000000001,0.4,2.6000000000000005,10,initial,36.05,321,361,400,0,0,9,9,9,0,0,,,,,,,4,0,4,0,0,5,5,4,,,,,,,,,,,,num_3,0.9943667999999519,num_3,0.55,1.3,0.5,0.8,19.10275,30.5644,return,4.647057200000162,,,,,,,,,,,,,,,,,705,19,female,left_right_width,2024-05-17_16h07.01.705,exp1,2023.1.0,59.99858403342073,
,,,,,,,,,,,,,,,,5,8.2,9.1,10,10.9,11.8,0.9,0.65,0.25,3.85,10,initial,36.05,296,328,361,393,425,9,9,9,9,9,,,,,,,4,0,4,0,0,6,6,48,,,,,,,,,,,,num_4,1.3374781999999499,num_4,0.2,0.4,0.2,0.7,7.6411,26.74385,return,6.078134199999894,,,,,,,,,,,,,,,,,705,19,female,left_right_width,2024-05-17_16h07.01.705,exp1,2023.1.0,59.99858403342073,
,,,,,,,,,,,,,,,,4,8.95,9.65,10.35,11.05,0,0.7,0.1499999999999999,0.55,2.65,10,initial,36.05,323,348,373,398,0,9,9,9,9,0,,,,,,,4,0,4,0,0,7,7,23,,,,,,,,,,,,num_4,1.0840323000000893,num_4,0.5,0.8,0.45,0.7,17.19248,26.74385,return,3.036194599999689,,,,,,,,,,,,,,,,,705,19,female,left_right_width,2024-05-17_16h07.01.705,exp1,2023.1.0,59.99858403342073,
,,,,,,,,,,,,,,,,5,8.35,9.175,10,10.825,11.65,0.8250000000000001,0.275,0.55,3.85,10,match,36.05,301,331,361,390,420,9,9,9,9,9,,,,,,,4,0,4,0,0,8,8,18,,,,,,,,,,,,num_5,1.0391670999996308,num_5,0.55,0.6,0.55,0.7,21.01303,26.74385,return,3.012879100000063,,,,,,,,,,,,,,,,,705,19,female,left_right_width,2024-05-17_16h07.01.705,exp1,2023.1.0,59.99858403342073,
,,,,,,,,,,,,,,,,3,9.1,10,10.9,0,0,0.9,0.65,0.25,2.05,10,initial,36.05,328,361,393,0,0,9,9,9,0,0,,,,,,,4,0,4,0,0,9,9,13,,,,,,,,,,,,num_2,1.0174246999998644,num_2,0.35,0.6,0.25,0.8,9.55138,30.5644,return,3.2901864999997628,,,,,,,,,,,,,,,,,705,19,female,left_right_width,2024-05-17_16h07.01.705,exp1,2023.1.0,59.99858403342073,
,,,,,,,,,,,,,,,,4,9.1,9.7,10.3,10.9,0,0.6,0.04999999999999997,0.55,2.35,10,match,36.05,328,350,371,393,0,9,9,9,9,0,,,,,,,4,0,4,0,0,10,10,12,,,,,,,,,,,,num_4,1.3266422999998753,num_4,0.35,0.8,0.49999999999999994,0.6,19.10275,22.9233,return,4.2975924000000845,,,,,,,,,,,,,,,,,705,19,female,left_right_width,2024-05-17_16h07.01.705,exp1,2023.1.0,59.99858403342073,
,,,,,,,,,,,,,,,,5,8.2,9.1,10,10.9,11.8,0.9,0.35,0.55,4.15,10,initial,36.05,296,328,361,393,425,9,9,9,9,9,,,,,,,4,0,4,0,0,11,11,46,,,,,,,,,,,,num_5,1.0823678000000285,num_5,0.4,0.8,0.55,0.8,21.01303,30.5644,return,5.3579242999997945,,,,,,,,,,,,,,,,,705,19,female,left_right_width,2024-05-17_16h07.01.705,exp1,2023.1.0,59.99858403342073,
,,,,,,,,,,,,,,,,3,8.9,10,11.1,0,0,1.1,0.8500000000000001,0.25,2.45,10,initial,36.05,321,361,400,0,0,9,9,9,0,0,,,,,,,4,0,4,0,0,12,12,2,,,,,,,,,,,,num_3,1.0507470999999526,num_3,0.4,1,0.25000000000000006,1,9.55138,38.2055,return,3.6322407999999626,,,,,,,,,,,,,,,,,705,19,female,left_right_width,2024-05-17_16h07.01.705,exp1,2023.1.0,59.99858403342073,
,,,,,,,,,,,,,,,,5,8.35,9.175,10,10.825,11.65,0.825,0.575,0.25,3.55,10,match,36.05,301,331,361,390,420,9,9,9,9,9,,,,,,,4,0,4,0,0,13,13,20,,,,,,,,,,,,num_5,1.006856599999864,num_5,0.3,1.0,0.25,0.9,9.55138,34.38495,return,3.1574987000002324,,,,,,,,,,,,,,,,,705,19,female,left_right_width,2024-05-17_16h07.01.705,exp1,2023.1.0,59.99858403342073,
,,,,,,,,,,,,,,,,5,8.65,9.325,10,10.675,11.35,0.675,0.125,0.55,3.25,10,match,36.05,312,336,361,385,409,9,9,9,9,9,,,,,,,4,0,4,0,0,14,14,29,,,,,,,,,,,,num_5,1.0770571000001468,num_5,0.55,1.3,0.5,0.8,19.10275,30.5644,return,4.30628160000002,,,,,,,,,,,,,,,,,705,19,female,left_right_width,2024-05-17_16h07.01.705,exp1,2023.1.0,59.99858403342073,
,,,,,,,,,,,,,,,,3,8.2,10,11.8,0,0,1.8,1.25,0.55,4.15,10,match,36.05,296,361,425,0,0,9,9,9,0,0,,,,,,,4,0,4,0,0,15,15,47,,,,,,,,,,,,num_3,1.0847428000000576,num_3,0.2,0.5,0.5499999999999999,0.75,21.01303,28.65413,return,5.788784399999585,,,,,,,,,,,,,,,,,705,19,female,left_right_width,2024-05-17_16h07.01.705,exp1,2023.1.0,59.99858403342073,
,,,,,,,,,,,,,,,,3,8.2,10,11.8,0,0,1.7999999999999998,1.4,0.4,4,10,match,36.05,296,361,425,0,0,9,9,9,0,0,,,,,,,4,0,4,0,0,16,16,51,,,,,,,,,,,,num_3,0.9465794999999702,num_3,0.3,1.3,0.49999999999999994,1.3,19.10275,49.66716,return,2.487655199999935,,,,,,,,,,,,,,,,,705,19,female,left_right_width,2024-05-17_16h07.01.705,exp1,2023.1.0,59.99858403342073,
,,,,,,,,,,,,,,,,4,8.95,9.65,10.35,11.05,0,0.7,0.29999999999999993,0.4,2.5,10,initial,36.05,323,348,373,398,0,9,9,9,9,0,,,,,,,4,0,4,0,0,17,17,26,,,,,,,,,,,,num_4,0.9651711000000063,num_4,0.5,1.3,0.4,0.7,15.2822,26.74385,return,3.430641999999679,,,,,,,,,,,,,,,,,705,19,female,left_right_width,2024-05-17_16h07.01.705,exp1,2023.1.0,59.99858403342073,
,,,,,,,,,,,,,,,,4,9.1,9.7,10.3,10.9,0,0.6000000000000001,0.20000000000000004,0.4,2.2,10,match,36.05,328,350,371,393,0,9,9,9,9,0,,,,,,,4,0,4,0,0,18,18,16,,,,,,,,,,,,num_4,0.7850243000001313,num_4,0.45,1.2,0.45,0.7,17.19248,26.74385,return,2.801271900000174,,,,,,,,,,,,,,,,,705,19,female,left_right_width,2024-05-17_16h07.01.705,exp1,2023.1.0,59.99858403342073,
,,,,,,,,,,,,,,,,3,9.1,10,10.9,0,0,0.9,0.5,0.4,2.2,10,initial,36.05,328,361,393,0,0,9,9,9,0,0,,,,,,,4,0,4,0,0,19,19,15,,,,,,,,,,,,num_3,1.2976362999996667,num_3,0.2,1.3,0.39999999999999997,0.7,15.2822,26.74385,return,6.071982399999669,,,,,,,,,,,,,,,,,705,19,female,left_right_width,2024-05-17_16h07.01.705,exp1,2023.1.0,59.99858403342073,
,,,,,,,,,,,,,,,,4,8.35,9.45,10.55,11.65,0,1.1,0.8500000000000001,0.25,3.5500000000000003,10,initial,36.05,301,341,380,420,0,9,9,9,9,0,,,,,,,4,0,4,0,0,20,20,19,,,,,,,,,,,,num_4,0.817274500000039,num_4,0.45,1.2,0.25000000000000006,0.8,9.55138,30.5644,return,4.638201200000239,,,,,,,,,,,,,,,,,705,19,female,left_right_width,2024-05-17_16h07.01.705,exp1,2023.1.0,59.99858403342073,
,,,,,,,,,,,,,,,,3,9.1,10,10.9,0,0,0.9,0.35,0.55,2.35,10,initial,36.05,328,361,393,0,0,9,9,9,0,0,,,,,,,4,0,4,0,0,21,21,11,,,,,,,,,,,,num_2,1.1768871000002576,num_2,0.5,1.2,0.7500000000000002,1.1,28.65413,42.02605,return,2.773356099999873,,,,,,,,,,,,,,,,,705,19,female,left_right_width,2024-05-17_16h07.01.705,exp1,2023.1.0,59.99858403342073,
,,,,,,,,,,,,,,,,5,8.6,9.3,10,10.7,11.4,0.7,0.29999999999999993,0.4,3.1999999999999997,10,initial,36.05,310,335,361,386,411,9,9,9,9,9,,,,,,,4,0,4,0,0,22,22,44,,,,,,,,,,,,num_6,1.115955699999958,num_6,0.4,0.5,0.35000000000000003,0.7,13.37193,26.74385,return,4.263628900000057,,,,,,,,,,,,,,,,,705,19,female,left_right_width,2024-05-17_16h07.01.705,exp1,2023.1.0,59.99858403342073,
,,,,,,,,,,,,,,,,4,8.35,9.45,10.55,11.65,0,1.1,0.7000000000000001,0.4,3.7,10,initial,36.05,301,341,380,420,0,9,9,9,9,0,,,,,,,4,0,4,0,0,23,23,21,,,,,,,,,,,,num_4,0.8454381000000097,num_4,0.35,0.8,0.39999999999999997,0.9,15.2822,34.38495,return,2.934989699999605,,,,,,,,,,,,,,,,,705,19,female,left_right_width,2024-05-17_16h07.01.705,exp1,2023.1.0,59.99858403342073,
,,,,,,,,,,,,,,,,5,8.275,9.1375,10,10.8625,11.725,0.8625,0.6125,0.25,3.7,10,match,36.05,298,329,361,392,423,9,9,9,9,9,,,,,,,4,0,4,0,0,24,24,22,,,,,,,,,,,,num_5,0.8617912999996946,num_5,0.45,0.5,0.25000000000000006,0.65,9.55138,24.83358,return,4.705546699999886,,,,,,,,,,,,,,,,,705,19,female,left_right_width,2024-05-17_16h07.01.705,exp1,2023.1.0,59.99858403342073,
,,,,,,,,,,,,,,,,4,8.65,9.55,10.45,11.35,0,0.9,0.65,0.25,2.95,10,initial,36.05,312,344,377,409,0,9,9,9,9,0,,,,,,,4,0,4,0,0,25,25,30,,,,,,,,,,,,num_4,0.8111289000001847,num_4,0.25,0.9,0.2,0.7,7.6411,26.74385,return,2.4067714999999765,,,,,,,,,,,,,,,,,705,19,female,left_right_width,2024-05-17_16h07.01.705,exp1,2023.1.0,59.99858403342073,
,,,,,,,,,,,,,,,,5,8.65,9.325,10,10.675,11.35,0.675,0.42500000000000004,0.25,2.95,10,match,36.05,312,336,361,385,409,9,9,9,9,9,,,,,,,4,0,4,0,0,26,26,31,,,,,,,,,,,,num_4,0.9063322999999031,num_4,0.55,0.6,0.20000000000000007,0.7,7.6411,26.74385,return,4.077761499999596,,,,,,,,,,,,,,,,,705,19,female,left_right_width,2024-05-17_16h07.01.705,exp1,2023.1.0,59.99858403342073,
,,,,,,,,,,,,,,,,4,8.9,9.633333333333333,10.366666666666667,11.1,0,0.7333333333333333,0.18333333333333326,0.55,2.75,10,match,36.05,321,347,374,400,0,9,9,9,9,0,,,,,,,4,0,4,0,0,27,27,1,,,,,,,,,,,,num_4,0.9797435999997646,num_4,0.25,0.9,0.5499999999999999,0.7,21.01303,26.74385,return,3.5909421999998443,,,,,,,,,,,,,,,,,705,19,female,left_right_width,2024-05-17_16h07.01.705,exp1,2023.1.0,59.99858403342073,
,,,,,,,,,,,,,,,,4,8.9,9.633333333333333,10.366666666666667,11.1,0,0.7333333333333334,0.4833333333333334,0.25,2.45,10,match,36.05,321,347,374,400,0,9,9,9,9,0,,,,,,,4,0,4,0,0,28,28,3,,,,,,,,,,,,num_4,0.8877568999999852,num_4,0.2,0.6,0.2,0.7,7.6411,26.74385,return,2.868558999999877,,,,,,,,,,,,,,,,,705,19,female,left_right_width,2024-05-17_16h07.01.705,exp1,2023.1.0,59.99858403342073,
,,,,,,,,,,,,,,,,5,7.8,8.9,10,11.1,12.2,1.1,0.7000000000000001,0.4,4.800000000000001,10,initial,36.05,281,321,361,400,440,9,9,9,9,9,,,,,,,4,0,4,0,0,29,29,38,,,,,,,,,,,,num_6,0.9753336999996094,num_6,0.45,0.8,0.45,0.9,17.19248,34.38495,return,3.103669099999806,,,,,,,,,,,,,,,,,705,19,female,left_right_width,2024-05-17_16h07.01.705,exp1,2023.1.0,59.99858403342073,
,,,,,,,,,,,,,,,,4,9.3,9.766666666666667,10.233333333333333,10.7,0,0.4666666666666667,0.21666666666666665,0.25,1.65,10,match,36.05,335,352,369,386,0,9,9,9,9,0,,,,,,,4,0,4,0,0,30,30,8,,,,,,,,,,,,num_4,0.7264904999995991,num_4,0.25,1.2,0.25,0.4,9.55138,15.2822,return,2.85684070000012,,,,,,,,,,,,,,,,,705,19,female,left_right_width,2024-05-17_16h07.01.705,exp1,2023.1.0,59.99858403342073,
,,,,,,,,,,,,,,,,5,8.6,9.3,10,10.7,11.4,0.7,0.44999999999999996,0.25,3.05,10,initial,36.05,310,335,361,386,411,9,9,9,9,9,,,,,,,4,0,4,0,0,31,31,42,,,,,,,,,,,,num_5,0.9285063000000804,num_5,0.25,0.8,0.2,0.75,7.6411,28.65413,return,2.585814500000069,,,,,,,,,,,,,,,,,705,19,female,left_right_width,2024-05-17_16h07.01.705,exp1,2023.1.0,59.99858403342073,
,,,,,,,,,,,,,,,,4,8.825,9.608333333333333,10.391666666666667,11.175,0,0.7833333333333333,0.5333333333333333,0.25,2.6,10,match,36.05,318,346,375,403,0,9,9,9,9,0,,,,,,,4,0,4,0,0,32,32,5,,,,,,,,,,,,num_4,0.8266443000000976,num_4,0.4,0.7,0.20000000000000007,0.7,7.6411,26.74385,return,2.498891199999761,,,,,,,,,,,,,,,,,705,19,female,left_right_width,2024-05-17_16h07.01.705,exp1,2023.1.0,59.99858403342073,
,,,,,,,,,,,,,,,,5,8.6,9.3,10,10.7,11.4,0.7,0.1499999999999999,0.55,3.3499999999999996,10,initial,36.05,310,335,361,386,411,9,9,9,9,9,,,,,,,4,0,4,0,0,33,33,40,,,,,,,,,,,,num_5,1.6963796999997243,num_5,0.3,1.0,0.49999999999999994,0.75,19.10275,28.65413,return,7.323154599999597,,,,,,,,,,,,,,,,,705,19,female,left_right_width,2024-05-17_16h07.01.705,exp1,2023.1.0,59.99858403342073,
,,,,,,,,,,,,,,,,5,8.65,9.325,10,10.675,11.35,0.675,0.275,0.4,3.1,10,match,36.05,312,336,361,385,409,9,9,9,9,9,,,,,,,4,0,4,0,0,34,34,33,,,,,,,,,,,,num_6,1.4483217999999027,num_6,0.4,0.6,0.4,0.6,15.2822,22.9233,return,1.493265899999514,,,,,,,,,,,,,,,,,705,19,female,left_right_width,2024-05-17_16h07.01.705,exp1,2023.1.0,59.99858403342073,
,,,,,,,,,,,,,,,,3,8.6,10,11.4,0,0,1.4,0.85,0.55,3.35,10,match,36.05,310,361,411,0,0,9,9,9,0,0,,,,,,,4,0,4,0,0,35,35,41,,,,,,,,,,,,num_2,1.274941399999861,num_2,0.3,1.2,0.7500000000000001,1.4,28.65413,53.48771,return,4.630927999999912,,,,,,,,,,,,,,,,,705,19,female,left_right_width,2024-05-17_16h07.01.705,exp1,2023.1.0,59.99858403342073,
,,,,,,,,,,,,,,,,4,9.3,9.766666666666667,10.233333333333333,10.7,0,0.4666666666666667,0.06666666666666665,0.4,1.8,10,match,36.05,335,352,369,386,0,9,9,9,9,0,,,,,,,4,0,4,0,0,36,36,10,,,,,,,,,,,,num_3,1.1423594999995288,num_3,0.5,1.3,0.45,0.6,17.19248,22.9233,return,6.007505899999487,,,,,,,,,,,,,,,,,705,19,female,left_right_width,2024-05-17_16h07.01.705,exp1,2023.1.0,59.99858403342073,
,,,,,,,,,,,,,,,,3,9.3,10,10.7,0,0,0.7,0.44999999999999996,0.25,1.65,10,initial,36.05,335,361,386,0,0,9,9,9,0,0,,,,,,,4,0,4,0,0,37,37,7,,,,,,,,,,,,num_3,1.1148844999996612,num_3,0.3,1.2,0.25,0.65,9.55138,24.83358,return,4.634105699999836,,,,,,,,,,,,,,,,,705,19,female,left_right_width,2024-05-17_16h07.01.705,exp1,2023.1.0,59.99858403342073,
,,,,,,,,,,,,,,,,4,8.65,9.55,10.45,11.35,0,0.9,0.5,0.4,3.1,10,initial,36.05,312,344,377,409,0,9,9,9,9,0,,,,,,,4,0,4,0,0,38,38,32,,,,,,,,,,,,num_4,0.9892797999999488,num_4,0.45,1.3,0.4,0.8,15.2822,30.5644,return,6.178838299999697,,,,,,,,,,,,,,,,,705,19,female,left_right_width,2024-05-17_16h07.01.705,exp1,2023.1.0,59.99858403342073,
,,,,,,,,,,,,,,,,3,8.9,10,11.1,0,0,1.1,0.55,0.55,2.75,10,initial,36.05,321,361,400,0,0,9,9,9,0,0,,,,,,,4,0,4,0,0,39,39,0,,,,,,,,,,,,num_2,1.0059026000002262,num_2,0.45,1.4,0.6000000000000001,1.2,22.9233,45.8466,return,4.206947999999883,,,,,,,,,,,,,,,,,705,19,female,left_right_width,2024-05-17_16h07.01.705,exp1,2023.1.0,59.99858403342073,
,,,,,,,,,,,,,,,,3,8.525,10,11.475,0,0,1.475,1.225,0.25,3.2,10,match,36.05,307,361,414,0,0,9,9,9,0,0,,,,,,,4,0,4,0,0,40,40,45,,,,,,,,,,,,num_2,1.113836800000044,num_2,0.5,1.0,0.25000000000000006,1.4,9.55138,53.48771,return,6.881691399999781,,,,,,,,,,,,,,,,,705,19,female,left_right_width,2024-05-17_16h07.01.705,exp1,2023.1.0,59.99858403342073,
,,,,,,,,,,,,,,,,4,8.65,9.55,10.45,11.35,0,0.9,0.35,0.55,3.25,10,initial,36.05,312,344,377,409,0,9,9,9,9,0,,,,,,,4,0,4,0,0,41,41,28,,,,,,,,,,,,num_3,1.3524494999995653,num_3,0.2,0.7,0.44999999999999996,0.8,17.19248,30.5644,return,3.869566600000198,,,,,,,,,,,,,,,,,705,19,female,left_right_width,2024-05-17_16h07.01.705,exp1,2023.1.0,59.99858403342073,
,,,,,,,,,,,,,,,,3,7.8,10,12.2,0,0,2.2,1.65,0.55,4.95,10,match,36.05,281,361,440,0,0,9,9,9,0,0,,,,,,,4,0,4,0,0,42,42,35,,,,,,,,,,,,num_3,2.413140999999868,num_3,0.3,0.9,0.49999999999999994,1.8,19.10275,68.76991,return,7.575559399999619,,,,,,,,,,,,,,,,,705,19,female,left_right_width,2024-05-17_16h07.01.705,exp1,2023.1.0,59.99858403342073,
,,,,,,,,,,,,,,,,5,8.95,9.475,10,10.525,11.05,0.525,0.125,0.4,2.5,10,match,36.05,323,342,361,379,398,9,9,9,9,9,,,,,,,4,0,4,0,0,43,43,27,,,,,,,,,,,,num_5,0.9493694000001227,num_5,0.35,0.6,0.49999999999999994,0.65,19.10275,24.83358,return,2.922870999999631,,,,,,,,,,,,,,,,,705,19,female,left_right_width,2024-05-17_16h07.01.705,exp1,2023.1.0,59.99858403342073,
,,,,,,,,,,,,,,,,3,9.3,10,10.7,0,0,0.7,0.29999999999999993,0.4,1.8,10,initial,36.05,335,361,386,0,0,9,9,9,0,0,,,,,,,4,0,4,0,0,44,44,9,,,,,,,,,,,,num_2,0.9552768999995891,num_2,0.35,1.2,0.35,0.6,13.37193,22.9233,return,2.91176289999963,,,,,,,,,,,,,,,,,705,19,female,left_right_width,2024-05-17_16h07.01.705,exp1,2023.1.0,59.99858403342073,
,,,,,,,,,,,,,,,,3,7.800000000000001,10,12.2,0,0,2.1999999999999997,1.7999999999999998,0.4,4.8,10,match,36.05,281,361,440,0,0,9,9,9,0,0,,,,,,,4,0,4,0,0,45,45,39,,,,,,,,,,,,num_3,0.9849225999999902,num_3,0.25,1,0.35,1.4,13.37193,53.48771,return,5.162994599999692,,,,,,,,,,,,,,,,,705,19,female,left_right_width,2024-05-17_16h07.01.705,exp1,2023.1.0,59.99858403342073,
,,,,,,,,,,,,,,,,5,7.8,8.9,10,11.1,12.2,1.1,0.8500000000000001,0.25,4.65,10,initial,36.05,281,321,361,400,440,9,9,9,9,9,,,,,,,4,0,4,0,0,46,46,36,,,,,,,,,,,,num_5,1.0616165999998515,num_5,0.3,0.8,0.2,0.8,7.6411,30.5644,return,4.035394500000038,,,,,,,,,,,,,,,,,705,19,female,left_right_width,2024-05-17_16h07.01.705,exp1,2023.1.0,59.99858403342073,
,,,,,,,,,,,,,,,,4,8.95,9.65,10.35,11.05,0,0.7,0.44999999999999996,0.25,2.3499999999999996,10,initial,36.05,323,348,373,398,0,9,9,9,9,0,,,,,,,4,0,4,0,0,47,47,24,,,,,,,,,,,,num_4,1.102970099999638,num_4,0.25,1.1,0.25,0.8,9.55138,30.5644,return,2.6728736999997267,,,,,,,,,,,,,,,,,705,19,female,left_right_width,2024-05-17_16h07.01.705,exp1,2023.1.0,59.99858403342073,
,,,,,,,,,,,,,,,,5,8.2,9.1,10,10.9,11.8,0.9,0.5,0.4,4,10,initial,36.05,296,328,361,393,425,9,9,9,9,9,,,,,,,4,0,4,0,0,48,48,50,,,,,,,,,,,,num_5,0.9992470999999199,num_5,0.2,1.1,0.35,0.8,13.37193,30.5644,return,7.932432599999956,,,,,,,,,,,,,,,,,705,19,female,left_right_width,2024-05-17_16h07.01.705,exp1,2023.1.0,59.99858403342073,
,,,,,,,,,,,,,,,,3,8.6,10,11.4,0,0,1.4,1.15,0.25,3.05,10,match,36.05,310,361,411,0,0,9,9,9,0,0,,,,,,,4,0,4,0,0,49,49,43,,,,,,,,,,,,num_2,1.11618919999988,num_2,0.2,1.6,0.2,0.8,7.6411,30.5644,return,3.6407938999999345,,,,,,,,,,,,,,,,,705,19,female,left_right_width,2024-05-17_16h07.01.705,exp1,2023.1.0,59.99858403342073,
,,,,,,,,,,,,,,,,5,8.95,9.475,10,10.525,11.05,0.525,0.275,0.25,2.35,10,match,36.05,323,342,361,379,398,9,9,9,9,9,,,,,,,4,0,4,0,0,50,50,25,,,,,,,,,,,,num_5,0.9730963999999034,num_5,0.2,0.4,0.2,0.6,7.6411,22.9233,return,4.532501900000042,,,,,,,,,,,,,,,,,705,19,female,left_right_width,2024-05-17_16h07.01.705,exp1,2023.1.0,59.99858403342073,
,,,,,,,,,,,,,,,,5,7.8,8.9,10,11.1,12.2,1.1,0.55,0.55,4.95,10,initial,36.05,281,321,361,400,440,9,9,9,9,9,,,,,,,4,0,4,0,0,51,51,34,,,,,,,,,,,,num_5,0.9136243999999891,num_5,0.35,0.8,0.6,0.9,22.9233,34.38495,return,4.1884109999999595,,,,,,,,,,,,,,,,,705,19,female,left_right_width,2024-05-17_16h07.01.705,exp1,2023.1.0,59.99858403342073,
,,,,,,,,,,,,,,,,,,,,,,,,,,,,,,,,,,,,,,,,,,,,,4,0,4,0,,,,,,,,,,,,,,,,,,,,,,,,,,,,,2719.8808795,2719.8808795,2719.8808795,,,,,,,,,,,,705,19,female,left_right_width,2024-05-17_16h07.01.705,exp1,2023.1.0,59.99858403342073,
,,,,,,,,,,,,,,,,3,9.1,10,10.9,0,0,0.9,0.35,0.55,2.35,10,initial,36.05,328,361,393,0,0,9,9,9,0,0,,,,,,,5,0,5,0,0,0,0,11,,,,,,,,,,,,num_2,1.2258476000000513,num_2,0.2,0.8,0.5499999999999999,0.8,21.01303,30.5644,return,3.2030187999997537,,,,,,,,,,,,,,,,,705,19,female,left_right_width,2024-05-17_16h07.01.705,exp1,2023.1.0,59.99858403342073,
,,,,,,,,,,,,,,,,5,7.8,8.9,10,11.1,12.2,1.1,0.8500000000000001,0.25,4.65,10,initial,36.05,281,321,361,400,440,9,9,9,9,9,,,,,,,5,0,5,0,0,1,1,36,,,,,,,,,,,,num_5,0.8533111000000275,num_5,0.25,0.6,0.2,0.8,7.6411,30.5644,return,3.0363688999999425,,,,,,,,,,,,,,,,,705,19,female,left_right_width,2024-05-17_16h07.01.705,exp1,2023.1.0,59.99858403342073,
,,,,,,,,,,,,,,,,4,8.9,9.633333333333333,10.366666666666667,11.1,0,0.7333333333333334,0.4833333333333334,0.25,2.45,10,match,36.05,321,347,374,400,0,9,9,9,9,0,,,,,,,5,0,5,0,0,2,2,3,,,,,,,,,,,,num_4,1.1452541999995987,num_4,0.35,1.1,0.25,0.9,9.55138,34.38495,return,3.514840899999726,,,,,,,,,,,,,,,,,705,19,female,left_right_width,2024-05-17_16h07.01.705,exp1,2023.1.0,59.99858403342073,
,,,,,,,,,,,,,,,,4,9.1,9.7,10.3,10.9,0,0.6000000000000001,0.20000000000000004,0.4,2.2,10,match,36.05,328,350,371,393,0,9,9,9,9,0,,,,,,,5,0,5,0,0,3,3,16,,,,,,,,,,,,num_4,0.8011749999999296,num_4,0.35,1.2,0.35,0.6,13.37193,22.9233,return,2.509608099999568,,,,,,,,,,,,,,,,,705,19,female,left_right_width,2024-05-17_16h07.01.705,exp1,2023.1.0,59.99858403342073,
,,,,,,,,,,,,,,,,3,8.6,10,11.4,0,0,1.4,0.85,0.55,3.35,10,match,36.05,310,361,411,0,0,9,9,9,0,0,,,,,,,5,0,5,0,0,4,4,41,,,,,,,,,,,,num_2,1.1121169999999978,num_2,0.5,1.2,0.6000000000000001,1.6,22.9233,61.12881,return,3.9264674999998164,,,,,,,,,,,,,,,,,705,19,female,left_right_width,2024-05-17_16h07.01.705,exp1,2023.1.0,59.99858403342073,
,,,,,,,,,,,,,,,,4,8.65,9.55,10.45,11.35,0,0.9,0.35,0.55,3.25,10,initial,36.05,312,344,377,409,0,9,9,9,9,0,,,,,,,5,0,5,0,0,5,5,28,,,,,,,,,,,,num_2,1.2363131000000607,num_2,0.55,1.2,0.6000000000000001,1.1,22.9233,42.02605,return,3.138233399999862,,,,,,,,,,,,,,,,,705,19,female,left_right_width,2024-05-17_16h07.01.705,exp1,2023.1.0,59.99858403342073,
