amount_p,posx1_p,posx2_p,posx3_p,posx4_p,posx5_p,center_to_center_p,edge_to_edge_p,w_p,stim_lengt_p,eccentricity_p,line1_p,line2_p,line3_p,line4_p,line5_p,amount,posx1,posx2,posx3,posx4,posx5,center_to_center,edge_to_edge,w,stim_length,eccentricity,trial_type,deg_to_pix_index,posx1_in_pix,posx2_in_pix,posx3_in_pix,posx4_in_pix,posx5_in_pix,line1,line2,line3,line4,line5,posx,setsize_cobdi,trials.thisRepN,trials.thisTrialN,trials.thisN,trials.thisIndex,blocks.thisRepN,blocks.thisTrialN,blocks.thisN,blocks.thisIndex,loop.thisRepN,loop.thisTrialN,loop.thisN,loop.thisIndex,first.thisRepN,first.thisTrialN,first.thisN,first.thisIndex,second.thisRepN,second.thisTrialN,second.thisN,second.thisIndex,key_resp_3.started,key_resp_3.keys,key_resp_3.rt,key_resp.keys,key_resp.rt,response,starting_width_deg,starting_space_deg,response_width_degree,response_spacing_degree,response_width_pixel,response_spacing_pixel,next_5.keys,next_5.rt,key_resp_4.keys,key_resp_4.rt,text_3.started,text_4.started,key_resp_2.started,text_2.started,key_resp_2.keys,key_resp_2.rt,adjusting.started,next.keys,next.rt,text_control2.started,key_resp.started,key_resp.corr,text_bye.started,text_bye.stopped,participant,age,gender,resp_group,date,expName,psychopyVersion,frameRate,
,,,,,,,,,,,,,,,,,,,,,,,,,,,,,,,,,,,,,,,,,,,,,,,,,,,,,,,,,,,,,30.478780599980382,c,116.59114889998455,,,,,,,,,,,,,,,,,,,,,,,,,,,,706,23,male,up_down_width,2024-05-19_16h21.25.132,exp1,2023.1.0,60.063883947441624,
3,9,10,11,0,0,1,0.9,0.1,2.1,10,9,9,9,0,0,,,,,,,,,,,,,,,,,,,,,,,,,,0,0,0,1,,,,,,,,,,,,,,,,,,,,num_2,6.10729449999053,num_2,0.55,1.0,0.10000000000000007,0.9,3.82055,34.38495,return,21.734911900013685,,,,,,,,,,,,,,,,,706,23,male,up_down_width,2024-05-19_16h21.25.132,exp1,2023.1.0,60.063883947441624,
3,9.5,10,10.5,0,0,0.5,0.4,0.1,1.1,10,9,9,9,0,0,,,,,,,,,,,,,,,,,,,,,,,,,,0,1,1,0,,,,,,,,,,,,,,,,,,,,num_3,3.0427908999845386,num_3,0.55,0.7,0.15000000000000008,0.7,5.73083,26.74385,return,8.008544300013455,,,,,,,,,,,,,,,,,706,23,male,up_down_width,2024-05-19_16h21.25.132,exp1,2023.1.0,60.063883947441624,
5,8.6,9.3,10,10.7,11.4,0.7,0.29999999999999993,0.4,3.1999999999999997,10,9,9,9,9,9,,,,,,,,,,,,,,,,,,,,,,,,,,0,2,2,7,,,,,,,,,,,,,,,,,,,,num_5,1.8563787999737542,num_5,0.2,0.7,0.35,0.7,13.37193,26.74385,return,2.5490031999943312,,,,,,,,,,,,,,,,,706,23,male,up_down_width,2024-05-19_16h21.25.132,exp1,2023.1.0,60.063883947441624,
3,8.2,10,11.8,0,0,1.7999999999999998,1.4,0.4,4,10,9,9,9,0,0,,,,,,,,,,,,,,,,,,,,,,,,,,0,3,3,2,,,,,,,,,,,,,,,,,,,,num_3,2.444537500006845,num_3,0.45,0.9,0.35000000000000003,1.5,13.37193,57.30826,return,6.473507699993206,,,,,,,,,,,,,,,,,706,23,male,up_down_width,2024-05-19_16h21.25.132,exp1,2023.1.0,60.063883947441624,
4,9.5,9.833333333333334,10.166666666666666,10.5,0,0.33333333333333337,0.23333333333333336,0.1,1.1,10,9,9,9,9,0,,,,,,,,,,,,,,,,,,,,,,,,,,0,4,4,3,,,,,,,,,,,,,,,,,,,,num_4,2.008137600001646,num_4,0.2,0.8,0.10000000000000002,0.7,3.82055,26.74385,return,5.622582100011641,,,,,,,,,,,,,,,,,706,23,male,up_down_width,2024-05-19_16h21.25.132,exp1,2023.1.0,60.063883947441624,
4,9.25,9.75,10.25,10.75,0,0.5,0.25,0.25,1.75,10,9,9,9,9,0,,,,,,,,,,,,,,,,,,,,,,,,,,0,5,5,4,,,,,,,,,,,,,,,,,,,,num_4,2.2785460999875795,num_4,0.4,1.0,0.20000000000000007,0.7,7.6411,26.74385,return,6.97068150000996,,,,,,,,,,,,,,,,,706,23,male,up_down_width,2024-05-19_16h21.25.132,exp1,2023.1.0,60.063883947441624,
5,9.25,9.625,10,10.375,10.75,0.375,0.125,0.25,1.75,10,9,9,9,9,9,,,,,,,,,,,,,,,,,,,,,,,,,,0,6,6,6,,,,,,,,,,,,,,,,,,,,num_5,1.5806495000142604,num_5,0.3,0.6,0.25,0.45,9.55138,17.19248,return,4.012117400008719,,,,,,,,,,,,,,,,,706,23,male,up_down_width,2024-05-19_16h21.25.132,exp1,2023.1.0,60.063883947441624,
5,9,9.5,10,10.5,11,0.5,0.09999999999999998,0.4,2.4,10,9,9,9,9,9,,,,,,,,,,,,,,,,,,,,,,,,,,0,7,7,8,,,,,,,,,,,,,,,,,,,,num_5,2.1249764999956824,num_5,0.35,0.4,0.25,0.4,9.55138,15.2822,return,6.711385900009191,,,,,,,,,,,,,,,,,706,23,male,up_down_width,2024-05-19_16h21.25.132,exp1,2023.1.0,60.063883947441624,
4,8.65,9.55,10.45,11.35,0,0.9,0.5,0.4,3.1,10,9,9,9,9,0,,,,,,,,,,,,,,,,,,,,,,,,,,0,8,8,5,,,,,,,,,,,,,,,,,,,,num_4,2.0199507999932393,num_4,0.55,1.0,0.4,0.9,15.2822,34.38495,return,7.298262199998135,,,,,,,,,,,,,,,,,706,23,male,up_down_width,2024-05-19_16h21.25.132,exp1,2023.1.0,60.063883947441624,
,,,,,,,,,,,,,,,,,,,,,,,,,,,,,,,,,,,,,,,,,,,,,,,,,,,,,,,,,,,,,,,,,,,,,,,,,,,c,63.388117700000294,,,,,,,,,,,,,,,706,23,male,up_down_width,2024-05-19_16h21.25.132,exp1,2023.1.0,60.063883947441624,
,,,,,,,,,,,,,,,,4,8.95,9.65,10.35,11.05,0,0.7,0.29999999999999993,0.4,2.5,10,initial,36.05,323,348,373,398,0,9,9,9,9,0,,,,,,,0,0,0,0,0,0,0,26,,,,,,,,,,,,num_4,3.1456612999900244,num_4,0.3,0.7,0.25,0.6,9.55138,22.9233,return,5.386541399988346,,,,,,,,,,,,,,,,,706,23,male,up_down_width,2024-05-19_16h21.25.132,exp1,2023.1.0,60.063883947441624,
,,,,,,,,,,,,,,,,5,8.35,9.175,10,10.825,11.65,0.8250000000000001,0.275,0.55,3.85,10,match,36.05,301,331,361,390,420,9,9,9,9,9,,,,,,,0,0,0,0,0,1,1,18,,,,,,,,,,,,num_5,1.4306093000050168,num_5,0.55,0.8,0.55,0.8,21.01303,30.5644,return,4.349167400010629,,,,,,,,,,,,,,,,,706,23,male,up_down_width,2024-05-19_16h21.25.132,exp1,2023.1.0,60.063883947441624,
,,,,,,,,,,,,,,,,3,7.8,10,12.2,0,0,2.2,1.9500000000000002,0.25,4.65,10,match,36.05,281,361,440,0,0,9,9,9,0,0,,,,,,,0,0,0,0,0,2,2,37,,,,,,,,,,,,num_2,2.325518799974816,num_2,0.3,1.2,0.2,2.9,7.6411,110.79596,return,8.455814800021471,,,,,,,,,,,,,,,,,706,23,male,up_down_width,2024-05-19_16h21.25.132,exp1,2023.1.0,60.063883947441624,
,,,,,,,,,,,,,,,,4,9.1,9.7,10.3,10.9,0,0.6,0.04999999999999997,0.55,2.35,10,match,36.05,328,350,371,393,0,9,9,9,9,0,,,,,,,0,0,0,0,0,3,3,12,,,,,,,,,,,,num_4,1.2762635999824852,num_4,0.35,0.5,0.6,0.7,22.9233,26.74385,return,6.040144300000975,,,,,,,,,,,,,,,,,706,23,male,up_down_width,2024-05-19_16h21.25.132,exp1,2023.1.0,60.063883947441624,
,,,,,,,,,,,,,,,,4,9.3,9.766666666666667,10.233333333333333,10.7,0,0.4666666666666667,0.21666666666666665,0.25,1.65,10,match,36.05,335,352,369,386,0,9,9,9,9,0,,,,,,,0,0,0,0,0,4,4,8,,,,,,,,,,,,num_4,1.3280067000014242,num_4,0.25,0.8,0.25,0.5,9.55138,19.10275,return,2.154027699987637,,,,,,,,,,,,,,,,,706,23,male,up_down_width,2024-05-19_16h21.25.132,exp1,2023.1.0,60.063883947441624,
,,,,,,,,,,,,,,,,3,9.3,10,10.7,0,0,0.7,0.44999999999999996,0.25,1.65,10,initial,36.05,335,361,386,0,0,9,9,9,0,0,,,,,,,0,0,0,0,0,5,5,7,,,,,,,,,,,,num_3,1.5203228000027593,num_3,0.3,0.6,0.2,0.55,7.6411,21.01303,return,5.618255099980161,,,,,,,,,,,,,,,,,706,23,male,up_down_width,2024-05-19_16h21.25.132,exp1,2023.1.0,60.063883947441624,
,,,,,,,,,,,,,,,,4,8.9,9.633333333333333,10.366666666666667,11.1,0,0.7333333333333334,0.4833333333333334,0.25,2.45,10,match,36.05,321,347,374,400,0,9,9,9,9,0,,,,,,,0,0,0,0,0,6,6,3,,,,,,,,,,,,num_4,1.3871664000034798,num_4,0.45,0.7,0.10000000000000007,0.7,3.82055,26.74385,return,3.2357899000053294,,,,,,,,,,,,,,,,,706,23,male,up_down_width,2024-05-19_16h21.25.132,exp1,2023.1.0,60.063883947441624,
,,,,,,,,,,,,,,,,4,8.825,9.608333333333333,10.391666666666667,11.175,0,0.7833333333333333,0.5333333333333333,0.25,2.6,10,match,36.05,318,346,375,403,0,9,9,9,9,0,,,,,,,0,0,0,0,0,7,7,5,,,,,,,,,,,,num_5,3.630513300013263,num_5,0.45,1.2,0.15000000000000008,0.75,5.73083,28.65413,return,6.925219500000821,,,,,,,,,,,,,,,,,706,23,male,up_down_width,2024-05-19_16h21.25.132,exp1,2023.1.0,60.063883947441624,
,,,,,,,,,,,,,,,,4,8.35,9.45,10.55,11.65,0,1.1,0.55,0.55,3.8500000000000005,10,initial,36.05,301,341,380,420,0,9,9,9,9,0,,,,,,,0,0,0,0,0,8,8,17,,,,,,,,,,,,num_5,1.1661732000065967,num_5,0.35,0.4,0.35,1.05,13.37193,40.11578,return,7.1274044000019785,,,,,,,,,,,,,,,,,706,23,male,up_down_width,2024-05-19_16h21.25.132,exp1,2023.1.0,60.063883947441624,
,,,,,,,,,,,,,,,,4,8.95,9.65,10.35,11.05,0,0.7,0.1499999999999999,0.55,2.65,10,initial,36.05,323,348,373,398,0,9,9,9,9,0,,,,,,,0,0,0,0,0,9,9,23,,,,,,,,,,,,num_4,1.326733800000511,num_4,0.3,1.0,0.6,0.8,22.9233,30.5644,return,5.4431925000099,,,,,,,,,,,,,,,,,706,23,male,up_down_width,2024-05-19_16h21.25.132,exp1,2023.1.0,60.063883947441624,
,,,,,,,,,,,,,,,,3,8.2,10,11.8,0,0,1.8,1.55,0.25,3.85,10,match,36.05,296,361,425,0,0,9,9,9,0,0,,,,,,,0,0,0,0,0,10,10,49,,,,,,,,,,,,num_3,1.201469099993119,num_3,0.4,0.7,0.25000000000000006,1.25,9.55138,47.75688,return,6.974899299995741,,,,,,,,,,,,,,,,,706,23,male,up_down_width,2024-05-19_16h21.25.132,exp1,2023.1.0,60.063883947441624,
,,,,,,,,,,,,,,,,5,8.65,9.325,10,10.675,11.35,0.675,0.275,0.4,3.1,10,match,36.05,312,336,361,385,409,9,9,9,9,9,,,,,,,0,0,0,0,0,11,11,33,,,,,,,,,,,,num_5,1.0287737000035122,num_5,0.55,1.0,0.6000000000000001,0.9,22.9233,34.38495,return,3.6366736000054516,,,,,,,,,,,,,,,,,706,23,male,up_down_width,2024-05-19_16h21.25.132,exp1,2023.1.0,60.063883947441624,
,,,,,,,,,,,,,,,,4,8.95,9.65,10.35,11.05,0,0.7,0.44999999999999996,0.25,2.3499999999999996,10,initial,36.05,323,348,373,398,0,9,9,9,9,0,,,,,,,0,0,0,0,0,12,12,24,,,,,,,,,,,,num_4,1.3395040999748744,num_4,0.3,0.5,0.25,1.0,9.55138,38.2055,return,2.559056199999759,,,,,,,,,,,,,,,,,706,23,male,up_down_width,2024-05-19_16h21.25.132,exp1,2023.1.0,60.063883947441624,
,,,,,,,,,,,,,,,,5,8.65,9.325,10,10.675,11.35,0.675,0.42500000000000004,0.25,2.95,10,match,36.05,312,336,361,385,409,9,9,9,9,9,,,,,,,0,0,0,0,0,13,13,31,,,,,,,,,,,,num_5,1.2313595000014175,num_5,0.25,1.2,0.2,0.9,7.6411,34.38495,return,3.3175552999891806,,,,,,,,,,,,,,,,,706,23,male,up_down_width,2024-05-19_16h21.25.132,exp1,2023.1.0,60.063883947441624,
,,,,,,,,,,,,,,,,4,8.65,9.55,10.45,11.35,0,0.9,0.65,0.25,2.95,10,initial,36.05,312,344,377,409,0,9,9,9,9,0,,,,,,,0,0,0,0,0,14,14,30,,,,,,,,,,,,num_4,0.9645903999917209,num_4,0.2,1.2,0.2,0.8,7.6411,30.5644,return,2.036055100004887,,,,,,,,,,,,,,,,,706,23,male,up_down_width,2024-05-19_16h21.25.132,exp1,2023.1.0,60.063883947441624,
,,,,,,,,,,,,,,,,5,8.2,9.1,10,10.9,11.8,0.9,0.5,0.4,4,10,initial,36.05,296,328,361,393,425,9,9,9,9,9,,,,,,,0,0,0,0,0,15,15,50,,,,,,,,,,,,num_5,1.5294028000207618,num_5,0.4,1.3,0.35000000000000003,0.8,13.37193,30.5644,return,3.989011700003175,,,,,,,,,,,,,,,,,706,23,male,up_down_width,2024-05-19_16h21.25.132,exp1,2023.1.0,60.063883947441624,
,,,,,,,,,,,,,,,,5,7.8,8.9,10,11.1,12.2,1.1,0.55,0.55,4.95,10,initial,36.05,281,321,361,400,440,9,9,9,9,9,,,,,,,0,0,0,0,0,16,16,34,,,,,,,,,,,,num_5,1.2843770000035875,num_5,0.5,0.6,0.45,1.25,17.19248,47.75688,return,4.24860429999535,,,,,,,,,,,,,,,,,706,23,male,up_down_width,2024-05-19_16h21.25.132,exp1,2023.1.0,60.063883947441624,
,,,,,,,,,,,,,,,,4,8.9,9.633333333333333,10.366666666666667,11.1,0,0.7333333333333333,0.18333333333333326,0.55,2.75,10,match,36.05,321,347,374,400,0,9,9,9,9,0,,,,,,,0,0,0,0,0,17,17,1,,,,,,,,,,,,num_4,1.031050600024173,num_4,0.3,1.2,0.49999999999999994,0.6,19.10275,22.9233,return,6.6431320999981835,,,,,,,,,,,,,,,,,706,23,male,up_down_width,2024-05-19_16h21.25.132,exp1,2023.1.0,60.063883947441624,
,,,,,,,,,,,,,,,,3,8.6,10,11.4,0,0,1.4,0.85,0.55,3.35,10,match,36.05,310,361,411,0,0,9,9,9,0,0,,,,,,,0,0,0,0,0,18,18,41,,,,,,,,,,,,num_4,0.9861900999967474,num_4,0.45,1.2,0.45,1.2,17.19248,45.8466,return,1.2896880999905989,,,,,,,,,,,,,,,,,706,23,male,up_down_width,2024-05-19_16h21.25.132,exp1,2023.1.0,60.063883947441624,
,,,,,,,,,,,,,,,,5,8.275,9.1375,10,10.8625,11.725,0.8625,0.6125,0.25,3.7,10,match,36.05,298,329,361,392,423,9,9,9,9,9,,,,,,,0,0,0,0,0,19,19,22,,,,,,,,,,,,num_5,2.7880404999887105,num_5,0.45,0.9,0.25000000000000006,0.9,9.55138,34.38495,return,2.046379200008232,,,,,,,,,,,,,,,,,706,23,male,up_down_width,2024-05-19_16h21.25.132,exp1,2023.1.0,60.063883947441624,
,,,,,,,,,,,,,,,,3,8.2,10,11.8,0,0,1.7999999999999998,1.4,0.4,4,10,match,36.05,296,361,425,0,0,9,9,9,0,0,,,,,,,0,0,0,0,0,20,20,51,,,,,,,,,,,,num_3,2.3541097000124864,num_3,0.5,0.7,0.25000000000000006,1.2,9.55138,45.8466,return,5.869704600016121,,,,,,,,,,,,,,,,,706,23,male,up_down_width,2024-05-19_16h21.25.132,exp1,2023.1.0,60.063883947441624,
,,,,,,,,,,,,,,,,5,7.8,8.9,10,11.1,12.2,1.1,0.7000000000000001,0.4,4.800000000000001,10,initial,36.05,281,321,361,400,440,9,9,9,9,9,,,,,,,0,0,0,0,0,21,21,38,,,,,,,,,,,,num_5,1.1483136000169907,num_5,0.4,1.3,0.20000000000000007,0.85,7.6411,32.47468,return,6.534300500003155,,,,,,,,,,,,,,,,,706,23,male,up_down_width,2024-05-19_16h21.25.132,exp1,2023.1.0,60.063883947441624,
,,,,,,,,,,,,,,,,3,8.9,10,11.1,0,0,1.1,0.8500000000000001,0.25,2.45,10,initial,36.05,321,361,400,0,0,9,9,9,0,0,,,,,,,0,0,0,0,0,22,22,2,,,,,,,,,,,,num_3,1.3846169000025839,num_3,0.35,0.6,0.15000000000000002,0.6,5.73083,22.9233,return,1.7968704999948386,,,,,,,,,,,,,,,,,706,23,male,up_down_width,2024-05-19_16h21.25.132,exp1,2023.1.0,60.063883947441624,
,,,,,,,,,,,,,,,,3,9.1,10,10.9,0,0,0.9,0.35,0.55,2.35,10,initial,36.05,328,361,393,0,0,9,9,9,0,0,,,,,,,0,0,0,0,0,23,23,11,,,,,,,,,,,,num_3,1.0881253000115976,num_3,0.2,0.8,0.44999999999999996,0.7,17.19248,26.74385,return,3.4765881999919657,,,,,,,,,,,,,,,,,706,23,male,up_down_width,2024-05-19_16h21.25.132,exp1,2023.1.0,60.063883947441624,
,,,,,,,,,,,,,,,,3,8.525,10,11.475,0,0,1.475,1.225,0.25,3.2,10,match,36.05,307,361,414,0,0,9,9,9,0,0,,,,,,,0,0,0,0,0,24,24,45,,,,,,,,,,,,num_3,1.058041599986609,num_3,0.35,1,0.25,1.3,9.55138,49.66716,return,7.159529600001406,,,,,,,,,,,,,,,,,706,23,male,up_down_width,2024-05-19_16h21.25.132,exp1,2023.1.0,60.063883947441624,
,,,,,,,,,,,,,,,,5,8.2,9.1,10,10.9,11.8,0.9,0.35,0.55,4.15,10,initial,36.05,296,328,361,393,425,9,9,9,9,9,,,,,,,0,0,0,0,0,25,25,46,,,,,,,,,,,,num_5,1.0864612000004854,num_5,0.25,0.9,0.5499999999999999,0.9,21.01303,34.38495,return,2.5472562999930233,,,,,,,,,,,,,,,,,706,23,male,up_down_width,2024-05-19_16h21.25.132,exp1,2023.1.0,60.063883947441624,
,,,,,,,,,,,,,,,,4,8.35,9.45,10.55,11.65,0,1.1,0.7000000000000001,0.4,3.7,10,initial,36.05,301,341,380,420,0,9,9,9,9,0,,,,,,,0,0,0,0,0,26,26,21,,,,,,,,,,,,num_4,1.4660129999974743,num_4,0.35,0.5,0.2,1.1,7.6411,42.02605,return,4.08790709997993,,,,,,,,,,,,,,,,,706,23,male,up_down_width,2024-05-19_16h21.25.132,exp1,2023.1.0,60.063883947441624,
,,,,,,,,,,,,,,,,5,8.95,9.475,10,10.525,11.05,0.525,0.275,0.25,2.35,10,match,36.05,323,342,361,379,398,9,9,9,9,9,,,,,,,0,0,0,0,0,27,27,25,,,,,,,,,,,,num_5,1.0476699999999255,num_5,0.55,0.6,0.10000000000000007,0.45,3.82055,17.19248,return,5.63484359998256,,,,,,,,,,,,,,,,,706,23,male,up_down_width,2024-05-19_16h21.25.132,exp1,2023.1.0,60.063883947441624,
,,,,,,,,,,,,,,,,5,8.35,9.175,10,10.825,11.65,0.825,0.575,0.25,3.55,10,match,36.05,301,331,361,390,420,9,9,9,9,9,,,,,,,0,0,0,0,0,28,28,20,,,,,,,,,,,,num_5,1.064262100000633,num_5,0.2,0.8,0.25,0.7,9.55138,26.74385,return,6.261083600023994,,,,,,,,,,,,,,,,,706,23,male,up_down_width,2024-05-19_16h21.25.132,exp1,2023.1.0,60.063883947441624,
,,,,,,,,,,,,,,,,5,8.6,9.3,10,10.7,11.4,0.7,0.44999999999999996,0.25,3.05,10,initial,36.05,310,335,361,386,411,9,9,9,9,9,,,,,,,0,0,0,0,0,29,29,42,,,,,,,,,,,,num_5,2.024936300003901,num_5,0.45,0.5,0.20000000000000007,0.55,7.6411,21.01303,return,6.209906600008253,,,,,,,,,,,,,,,,,706,23,male,up_down_width,2024-05-19_16h21.25.132,exp1,2023.1.0,60.063883947441624,
,,,,,,,,,,,,,,,,3,9.1,10,10.9,0,0,0.9,0.5,0.4,2.2,10,initial,36.05,328,361,393,0,0,9,9,9,0,0,,,,,,,0,0,0,0,0,30,30,15,,,,,,,,,,,,num_3,1.1486048999940977,num_3,0.5,1.2,0.5,1.2,19.10275,45.8466,return,0.9699209000100382,,,,,,,,,,,,,,,,,706,23,male,up_down_width,2024-05-19_16h21.25.132,exp1,2023.1.0,60.063883947441624,
,,,,,,,,,,,,,,,,5,8.95,9.475,10,10.525,11.05,0.525,0.125,0.4,2.5,10,match,36.05,323,342,361,379,398,9,9,9,9,9,,,,,,,0,0,0,0,0,31,31,27,,,,,,,,,,,,num_5,0.8779357000021264,num_5,0.45,0.8,0.4,0.55,15.2822,21.01303,return,3.7953050000069197,,,,,,,,,,,,,,,,,706,23,male,up_down_width,2024-05-19_16h21.25.132,exp1,2023.1.0,60.063883947441624,
,,,,,,,,,,,,,,,,3,9.1,10,10.9,0,0,0.9,0.65,0.25,2.05,10,initial,36.05,328,361,393,0,0,9,9,9,0,0,,,,,,,0,0,0,0,0,32,32,13,,,,,,,,,,,,num_3,1.1184724000049755,num_3,0.5,1,0.20000000000000007,1,7.6411,38.2055,return,2.9884854999836534,,,,,,,,,,,,,,,,,706,23,male,up_down_width,2024-05-19_16h21.25.132,exp1,2023.1.0,60.063883947441624,
,,,,,,,,,,,,,,,,4,9.3,9.766666666666667,10.233333333333333,10.7,0,0.4666666666666667,0.06666666666666665,0.4,1.8,10,match,36.05,335,352,369,386,0,9,9,9,9,0,,,,,,,0,0,0,0,0,33,33,10,,,,,,,,,,,,num_3,1.1065439000085462,num_3,0.2,0.8,0.49999999999999994,0.7,19.10275,26.74385,return,4.030605600011768,,,,,,,,,,,,,,,,,706,23,male,up_down_width,2024-05-19_16h21.25.132,exp1,2023.1.0,60.063883947441624,
,,,,,,,,,,,,,,,,4,8.65,9.55,10.45,11.35,0,0.9,0.5,0.4,3.1,10,initial,36.05,312,344,377,409,0,9,9,9,9,0,,,,,,,0,0,0,0,0,34,34,32,,,,,,,,,,,,num_5,1.2591853000049014,num_5,0.45,1.1,0.30000000000000004,0.8,11.46165,30.5644,return,3.3147421999892686,,,,,,,,,,,,,,,,,706,23,male,up_down_width,2024-05-19_16h21.25.132,exp1,2023.1.0,60.063883947441624,
,,,,,,,,,,,,,,,,3,7.8,10,12.2,0,0,2.2,1.65,0.55,4.95,10,match,36.05,281,361,440,0,0,9,9,9,0,0,,,,,,,0,0,0,0,0,35,35,35,,,,,,,,,,,,num_3,1.0874198000237811,num_3,0.35,0.5,0.35,2.45,13.37193,93.60348,return,10.670543299987912,,,,,,,,,,,,,,,,,706,23,male,up_down_width,2024-05-19_16h21.25.132,exp1,2023.1.0,60.063883947441624,
,,,,,,,,,,,,,,,,3,8.2,10,11.8,0,0,1.8,1.25,0.55,4.15,10,match,36.05,296,361,425,0,0,9,9,9,0,0,,,,,,,0,0,0,0,0,36,36,47,,,,,,,,,,,,num_3,1.0619245000125375,num_3,0.55,0.9,0.55,2.2,21.01303,84.05211,return,7.0012793999922,,,,,,,,,,,,,,,,,706,23,male,up_down_width,2024-05-19_16h21.25.132,exp1,2023.1.0,60.063883947441624,
,,,,,,,,,,,,,,,,3,8.9,10,11.1,0,0,1.1,0.55,0.55,2.75,10,initial,36.05,321,361,400,0,0,9,9,9,0,0,,,,,,,0,0,0,0,0,37,37,0,,,,,,,,,,,,num_3,1.0327443999995012,num_3,0.35,1.3,0.39999999999999997,0.95,15.2822,36.29523,return,3.4205802000069525,,,,,,,,,,,,,,,,,706,23,male,up_down_width,2024-05-19_16h21.25.132,exp1,2023.1.0,60.063883947441624,
,,,,,,,,,,,,,,,,4,8.65,9.55,10.45,11.35,0,0.9,0.35,0.55,3.25,10,initial,36.05,312,344,377,409,0,9,9,9,9,0,,,,,,,0,0,0,0,0,38,38,28,,,,,,,,,,,,num_3,1.1367283999861684,num_3,0.4,0.6,0.5,0.95,19.10275,36.29523,return,3.0077396999986377,,,,,,,,,,,,,,,,,706,23,male,up_down_width,2024-05-19_16h21.25.132,exp1,2023.1.0,60.063883947441624,
,,,,,,,,,,,,,,,,4,9.1,9.7,10.3,10.9,0,0.5999999999999999,0.3499999999999999,0.25,2.05,10,match,36.05,328,350,371,393,0,9,9,9,9,0,,,,,,,0,0,0,0,0,39,39,14,,,,,,,,,,,,num_4,1.5347053000004962,num_4,0.5,1.0,0.20000000000000007,0.6,7.6411,22.9233,return,3.367929300002288,,,,,,,,,,,,,,,,,706,23,male,up_down_width,2024-05-19_16h21.25.132,exp1,2023.1.0,60.063883947441624,
,,,,,,,,,,,,,,,,3,9.3,10,10.7,0,0,0.7,0.29999999999999993,0.4,1.8,10,initial,36.05,335,361,386,0,0,9,9,9,0,0,,,,,,,0,0,0,0,0,40,40,9,,,,,,,,,,,,num_3,1.0433016000024509,num_3,0.25,0.7,0.39999999999999997,0.7,15.2822,26.74385,return,2.129592599987518,,,,,,,,,,,,,,,,,706,23,male,up_down_width,2024-05-19_16h21.25.132,exp1,2023.1.0,60.063883947441624,
,,,,,,,,,,,,,,,,3,8.9,10,11.1,0,0,1.1,0.7000000000000001,0.4,2.6000000000000005,10,initial,36.05,321,361,400,0,0,9,9,9,0,0,,,,,,,0,0,0,0,0,41,41,4,,,,,,,,,,,,num_3,0.8541474000085145,num_3,0.35,1.1,0.39999999999999997,0.95,15.2822,36.29523,return,2.526802599983057,,,,,,,,,,,,,,,,,706,23,male,up_down_width,2024-05-19_16h21.25.132,exp1,2023.1.0,60.063883947441624,
,,,,,,,,,,,,,,,,5,8.2,9.1,10,10.9,11.8,0.9,0.65,0.25,3.85,10,initial,36.05,296,328,361,393,425,9,9,9,9,9,,,,,,,0,0,0,0,0,42,42,48,,,,,,,,,,,,num_5,0.8469471999851521,num_5,0.25,1.0,0.25,1.0,9.55138,38.2055,return,0.8927913999941666,,,,,,,,,,,,,,,,,706,23,male,up_down_width,2024-05-19_16h21.25.132,exp1,2023.1.0,60.063883947441624,
,,,,,,,,,,,,,,,,5,8.6,9.3,10,10.7,11.4,0.7,0.29999999999999993,0.4,3.1999999999999997,10,initial,36.05,310,335,361,386,411,9,9,9,9,9,,,,,,,0,0,0,0,0,43,43,44,,,,,,,,,,,,num_5,1.6601042000111192,num_5,0.2,0.3,0.25,1.0,9.55138,38.2055,return,7.380130600009579,,,,,,,,,,,,,,,,,706,23,male,up_down_width,2024-05-19_16h21.25.132,exp1,2023.1.0,60.063883947441624,
,,,,,,,,,,,,,,,,4,9.1,9.7,10.3,10.9,0,0.6000000000000001,0.20000000000000004,0.4,2.2,10,match,36.05,328,350,371,393,0,9,9,9,9,0,,,,,,,0,0,0,0,0,44,44,16,,,,,,,,,,,,num_4,1.0586726999899838,num_4,0.45,1.2,0.35000000000000003,0.7,13.37193,26.74385,return,4.678809600009117,,,,,,,,,,,,,,,,,706,23,male,up_down_width,2024-05-19_16h21.25.132,exp1,2023.1.0,60.063883947441624,
,,,,,,,,,,,,,,,,3,8.6,10,11.4,0,0,1.4,1.15,0.25,3.05,10,match,36.05,310,361,411,0,0,9,9,9,0,0,,,,,,,0,0,0,0,0,45,45,43,,,,,,,,,,,,num_2,1.0454184999980498,num_2,0.4,1.4,0.20000000000000007,4.1,7.6411,156.64257,return,8.597744599974249,,,,,,,,,,,,,,,,,706,23,male,up_down_width,2024-05-19_16h21.25.132,exp1,2023.1.0,60.063883947441624,
,,,,,,,,,,,,,,,,5,8.6,9.3,10,10.7,11.4,0.7,0.1499999999999999,0.55,3.3499999999999996,10,initial,36.05,310,335,361,386,411,9,9,9,9,9,,,,,,,0,0,0,0,0,46,46,40,,,,,,,,,,,,num_4,1.0620106999995187,num_4,0.45,0.8,0.6500000000000001,0.8,24.83358,30.5644,return,4.64834770001471,,,,,,,,,,,,,,,,,706,23,male,up_down_width,2024-05-19_16h21.25.132,exp1,2023.1.0,60.063883947441624,
,,,,,,,,,,,,,,,,3,7.800000000000001,10,12.2,0,0,2.1999999999999997,1.7999999999999998,0.4,4.8,10,match,36.05,281,361,440,0,0,9,9,9,0,0,,,,,,,0,0,0,0,0,47,47,39,,,,,,,,,,,,num_2,0.9142671000154223,num_2,0.4,0.6,0.20000000000000007,3.4,7.6411,129.89871,return,8.32616009999765,,,,,,,,,,,,,,,,,706,23,male,up_down_width,2024-05-19_16h21.25.132,exp1,2023.1.0,60.063883947441624,
,,,,,,,,,,,,,,,,5,7.8,8.9,10,11.1,12.2,1.1,0.8500000000000001,0.25,4.65,10,initial,36.05,281,321,361,400,440,9,9,9,9,9,,,,,,,0,0,0,0,0,48,48,36,,,,,,,,,,,,num_5,1.1590665000258014,num_5,0.5,1.1,0.20000000000000007,1.1,7.6411,42.02605,return,2.788396299991291,,,,,,,,,,,,,,,,,706,23,male,up_down_width,2024-05-19_16h21.25.132,exp1,2023.1.0,60.063883947441624,
,,,,,,,,,,,,,,,,4,8.35,9.45,10.55,11.65,0,1.1,0.8500000000000001,0.25,3.5500000000000003,10,initial,36.05,301,341,380,420,0,9,9,9,9,0,,,,,,,0,0,0,0,0,49,49,19,,,,,,,,,,,,num_4,1.2145780000137165,num_4,0.2,0.8,0.2,0.9,7.6411,34.38495,return,3.6554503999941517,,,,,,,,,,,,,,,,,706,23,male,up_down_width,2024-05-19_16h21.25.132,exp1,2023.1.0,60.063883947441624,
,,,,,,,,,,,,,,,,5,8.65,9.325,10,10.675,11.35,0.675,0.125,0.55,3.25,10,match,36.05,312,336,361,385,409,9,9,9,9,9,,,,,,,0,0,0,0,0,50,50,29,,,,,,,,,,,,num_4,0.91959279999719,num_4,0.5,0.9,0.55,0.7,21.01303,26.74385,return,4.846514100005152,,,,,,,,,,,,,,,,,706,23,male,up_down_width,2024-05-19_16h21.25.132,exp1,2023.1.0,60.063883947441624,
,,,,,,,,,,,,,,,,3,9.3,10,10.7,0,0,0.7,0.1499999999999999,0.55,1.95,10,initial,36.05,335,361,386,0,0,9,9,9,0,0,,,,,,,0,0,0,0,0,51,51,6,,,,,,,,,,,,num_3,2.0173205999890342,num_3,0.5,1,0.6000000000000001,0.8,22.9233,30.5644,return,4.31618160000653,,,,,,,,,,,,,,,,,706,23,male,up_down_width,2024-05-19_16h21.25.132,exp1,2023.1.0,60.063883947441624,
,,,,,,,,,,,,,,,,,,,,,,,,,,,,,,,,,,,,,,,,,,,,,0,0,0,0,,,,,,,,,,,,,,,,,,,,,,,,,,,,,713.3551743999997,713.3551743999997,713.3551743999997,,,,,,,,,,,,706,23,male,up_down_width,2024-05-19_16h21.25.132,exp1,2023.1.0,60.063883947441624,
,,,,,,,,,,,,,,,,5,8.65,9.325,10,10.675,11.35,0.675,0.42500000000000004,0.25,2.95,10,match,36.05,312,336,361,385,409,9,9,9,9,9,,,,,,,1,0,1,0,0,0,0,31,,,,,,,,,,,,num_5,1.143391599995084,num_5,0.55,1.1,0.20000000000000007,0.9,7.6411,34.38495,return,2.801619199977722,,,,,,,,,,,,,,,,,706,23,male,up_down_width,2024-05-19_16h21.25.132,exp1,2023.1.0,60.063883947441624,
,,,,,,,,,,,,,,,,5,8.6,9.3,10,10.7,11.4,0.7,0.1499999999999999,0.55,3.3499999999999996,10,initial,36.05,310,335,361,386,411,9,9,9,9,9,,,,,,,1,0,1,0,0,1,1,40,,,,,,,,,,,,num_4,0.772179599996889,num_4,0.55,1.1,0.7000000000000002,1.0,26.74385,38.2055,return,1.9395854999893345,,,,,,,,,,,,,,,,,706,23,male,up_down_width,2024-05-19_16h21.25.132,exp1,2023.1.0,60.063883947441624,
,,,,,,,,,,,,,,,,3,8.6,10,11.4,0,0,1.4,0.85,0.55,3.35,10,match,36.05,310,361,411,0,0,9,9,9,0,0,,,,,,,1,0,1,0,0,2,2,41,,,,,,,,,,,,num_2,3.456489200005308,num_2,0.55,1.2,0.55,1.2,21.01303,45.8466,return,0.8172032999864314,,,,,,,,,,,,,,,,,706,23,male,up_down_width,2024-05-19_16h21.25.132,exp1,2023.1.0,60.063883947441624,
,,,,,,,,,,,,,,,,4,9.3,9.766666666666667,10.233333333333333,10.7,0,0.4666666666666667,0.06666666666666665,0.4,1.8,10,match,36.05,335,352,369,386,0,9,9,9,9,0,,,,,,,1,0,1,0,0,3,3,10,,,,,,,,,,,,num_3,0.966290599986678,num_3,0.45,0.8,0.45,0.55,17.19248,21.01303,return,1.9675701000087429,,,,,,,,,,,,,,,,,706,23,male,up_down_width,2024-05-19_16h21.25.132,exp1,2023.1.0,60.063883947441624,
,,,,,,,,,,,,,,,,3,9.1,10,10.9,0,0,0.9,0.5,0.4,2.2,10,initial,36.05,328,361,393,0,0,9,9,9,0,0,,,,,,,1,0,1,0,0,4,4,15,,,,,,,,,,,,num_2,1.601256599999033,num_2,0.45,0.8,0.45,1.3,17.19248,49.66716,return,2.4974536999943666,,,,,,,,,,,,,,,,,706,23,male,up_down_width,2024-05-19_16h21.25.132,exp1,2023.1.0,60.063883947441624,
,,,,,,,,,,,,,,,,3,8.2,10,11.8,0,0,1.7999999999999998,1.4,0.4,4,10,match,36.05,296,361,425,0,0,9,9,9,0,0,,,,,,,1,0,1,0,0,5,5,51,,,,,,,,,,,,num_2,1.0444637000036892,num_2,0.3,0.4,0.3,2.9,11.46165,110.79596,return,6.580047399998875,,,,,,,,,,,,,,,,,706,23,male,up_down_width,2024-05-19_16h21.25.132,exp1,2023.1.0,60.063883947441624,
,,,,,,,,,,,,,,,,5,8.2,9.1,10,10.9,11.8,0.9,0.65,0.25,3.85,10,initial,36.05,296,328,361,393,425,9,9,9,9,9,,,,,,,1,0,1,0,0,6,6,48,,,,,,,,,,,,num_5,1.9089370000001509,num_5,0.2,0.9,0.25,0.7,9.55138,26.74385,return,3.3307653999945614,,,,,,,,,,,,,,,,,706,23,male,up_down_width,2024-05-19_16h21.25.132,exp1,2023.1.0,60.063883947441624,
,,,,,,,,,,,,,,,,4,8.35,9.45,10.55,11.65,0,1.1,0.55,0.55,3.8500000000000005,10,initial,36.05,301,341,380,420,0,9,9,9,9,0,,,,,,,1,0,1,0,0,7,7,17,,,,,,,,,,,,num_4,1.2040846000018064,num_4,0.4,0.9,0.4,1.0,15.2822,38.2055,return,2.4917873999802396,,,,,,,,,,,,,,,,,706,23,male,up_down_width,2024-05-19_16h21.25.132,exp1,2023.1.0,60.063883947441624,
,,,,,,,,,,,,,,,,4,9.1,9.7,10.3,10.9,0,0.6,0.04999999999999997,0.55,2.35,10,match,36.05,328,350,371,393,0,9,9,9,9,0,,,,,,,1,0,1,0,0,8,8,12,,,,,,,,,,,,num_3,2.0923219999822322,num_3,0.25,0.9,0.7500000000000001,0.85,28.65413,32.47468,return,6.7875450999999885,,,,,,,,,,,,,,,,,706,23,male,up_down_width,2024-05-19_16h21.25.132,exp1,2023.1.0,60.063883947441624,
,,,,,,,,,,,,,,,,3,9.3,10,10.7,0,0,0.7,0.44999999999999996,0.25,1.65,10,initial,36.05,335,361,386,0,0,9,9,9,0,0,,,,,,,1,0,1,0,0,9,9,7,,,,,,,,,,,,num_3,1.7273653000011109,num_3,0.2,0.5,0.2,0.6,7.6411,22.9233,return,2.6977191000187304,,,,,,,,,,,,,,,,,706,23,male,up_down_width,2024-05-19_16h21.25.132,exp1,2023.1.0,60.063883947441624,
,,,,,,,,,,,,,,,,4,9.3,9.766666666666667,10.233333333333333,10.7,0,0.4666666666666667,0.21666666666666665,0.25,1.65,10,match,36.05,335,352,369,386,0,9,9,9,9,0,,,,,,,1,0,1,0,0,10,10,8,,,,,,,,,,,,num_4,1.5208025999891106,num_4,0.5,1.0,0.20000000000000007,0.6,7.6411,22.9233,return,10.354374699993059,,,,,,,,,,,,,,,,,706,23,male,up_down_width,2024-05-19_16h21.25.132,exp1,2023.1.0,60.063883947441624,
,,,,,,,,,,,,,,,,4,8.9,9.633333333333333,10.366666666666667,11.1,0,0.7333333333333333,0.18333333333333326,0.55,2.75,10,match,36.05,321,347,374,400,0,9,9,9,9,0,,,,,,,1,0,1,0,0,11,11,1,,,,,,,,,,,,num_3,5.377048199996352,num_3,0.2,1.2,0.7500000000000001,0.9,28.65413,34.38495,return,4.113516999990679,,,,,,,,,,,,,,,,,706,23,male,up_down_width,2024-05-19_16h21.25.132,exp1,2023.1.0,60.063883947441624,
,,,,,,,,,,,,,,,,3,8.9,10,11.1,0,0,1.1,0.55,0.55,2.75,10,initial,36.05,321,361,400,0,0,9,9,9,0,0,,,,,,,1,0,1,0,0,12,12,0,,,,,,,,,,,,num_3,1.1151126999757253,num_3,0.55,0.9,0.4,0.9,15.2822,34.38495,return,1.3407662000099663,,,,,,,,,,,,,,,,,706,23,male,up_down_width,2024-05-19_16h21.25.132,exp1,2023.1.0,60.063883947441624,
,,,,,,,,,,,,,,,,3,8.6,10,11.4,0,0,1.4,1.15,0.25,3.05,10,match,36.05,310,361,411,0,0,9,9,9,0,0,,,,,,,1,0,1,0,0,13,13,43,,,,,,,,,,,,num_3,0.9433538999874145,num_3,0.45,1,0.15000000000000008,1,5.73083,38.2055,return,1.6240704999945592,,,,,,,,,,,,,,,,,706,23,male,up_down_width,2024-05-19_16h21.25.132,exp1,2023.1.0,60.063883947441624,
,,,,,,,,,,,,,,,,5,8.95,9.475,10,10.525,11.05,0.525,0.125,0.4,2.5,10,match,36.05,323,342,361,379,398,9,9,9,9,9,,,,,,,1,0,1,0,0,14,14,27,,,,,,,,,,,,num_5,0.8042070000083186,num_5,0.4,1.0,0.30000000000000004,0.45,11.46165,17.19248,return,5.262894999992568,,,,,,,,,,,,,,,,,706,23,male,up_down_width,2024-05-19_16h21.25.132,exp1,2023.1.0,60.063883947441624,
,,,,,,,,,,,,,,,,3,9.3,10,10.7,0,0,0.7,0.29999999999999993,0.4,1.8,10,initial,36.05,335,361,386,0,0,9,9,9,0,0,,,,,,,1,0,1,0,0,15,15,9,,,,,,,,,,,,num_3,0.8394924000022002,num_3,0.55,0.9,0.30000000000000004,0.55,11.46165,21.01303,return,4.084632300015073,,,,,,,,,,,,,,,,,706,23,male,up_down_width,2024-05-19_16h21.25.132,exp1,2023.1.0,60.063883947441624,
,,,,,,,,,,,,,,,,3,8.9,10,11.1,0,0,1.1,0.7000000000000001,0.4,2.6000000000000005,10,initial,36.05,321,361,400,0,0,9,9,9,0,0,,,,,,,1,0,1,0,0,16,16,4,,,,,,,,,,,,num_3,1.3015935999865178,num_3,0.45,0.8,0.25000000000000006,0.8,9.55138,30.5644,return,2.0160095999890473,,,,,,,,,,,,,,,,,706,23,male,up_down_width,2024-05-19_16h21.25.132,exp1,2023.1.0,60.063883947441624,
,,,,,,,,,,,,,,,,5,8.2,9.1,10,10.9,11.8,0.9,0.5,0.4,4,10,initial,36.05,296,328,361,393,425,9,9,9,9,9,,,,,,,1,0,1,0,0,17,17,50,,,,,,,,,,,,num_5,1.1201528000237886,num_5,0.25,0.4,0.25,1.05,9.55138,40.11578,return,4.077708199998597,,,,,,,,,,,,,,,,,706,23,male,up_down_width,2024-05-19_16h21.25.132,exp1,2023.1.0,60.063883947441624,
,,,,,,,,,,,,,,,,5,8.6,9.3,10,10.7,11.4,0.7,0.44999999999999996,0.25,3.05,10,initial,36.05,310,335,361,386,411,9,9,9,9,9,,,,,,,1,0,1,0,0,18,18,42,,,,,,,,,,,,num_5,1.120110800024122,num_5,0.25,1.0,0.2,0.8,7.6411,30.5644,return,2.1617617000010796,,,,,,,,,,,,,,,,,706,23,male,up_down_width,2024-05-19_16h21.25.132,exp1,2023.1.0,60.063883947441624,
,,,,,,,,,,,,,,,,3,7.800000000000001,10,12.2,0,0,2.1999999999999997,1.7999999999999998,0.4,4.8,10,match,36.05,281,361,440,0,0,9,9,9,0,0,,,,,,,1,0,1,0,0,19,19,39,,,,,,,,,,,,num_3,1.181634100008523,num_3,0.25,1.1,0.3,2.25,11.46165,85.96238,return,6.089275000005728,,,,,,,,,,,,,,,,,706,23,male,up_down_width,2024-05-19_16h21.25.132,exp1,2023.1.0,60.063883947441624,
,,,,,,,,,,,,,,,,3,8.2,10,11.8,0,0,1.8,1.25,0.55,4.15,10,match,36.05,296,361,425,0,0,9,9,9,0,0,,,,,,,1,0,1,0,0,20,20,47,,,,,,,,,,,,num_3,0.9821012000029441,num_3,0.5,1.3,0.6500000000000001,2.2,24.83358,84.05211,return,7.869996800000081,,,,,,,,,,,,,,,,,706,23,male,up_down_width,2024-05-19_16h21.25.132,exp1,2023.1.0,60.063883947441624,
,,,,,,,,,,,,,,,,4,8.65,9.55,10.45,11.35,0,0.9,0.5,0.4,3.1,10,initial,36.05,312,344,377,409,0,9,9,9,9,0,,,,,,,1,0,1,0,0,21,21,32,,,,,,,,,,,,num_4,1.1813013999781106,num_4,0.2,1.1,0.39999999999999997,1.0,15.2822,38.2055,return,4.292944799992256,,,,,,,,,,,,,,,,,706,23,male,up_down_width,2024-05-19_16h21.25.132,exp1,2023.1.0,60.063883947441624,
,,,,,,,,,,,,,,,,5,8.275,9.1375,10,10.8625,11.725,0.8625,0.6125,0.25,3.7,10,match,36.05,298,329,361,392,423,9,9,9,9,9,,,,,,,1,0,1,0,0,22,22,22,,,,,,,,,,,,num_5,1.1593412999936845,num_5,0.2,1.0,0.2,0.95,7.6411,36.29523,return,1.2411197000183165,,,,,,,,,,,,,,,,,706,23,male,up_down_width,2024-05-19_16h21.25.132,exp1,2023.1.0,60.063883947441624,
,,,,,,,,,,,,,,,,3,9.1,10,10.9,0,0,0.9,0.65,0.25,2.05,10,initial,36.05,328,361,393,0,0,9,9,9,0,0,,,,,,,1,0,1,0,0,23,23,13,,,,,,,,,,,,num_3,1.305263999995077,num_3,0.35,1.1,0.25,1.1,9.55138,42.02605,return,1.3942323999945074,,,,,,,,,,,,,,,,,706,23,male,up_down_width,2024-05-19_16h21.25.132,exp1,2023.1.0,60.063883947441624,
,,,,,,,,,,,,,,,,5,7.8,8.9,10,11.1,12.2,1.1,0.8500000000000001,0.25,4.65,10,initial,36.05,281,321,361,400,440,9,9,9,9,9,,,,,,,1,0,1,0,0,24,24,36,,,,,,,,,,,,num_4,1.1807590999815147,num_4,0.2,0.8,0.2,1.3,7.6411,49.66716,return,3.432518399989931,,,,,,,,,,,,,,,,,706,23,male,up_down_width,2024-05-19_16h21.25.132,exp1,2023.1.0,60.063883947441624,
,,,,,,,,,,,,,,,,3,9.3,10,10.7,0,0,0.7,0.1499999999999999,0.55,1.95,10,initial,36.05,335,361,386,0,0,9,9,9,0,0,,,,,,,1,0,1,0,0,25,25,6,,,,,,,,,,,,num_3,1.2924480000219774,num_3,0.2,0.7,0.6,0.7,22.9233,26.74385,return,2.9140356999996584,,,,,,,,,,,,,,,,,706,23,male,up_down_width,2024-05-19_16h21.25.132,exp1,2023.1.0,60.063883947441624,
,,,,,,,,,,,,,,,,3,8.525,10,11.475,0,0,1.475,1.225,0.25,3.2,10,match,36.05,307,361,414,0,0,9,9,9,0,0,,,,,,,1,0,1,0,0,26,26,45,,,,,,,,,,,,num_3,0.976144700020086,num_3,0.55,1,0.20000000000000007,1,7.6411,38.2055,return,3.330309400014812,,,,,,,,,,,,,,,,,706,23,male,up_down_width,2024-05-19_16h21.25.132,exp1,2023.1.0,60.063883947441624,
,,,,,,,,,,,,,,,,3,7.8,10,12.2,0,0,2.2,1.9500000000000002,0.25,4.65,10,match,36.05,281,361,440,0,0,9,9,9,0,0,,,,,,,1,0,1,0,0,27,27,37,,,,,,,,,,,,num_3,1.3827293000067584,num_3,0.45,0.7,0.15000000000000008,1.45,5.73083,55.39798,return,6.0567424000182655,,,,,,,,,,,,,,,,,706,23,male,up_down_width,2024-05-19_16h21.25.132,exp1,2023.1.0,60.063883947441624,
,,,,,,,,,,,,,,,,4,8.9,9.633333333333333,10.366666666666667,11.1,0,0.7333333333333334,0.4833333333333334,0.25,2.45,10,match,36.05,321,347,374,400,0,9,9,9,9,0,,,,,,,1,0,1,0,0,28,28,3,,,,,,,,,,,,num_4,1.1561426000262145,num_4,0.45,0.7,0.20000000000000007,0.7,7.6411,26.74385,return,2.1589299000042956,,,,,,,,,,,,,,,,,706,23,male,up_down_width,2024-05-19_16h21.25.132,exp1,2023.1.0,60.063883947441624,
,,,,,,,,,,,,,,,,5,8.95,9.475,10,10.525,11.05,0.525,0.275,0.25,2.35,10,match,36.05,323,342,361,379,398,9,9,9,9,9,,,,,,,1,0,1,0,0,29,29,25,,,,,,,,,,,,num_4,0.9179315000073984,num_4,0.3,0.3,0.10000000000000002,0.4,3.82055,15.2822,return,3.883598599990364,,,,,,,,,,,,,,,,,706,23,male,up_down_width,2024-05-19_16h21.25.132,exp1,2023.1.0,60.063883947441624,
,,,,,,,,,,,,,,,,5,7.8,8.9,10,11.1,12.2,1.1,0.7000000000000001,0.4,4.800000000000001,10,initial,36.05,281,321,361,400,440,9,9,9,9,9,,,,,,,1,0,1,0,0,30,30,38,,,,,,,,,,,,num_4,1.275798599992413,num_4,0.55,1.1,0.55,1.1,21.01303,42.02605,return,1.187160400004359,,,,,,,,,,,,,,,,,706,23,male,up_down_width,2024-05-19_16h21.25.132,exp1,2023.1.0,60.063883947441624,
,,,,,,,,,,,,,,,,5,8.2,9.1,10,10.9,11.8,0.9,0.35,0.55,4.15,10,initial,36.05,296,328,361,393,425,9,9,9,9,9,,,,,,,1,0,1,0,0,31,31,46,,,,,,,,,,,,num_4,0.9708056999952532,num_4,0.2,0.6,0.49999999999999994,1.2,19.10275,45.8466,return,4.483046400011517,,,,,,,,,,,,,,,,,706,23,male,up_down_width,2024-05-19_16h21.25.132,exp1,2023.1.0,60.063883947441624,
,,,,,,,,,,,,,,,,3,8.9,10,11.1,0,0,1.1,0.8500000000000001,0.25,2.45,10,initial,36.05,321,361,400,0,0,9,9,9,0,0,,,,,,,1,0,1,0,0,32,32,2,,,,,,,,,,,,num_4,4.4321202999853995,num_4,0.25,0.6,0.15000000000000002,0.7,5.73083,26.74385,return,3.2904988000227604,,,,,,,,,,,,,,,,,706,23,male,up_down_width,2024-05-19_16h21.25.132,exp1,2023.1.0,60.063883947441624,
,,,,,,,,,,,,,,,,3,9.1,10,10.9,0,0,0.9,0.35,0.55,2.35,10,initial,36.05,328,361,393,0,0,9,9,9,0,0,,,,,,,1,0,1,0,0,33,33,11,,,,,,,,,,,,num_3,1.5413374000054318,num_3,0.35,1,0.35,1,13.37193,38.2055,return,1.2988231999916025,,,,,,,,,,,,,,,,,706,23,male,up_down_width,2024-05-19_16h21.25.132,exp1,2023.1.0,60.063883947441624,
,,,,,,,,,,,,,,,,5,8.65,9.325,10,10.675,11.35,0.675,0.125,0.55,3.25,10,match,36.05,312,336,361,385,409,9,9,9,9,9,,,,,,,1,0,1,0,0,34,34,29,,,,,,,,,,,,num_4,1.1707554000022355,num_4,0.55,1.2,0.6500000000000001,0.8,24.83358,30.5644,return,5.343774899985874,,,,,,,,,,,,,,,,,706,23,male,up_down_width,2024-05-19_16h21.25.132,exp1,2023.1.0,60.063883947441624,
,,,,,,,,,,,,,,,,4,8.95,9.65,10.35,11.05,0,0.7,0.29999999999999993,0.4,2.5,10,initial,36.05,323,348,373,398,0,9,9,9,9,0,,,,,,,1,0,1,0,0,35,35,26,,,,,,,,,,,,num_5,1.5786833000020124,num_5,0.4,0.8,0.25000000000000006,0.6,9.55138,22.9233,return,4.470523099997081,,,,,,,,,,,,,,,,,706,23,male,up_down_width,2024-05-19_16h21.25.132,exp1,2023.1.0,60.063883947441624,
,,,,,,,,,,,,,,,,4,8.35,9.45,10.55,11.65,0,1.1,0.7000000000000001,0.4,3.7,10,initial,36.05,301,341,380,420,0,9,9,9,9,0,,,,,,,1,0,1,0,0,36,36,21,,,,,,,,,,,,num_4,1.1049097999930382,num_4,0.45,1.2,0.4,1.2,15.2822,45.8466,return,1.1357965000206605,,,,,,,,,,,,,,,,,706,23,male,up_down_width,2024-05-19_16h21.25.132,exp1,2023.1.0,60.063883947441624,
,,,,,,,,,,,,,,,,5,8.6,9.3,10,10.7,11.4,0.7,0.29999999999999993,0.4,3.1999999999999997,10,initial,36.05,310,335,361,386,411,9,9,9,9,9,,,,,,,1,0,1,0,0,37,37,44,,,,,,,,,,,,num_4,1.8143051999795716,num_4,0.3,0.5,0.3,1.0,11.46165,38.2055,return,2.103002899995772,,,,,,,,,,,,,,,,,706,23,male,up_down_width,2024-05-19_16h21.25.132,exp1,2023.1.0,60.063883947441624,
,,,,,,,,,,,,,,,,4,8.65,9.55,10.45,11.35,0,0.9,0.35,0.55,3.25,10,initial,36.05,312,344,377,409,0,9,9,9,9,0,,,,,,,1,0,1,0,0,38,38,28,,,,,,,,,,,,num_4,1.2734480999934021,num_4,0.35,0.7,0.35,0.7,13.37193,26.74385,return,0.8530456999724265,,,,,,,,,,,,,,,,,706,23,male,up_down_width,2024-05-19_16h21.25.132,exp1,2023.1.0,60.063883947441624,
,,,,,,,,,,,,,,,,4,8.95,9.65,10.35,11.05,0,0.7,0.44999999999999996,0.25,2.3499999999999996,10,initial,36.05,323,348,373,398,0,9,9,9,9,0,,,,,,,1,0,1,0,0,39,39,24,,,,,,,,,,,,num_4,0.6029455000243615,num_4,0.2,0.4,0.2,0.7,7.6411,26.74385,return,1.9021089000161737,,,,,,,,,,,,,,,,,706,23,male,up_down_width,2024-05-19_16h21.25.132,exp1,2023.1.0,60.063883947441624,
,,,,,,,,,,,,,,,,5,8.35,9.175,10,10.825,11.65,0.8250000000000001,0.275,0.55,3.85,10,match,36.05,301,331,361,390,420,9,9,9,9,9,,,,,,,1,0,1,0,0,40,40,18,,,,,,,,,,,,num_5,2.583291699993424,num_5,0.2,0.7,0.5499999999999999,0.8,21.01303,30.5644,return,3.624042199982796,,,,,,,,,,,,,,,,,706,23,male,up_down_width,2024-05-19_16h21.25.132,exp1,2023.1.0,60.063883947441624,
,,,,,,,,,,,,,,,,4,8.65,9.55,10.45,11.35,0,0.9,0.65,0.25,2.95,10,initial,36.05,312,344,377,409,0,9,9,9,9,0,,,,,,,1,0,1,0,0,41,41,30,,,,,,,,,,,,num_4,0.9694873999978881,num_4,0.25,1.1,0.25,1.1,9.55138,42.02605,return,0.8315809000050649,,,,,,,,,,,,,,,,,706,23,male,up_down_width,2024-05-19_16h21.25.132,exp1,2023.1.0,60.063883947441624,
,,,,,,,,,,,,,,,,3,8.2,10,11.8,0,0,1.8,1.55,0.25,3.85,10,match,36.05,296,361,425,0,0,9,9,9,0,0,,,,,,,1,0,1,0,0,42,42,49,,,,,,,,,,,,num_3,1.130766800022684,num_3,0.45,0.7,0.20000000000000007,1.35,7.6411,51.57743,return,4.982885399978841,,,,,,,,,,,,,,,,,706,23,male,up_down_width,2024-05-19_16h21.25.132,exp1,2023.1.0,60.063883947441624,
,,,,,,,,,,,,,,,,4,8.95,9.65,10.35,11.05,0,0.7,0.1499999999999999,0.55,2.65,10,initial,36.05,323,348,373,398,0,9,9,9,9,0,,,,,,,1,0,1,0,0,43,43,23,,,,,,,,,,,,num_3,0.9027883999806363,num_3,0.3,0.6,0.7000000000000001,0.9,26.74385,34.38495,return,2.8662961999943946,,,,,,,,,,,,,,,,,706,23,male,up_down_width,2024-05-19_16h21.25.132,exp1,2023.1.0,60.063883947441624,
,,,,,,,,,,,,,,,,5,8.65,9.325,10,10.675,11.35,0.675,0.275,0.4,3.1,10,match,36.05,312,336,361,385,409,9,9,9,9,9,,,,,,,1,0,1,0,0,44,44,33,,,,,,,,,,,,num_5,1.4896820000139996,num_5,0.5,0.6,0.5,0.6,19.10275,22.9233,return,1.5960022000072058,,,,,,,,,,,,,,,,,706,23,male,up_down_width,2024-05-19_16h21.25.132,exp1,2023.1.0,60.063883947441624,
,,,,,,,,,,,,,,,,4,8.35,9.45,10.55,11.65,0,1.1,0.8500000000000001,0.25,3.5500000000000003,10,initial,36.05,301,341,380,420,0,9,9,9,9,0,,,,,,,1,0,1,0,0,45,45,19,,,,,,,,,,,,num_4,1.0573028000071645,num_4,0.3,0.7,0.15000000000000002,0.9,5.73083,34.38495,return,1.9184476000082213,,,,,,,,,,,,,,,,,706,23,male,up_down_width,2024-05-19_16h21.25.132,exp1,2023.1.0,60.063883947441624,
,,,,,,,,,,,,,,,,4,9.1,9.7,10.3,10.9,0,0.6000000000000001,0.20000000000000004,0.4,2.2,10,match,36.05,328,350,371,393,0,9,9,9,9,0,,,,,,,1,0,1,0,0,46,46,16,,,,,,,,,,,,num_4,0.8433244000189006,num_4,0.3,0.8,0.49999999999999994,0.7,19.10275,26.74385,return,3.4977699000155553,,,,,,,,,,,,,,,,,706,23,male,up_down_width,2024-05-19_16h21.25.132,exp1,2023.1.0,60.063883947441624,
,,,,,,,,,,,,,,,,4,8.825,9.608333333333333,10.391666666666667,11.175,0,0.7833333333333333,0.5333333333333333,0.25,2.6,10,match,36.05,318,346,375,403,0,9,9,9,9,0,,,,,,,1,0,1,0,0,47,47,5,,,,,,,,,,,,num_4,0.7826396999880672,num_4,0.5,0.8,0.15000000000000008,0.8,5.73083,30.5644,return,2.0154591999889817,,,,,,,,,,,,,,,,,706,23,male,up_down_width,2024-05-19_16h21.25.132,exp1,2023.1.0,60.063883947441624,
,,,,,,,,,,,,,,,,5,8.35,9.175,10,10.825,11.65,0.825,0.575,0.25,3.55,10,match,36.05,301,331,361,390,420,9,9,9,9,9,,,,,,,1,0,1,0,0,48,48,20,,,,,,,,,,,,num_5,2.2729187999793794,num_5,0.35,1.1,0.10000000000000002,1.0,3.82055,38.2055,return,2.7982349999947473,,,,,,,,,,,,,,,,,706,23,male,up_down_width,2024-05-19_16h21.25.132,exp1,2023.1.0,60.063883947441624,
,,,,,,,,,,,,,,,,3,7.8,10,12.2,0,0,2.2,1.65,0.55,4.95,10,match,36.05,281,361,440,0,0,9,9,9,0,0,,,,,,,1,0,1,0,0,49,49,35,,,,,,,,,,,,num_3,0.9402264000091236,num_3,0.45,0.5,0.45,1.6,17.19248,61.12881,return,5.575407600001199,,,,,,,,,,,,,,,,,706,23,male,up_down_width,2024-05-19_16h21.25.132,exp1,2023.1.0,60.063883947441624,
,,,,,,,,,,,,,,,,4,9.1,9.7,10.3,10.9,0,0.5999999999999999,0.3499999999999999,0.25,2.05,10,match,36.05,328,350,371,393,0,9,9,9,9,0,,,,,,,1,0,1,0,0,50,50,14,,,,,,,,,,,,num_4,1.32715470000403,num_4,0.3,0.8,0.3,0.8,11.46165,30.5644,return,1.0860190000094008,,,,,,,,,,,,,,,,,706,23,male,up_down_width,2024-05-19_16h21.25.132,exp1,2023.1.0,60.063883947441624,
,,,,,,,,,,,,,,,,5,7.8,8.9,10,11.1,12.2,1.1,0.55,0.55,4.95,10,initial,36.05,281,321,361,400,440,9,9,9,9,9,,,,,,,1,0,1,0,0,51,51,34,,,,,,,,,,,,num_5,1.6422089000116102,num_5,0.2,1.0,0.5499999999999999,1.0,21.01303,38.2055,return,1.8250893999938853,,,,,,,,,,,,,,,,,706,23,male,up_down_width,2024-05-19_16h21.25.132,exp1,2023.1.0,60.063883947441624,
,,,,,,,,,,,,,,,,,,,,,,,,,,,,,,,,,,,,,,,,,,,,,1,0,1,0,,,,,,,,,,,,,,,,,,,,,,,,,,,,,1045.855452399992,1045.855452399992,1045.855452399992,,,,,,,,,,,,706,23,male,up_down_width,2024-05-19_16h21.25.132,exp1,2023.1.0,60.063883947441624,
,,,,,,,,,,,,,,,,5,8.2,9.1,10,10.9,11.8,0.9,0.35,0.55,4.15,10,initial,36.05,296,328,361,393,425,9,9,9,9,9,,,,,,,2,0,2,0,0,0,0,46,,,,,,,,,,,,num_5,0.8237435999908485,num_5,0.3,0.4,0.49999999999999994,0.75,19.10275,28.65413,return,3.825998599990271,,,,,,,,,,,,,,,,,706,23,male,up_down_width,2024-05-19_16h21.25.132,exp1,2023.1.0,60.063883947441624,
,,,,,,,,,,,,,,,,5,8.6,9.3,10,10.7,11.4,0.7,0.1499999999999999,0.55,3.3499999999999996,10,initial,36.05,310,335,361,386,411,9,9,9,9,9,,,,,,,2,0,2,0,0,1,1,40,,,,,,,,,,,,num_4,0.8251692999911029,num_4,0.25,1.0,0.44999999999999996,0.6,17.19248,22.9233,return,4.1660787999862805,,,,,,,,,,,,,,,,,706,23,male,up_down_width,2024-05-19_16h21.25.132,exp1,2023.1.0,60.063883947441624,
,,,,,,,,,,,,,,,,3,8.2,10,11.8,0,0,1.8,1.55,0.25,3.85,10,match,36.05,296,361,425,0,0,9,9,9,0,0,,,,,,,2,0,2,0,0,2,2,49,,,,,,,,,,,,num_2,0.906298699992476,num_2,0.2,0.4,0.2,2.8,7.6411,106.97541,return,5.428225299983751,,,,,,,,,,,,,,,,,706,23,male,up_down_width,2024-05-19_16h21.25.132,exp1,2023.1.0,60.063883947441624,
,,,,,,,,,,,,,,,,4,8.65,9.55,10.45,11.35,0,0.9,0.35,0.55,3.25,10,initial,36.05,312,344,377,409,0,9,9,9,9,0,,,,,,,2,0,2,0,0,3,3,28,,,,,,,,,,,,num_4,0.7609594000095967,num_4,0.4,1.2,0.6500000000000001,0.9,24.83358,34.38495,return,3.5891760000085924,,,,,,,,,,,,,,,,,706,23,male,up_down_width,2024-05-19_16h21.25.132,exp1,2023.1.0,60.063883947441624,
,,,,,,,,,,,,,,,,4,8.95,9.65,10.35,11.05,0,0.7,0.44999999999999996,0.25,2.3499999999999996,10,initial,36.05,323,348,373,398,0,9,9,9,9,0,,,,,,,2,0,2,0,0,4,4,24,,,,,,,,,,,,num_4,0.6787157999933697,num_4,0.4,1.0,0.20000000000000007,0.9,7.6411,34.38495,return,2.2149759999883827,,,,,,,,,,,,,,,,,706,23,male,up_down_width,2024-05-19_16h21.25.132,exp1,2023.1.0,60.063883947441624,
,,,,,,,,,,,,,,,,5,8.275,9.1375,10,10.8625,11.725,0.8625,0.6125,0.25,3.7,10,match,36.05,298,329,361,392,423,9,9,9,9,9,,,,,,,2,0,2,0,0,5,5,22,,,,,,,,,,,,num_5,0.9865384000004269,num_5,0.2,0.7,0.15000000000000002,0.7,5.73083,26.74385,return,0.9537262999801897,,,,,,,,,,,,,,,,,706,23,male,up_down_width,2024-05-19_16h21.25.132,exp1,2023.1.0,60.063883947441624,
,,,,,,,,,,,,,,,,4,9.1,9.7,10.3,10.9,0,0.5999999999999999,0.3499999999999999,0.25,2.05,10,match,36.05,328,350,371,393,0,9,9,9,9,0,,,,,,,2,0,2,0,0,6,6,14,,,,,,,,,,,,num_4,0.5592087999975774,num_4,0.25,1.1,0.15000000000000002,0.5,5.73083,19.10275,return,4.016497600008734,,,,,,,,,,,,,,,,,706,23,male,up_down_width,2024-05-19_16h21.25.132,exp1,2023.1.0,60.063883947441624,
,,,,,,,,,,,,,,,,3,7.8,10,12.2,0,0,2.2,1.65,0.55,4.95,10,match,36.05,281,361,440,0,0,9,9,9,0,0,,,,,,,2,0,2,0,0,7,7,35,,,,,,,,,,,,num_2,1.2143905999837443,num_2,0.3,1.4,1.1500000000000004,3.2,43.93633,122.25761,return,4.390216800005874,,,,,,,,,,,,,,,,,706,23,male,up_down_width,2024-05-19_16h21.25.132,exp1,2023.1.0,60.063883947441624,
,,,,,,,,,,,,,,,,4,8.65,9.55,10.45,11.35,0,0.9,0.5,0.4,3.1,10,initial,36.05,312,344,377,409,0,9,9,9,9,0,,,,,,,2,0,2,0,0,8,8,32,,,,,,,,,,,,num_4,0.9818494999781251,num_4,0.25,1.2,0.35,0.9,13.37193,34.38495,return,1.524392599996645,,,,,,,,,,,,,,,,,706,23,male,up_down_width,2024-05-19_16h21.25.132,exp1,2023.1.0,60.063883947441624,
,,,,,,,,,,,,,,,,4,8.35,9.45,10.55,11.65,0,1.1,0.8500000000000001,0.25,3.5500000000000003,10,initial,36.05,301,341,380,420,0,9,9,9,9,0,,,,,,,2,0,2,0,0,9,9,19,,,,,,,,,,,,num_4,0.9220102000108454,num_4,0.35,0.7,0.2,1.5,7.6411,57.30826,return,2.8030822000000626,,,,,,,,,,,,,,,,,706,23,male,up_down_width,2024-05-19_16h21.25.132,exp1,2023.1.0,60.063883947441624,
,,,,,,,,,,,,,,,,4,8.35,9.45,10.55,11.65,0,1.1,0.55,0.55,3.8500000000000005,10,initial,36.05,301,341,380,420,0,9,9,9,9,0,,,,,,,2,0,2,0,0,10,10,17,,,,,,,,,,,,num_4,0.8709554999950342,num_4,0.4,0.9,0.7000000000000002,1.2,26.74385,45.8466,return,2.7140916000062134,,,,,,,,,,,,,,,,,706,23,male,up_down_width,2024-05-19_16h21.25.132,exp1,2023.1.0,60.063883947441624,
,,,,,,,,,,,,,,,,5,8.95,9.475,10,10.525,11.05,0.525,0.125,0.4,2.5,10,match,36.05,323,342,361,379,398,9,9,9,9,9,,,,,,,2,0,2,0,0,11,11,27,,,,,,,,,,,,num_5,2.889749699999811,num_5,0.25,0.5,0.2,0.5,7.6411,19.10275,return,10.31606469998951,,,,,,,,,,,,,,,,,706,23,male,up_down_width,2024-05-19_16h21.25.132,exp1,2023.1.0,60.063883947441624,
,,,,,,,,,,,,,,,,3,8.2,10,11.8,0,0,1.8,1.25,0.55,4.15,10,match,36.05,296,361,425,0,0,9,9,9,0,0,,,,,,,2,0,2,0,0,12,12,47,,,,,,,,,,,,num_2,0.8745497999771032,num_2,0.4,1.6,0.4,3.0,15.2822,114.61651,return,3.359972200007178,,,,,,,,,,,,,,,,,706,23,male,up_down_width,2024-05-19_16h21.25.132,exp1,2023.1.0,60.063883947441624,
,,,,,,,,,,,,,,,,4,8.825,9.608333333333333,10.391666666666667,11.175,0,0.7833333333333333,0.5333333333333333,0.25,2.6,10,match,36.05,318,346,375,403,0,9,9,9,9,0,,,,,,,2,0,2,0,0,13,13,5,,,,,,,,,,,,num_4,0.7843691000016406,num_4,0.35,1.1,0.2,0.9,7.6411,34.38495,return,2.377520700014429,,,,,,,,,,,,,,,,,706,23,male,up_down_width,2024-05-19_16h21.25.132,exp1,2023.1.0,60.063883947441624,
,,,,,,,,,,,,,,,,5,8.2,9.1,10,10.9,11.8,0.9,0.65,0.25,3.85,10,initial,36.05,296,328,361,393,425,9,9,9,9,9,,,,,,,2,0,2,0,0,14,14,48,,,,,,,,,,,,num_5,0.9101069000025745,num_5,0.25,0.8,0.15000000000000002,0.8,5.73083,30.5644,return,1.2561416999960784,,,,,,,,,,,,,,,,,706,23,male,up_down_width,2024-05-19_16h21.25.132,exp1,2023.1.0,60.063883947441624,
,,,,,,,,,,,,,,,,5,7.8,8.9,10,11.1,12.2,1.1,0.7000000000000001,0.4,4.800000000000001,10,initial,36.05,281,321,361,400,440,9,9,9,9,9,,,,,,,2,0,2,0,0,15,15,38,,,,,,,,,,,,num_4,1.1358380999881774,num_4,0.55,1.2,0.4,1.4,15.2822,53.48771,return,1.7710407999984454,,,,,,,,,,,,,,,,,706,23,male,up_down_width,2024-05-19_16h21.25.132,exp1,2023.1.0,60.063883947441624,
,,,,,,,,,,,,,,,,4,9.3,9.766666666666667,10.233333333333333,10.7,0,0.4666666666666667,0.21666666666666665,0.25,1.65,10,match,36.05,335,352,369,386,0,9,9,9,9,0,,,,,,,2,0,2,0,0,16,16,8,,,,,,,,,,,,num_3,1.4846007000014652,num_3,0.3,1,0.3,0.5,11.46165,19.10275,return,4.266479499987327,,,,,,,,,,,,,,,,,706,23,male,up_down_width,2024-05-19_16h21.25.132,exp1,2023.1.0,60.063883947441624,
,,,,,,,,,,,,,,,,5,8.95,9.475,10,10.525,11.05,0.525,0.275,0.25,2.35,10,match,36.05,323,342,361,379,398,9,9,9,9,9,,,,,,,2,0,2,0,0,17,17,25,,,,,,,,,,,,num_4,0.9036733999964781,num_4,0.35,1.3,0.25,0.4,9.55138,15.2822,return,4.109199600003194,,,,,,,,,,,,,,,,,706,23,male,up_down_width,2024-05-19_16h21.25.132,exp1,2023.1.0,60.063883947441624,
,,,,,,,,,,,,,,,,5,8.65,9.325,10,10.675,11.35,0.675,0.275,0.4,3.1,10,match,36.05,312,336,361,385,409,9,9,9,9,9,,,,,,,2,0,2,0,0,18,18,33,,,,,,,,,,,,num_4,1.05761999997776,num_4,0.35,1.3,0.25,0.5,9.55138,19.10275,return,3.075828399974853,,,,,,,,,,,,,,,,,706,23,male,up_down_width,2024-05-19_16h21.25.132,exp1,2023.1.0,60.063883947441624,
,,,,,,,,,,,,,,,,3,8.525,10,11.475,0,0,1.475,1.225,0.25,3.2,10,match,36.05,307,361,414,0,0,9,9,9,0,0,,,,,,,2,0,2,0,0,19,19,45,,,,,,,,,,,,num_2,0.9246420999988914,num_2,0.45,1.6,0.20000000000000007,1.9,7.6411,72.59046,return,8.999270700005582,,,,,,,,,,,,,,,,,706,23,male,up_down_width,2024-05-19_16h21.25.132,exp1,2023.1.0,60.063883947441624,
,,,,,,,,,,,,,,,,3,9.3,10,10.7,0,0,0.7,0.1499999999999999,0.55,1.95,10,initial,36.05,335,361,386,0,0,9,9,9,0,0,,,,,,,2,0,2,0,0,20,20,6,,,,,,,,,,,,num_3,0.940463799983263,num_3,0.35,0.8,0.6,0.8,22.9233,30.5644,return,2.4470501999894623,,,,,,,,,,,,,,,,,706,23,male,up_down_width,2024-05-19_16h21.25.132,exp1,2023.1.0,60.063883947441624,
,,,,,,,,,,,,,,,,3,7.800000000000001,10,12.2,0,0,2.1999999999999997,1.7999999999999998,0.4,4.8,10,match,36.05,281,361,440,0,0,9,9,9,0,0,,,,,,,2,0,2,0,0,21,21,39,,,,,,,,,,,,num_2,0.9060302999860141,num_2,0.35,1.4,0.25,2.3,9.55138,87.87266,return,2.528388900012942,,,,,,,,,,,,,,,,,706,23,male,up_down_width,2024-05-19_16h21.25.132,exp1,2023.1.0,60.063883947441624,
,,,,,,,,,,,,,,,,5,8.65,9.325,10,10.675,11.35,0.675,0.125,0.55,3.25,10,match,36.05,312,336,361,385,409,9,9,9,9,9,,,,,,,2,0,2,0,0,22,22,29,,,,,,,,,,,,num_4,0.9529946999973617,num_4,0.2,0.8,0.6,0.7,22.9233,26.74385,return,2.5408748999761883,,,,,,,,,,,,,,,,,706,23,male,up_down_width,2024-05-19_16h21.25.132,exp1,2023.1.0,60.063883947441624,
,,,,,,,,,,,,,,,,4,8.9,9.633333333333333,10.366666666666667,11.1,0,0.7333333333333333,0.18333333333333326,0.55,2.75,10,match,36.05,321,347,374,400,0,9,9,9,9,0,,,,,,,2,0,2,0,0,23,23,1,,,,,,,,,,,,num_3,1.1297382999910042,num_3,0.5,0.9,0.55,0.75,21.01303,28.65413,return,2.3117911999870557,,,,,,,,,,,,,,,,,706,23,male,up_down_width,2024-05-19_16h21.25.132,exp1,2023.1.0,60.063883947441624,
,,,,,,,,,,,,,,,,4,8.9,9.633333333333333,10.366666666666667,11.1,0,0.7333333333333334,0.4833333333333334,0.25,2.45,10,match,36.05,321,347,374,400,0,9,9,9,9,0,,,,,,,2,0,2,0,0,24,24,3,,,,,,,,,,,,num_4,0.9330962999956682,num_4,0.4,0.5,0.15000000000000008,0.5,5.73083,19.10275,return,1.598492899996927,,,,,,,,,,,,,,,,,706,23,male,up_down_width,2024-05-19_16h21.25.132,exp1,2023.1.0,60.063883947441624,
,,,,,,,,,,,,,,,,4,8.95,9.65,10.35,11.05,0,0.7,0.29999999999999993,0.4,2.5,10,initial,36.05,323,348,373,398,0,9,9,9,9,0,,,,,,,2,0,2,0,0,25,25,26,,,,,,,,,,,,num_3,1.0323878999915905,num_3,0.5,1.2,0.25000000000000006,0.9,9.55138,34.38495,return,3.6122051999846008,,,,,,,,,,,,,,,,,706,23,male,up_down_width,2024-05-19_16h21.25.132,exp1,2023.1.0,60.063883947441624,
,,,,,,,,,,,,,,,,3,8.9,10,11.1,0,0,1.1,0.8500000000000001,0.25,2.45,10,initial,36.05,321,361,400,0,0,9,9,9,0,0,,,,,,,2,0,2,0,0,26,26,2,,,,,,,,,,,,num_3,0.8434893000230659,num_3,0.25,1.3,0.2,1.3,7.6411,49.66716,return,1.1562312999740243,,,,,,,,,,,,,,,,,706,23,male,up_down_width,2024-05-19_16h21.25.132,exp1,2023.1.0,60.063883947441624,
,,,,,,,,,,,,,,,,4,8.35,9.45,10.55,11.65,0,1.1,0.7000000000000001,0.4,3.7,10,initial,36.05,301,341,380,420,0,9,9,9,9,0,,,,,,,2,0,2,0,0,27,27,21,,,,,,,,,,,,num_4,0.7924243000161368,num_4,0.35,1.3,0.35,1.3,13.37193,49.66716,return,0.9792501000047196,,,,,,,,,,,,,,,,,706,23,male,up_down_width,2024-05-19_16h21.25.132,exp1,2023.1.0,60.063883947441624,
,,,,,,,,,,,,,,,,5,8.65,9.325,10,10.675,11.35,0.675,0.42500000000000004,0.25,2.95,10,match,36.05,312,336,361,385,409,9,9,9,9,9,,,,,,,2,0,2,0,0,28,28,31,,,,,,,,,,,,num_4,0.8090528000029735,num_4,0.5,1.0,0.20000000000000007,0.8,7.6411,30.5644,return,2.262917699990794,,,,,,,,,,,,,,,,,706,23,male,up_down_width,2024-05-19_16h21.25.132,exp1,2023.1.0,60.063883947441624,
,,,,,,,,,,,,,,,,3,8.2,10,11.8,0,0,1.7999999999999998,1.4,0.4,4,10,match,36.05,296,361,425,0,0,9,9,9,0,0,,,,,,,2,0,2,0,0,29,29,51,,,,,,,,,,,,num_3,0.9179176000179723,num_3,0.25,0.9,0.25,1.6,9.55138,61.12881,return,5.226773100002902,,,,,,,,,,,,,,,,,706,23,male,up_down_width,2024-05-19_16h21.25.132,exp1,2023.1.0,60.063883947441624,
,,,,,,,,,,,,,,,,3,8.9,10,11.1,0,0,1.1,0.55,0.55,2.75,10,initial,36.05,321,361,400,0,0,9,9,9,0,0,,,,,,,2,0,2,0,0,30,30,0,,,,,,,,,,,,num_2,0.8648722000070848,num_2,0.2,1.0,0.7000000000000001,1.0,26.74385,38.2055,return,2.440926400013268,,,,,,,,,,,,,,,,,706,23,male,up_down_width,2024-05-19_16h21.25.132,exp1,2023.1.0,60.063883947441624,
,,,,,,,,,,,,,,,,3,9.1,10,10.9,0,0,0.9,0.35,0.55,2.35,10,initial,36.05,328,361,393,0,0,9,9,9,0,0,,,,,,,2,0,2,0,0,31,31,11,,,,,,,,,,,,num_2,0.9627891999843996,num_2,0.3,0.8,0.6,0.8,22.9233,30.5644,return,1.6751631000079215,,,,,,,,,,,,,,,,,706,23,male,up_down_width,2024-05-19_16h21.25.132,exp1,2023.1.0,60.063883947441624,
,,,,,,,,,,,,,,,,4,9.3,9.766666666666667,10.233333333333333,10.7,0,0.4666666666666667,0.06666666666666665,0.4,1.8,10,match,36.05,335,352,369,386,0,9,9,9,9,0,,,,,,,2,0,2,0,0,32,32,10,,,,,,,,,,,,num_2,2.816194400016684,num_2,0.4,0.8,0.6500000000000001,0.8,24.83358,30.5644,return,1.8320843999972567,,,,,,,,,,,,,,,,,706,23,male,up_down_width,2024-05-19_16h21.25.132,exp1,2023.1.0,60.063883947441624,
,,,,,,,,,,,,,,,,3,9.1,10,10.9,0,0,0.9,0.5,0.4,2.2,10,initial,36.05,328,361,393,0,0,9,9,9,0,0,,,,,,,2,0,2,0,0,33,33,15,,,,,,,,,,,,num_2,1.129346900008386,num_2,0.25,0.6,0.49999999999999994,0.8,19.10275,30.5644,return,6.715101200010395,,,,,,,,,,,,,,,,,706,23,male,up_down_width,2024-05-19_16h21.25.132,exp1,2023.1.0,60.063883947441624,
,,,,,,,,,,,,,,,,3,8.6,10,11.4,0,0,1.4,1.15,0.25,3.05,10,match,36.05,310,361,411,0,0,9,9,9,0,0,,,,,,,2,0,2,0,0,34,34,43,,,,,,,,,,,,num_3,1.3601736999989953,num_3,0.55,0.6,0.15000000000000008,1.2,5.73083,45.8466,return,6.610297599982005,,,,,,,,,,,,,,,,,706,23,male,up_down_width,2024-05-19_16h21.25.132,exp1,2023.1.0,60.063883947441624,
,,,,,,,,,,,,,,,,5,8.35,9.175,10,10.825,11.65,0.825,0.575,0.25,3.55,10,match,36.05,301,331,361,390,420,9,9,9,9,9,,,,,,,2,0,2,0,0,35,35,20,,,,,,,,,,,,num_5,1.3415223000047263,num_5,0.4,1.3,0.15000000000000008,1.3,5.73083,49.66716,return,2.1609614999906626,,,,,,,,,,,,,,,,,706,23,male,up_down_width,2024-05-19_16h21.25.132,exp1,2023.1.0,60.063883947441624,
,,,,,,,,,,,,,,,,4,8.95,9.65,10.35,11.05,0,0.7,0.1499999999999999,0.55,2.65,10,initial,36.05,323,348,373,398,0,9,9,9,9,0,,,,,,,2,0,2,0,0,36,36,23,,,,,,,,,,,,num_3,0.9574637000041548,num_3,0.35,1,0.7000000000000001,1,26.74385,38.2055,return,1.7772155000129715,,,,,,,,,,,,,,,,,706,23,male,up_down_width,2024-05-19_16h21.25.132,exp1,2023.1.0,60.063883947441624,
,,,,,,,,,,,,,,,,4,9.1,9.7,10.3,10.9,0,0.6,0.04999999999999997,0.55,2.35,10,match,36.05,328,350,371,393,0,9,9,9,9,0,,,,,,,2,0,2,0,0,37,37,12,,,,,,,,,,,,num_3,1.2377063000167254,num_3,0.45,0.5,0.45,0.5,17.19248,19.10275,return,2.4518847000144888,,,,,,,,,,,,,,,,,706,23,male,up_down_width,2024-05-19_16h21.25.132,exp1,2023.1.0,60.063883947441624,
,,,,,,,,,,,,,,,,5,8.6,9.3,10,10.7,11.4,0.7,0.29999999999999993,0.4,3.1999999999999997,10,initial,36.05,310,335,361,386,411,9,9,9,9,9,,,,,,,2,0,2,0,0,38,38,44,,,,,,,,,,,,num_5,0.951877899991814,num_5,0.4,1.1,0.35000000000000003,0.95,13.37193,36.29523,return,3.148159800010035,,,,,,,,,,,,,,,,,706,23,male,up_down_width,2024-05-19_16h21.25.132,exp1,2023.1.0,60.063883947441624,
,,,,,,,,,,,,,,,,3,9.3,10,10.7,0,0,0.7,0.29999999999999993,0.4,1.8,10,initial,36.05,335,361,386,0,0,9,9,9,0,0,,,,,,,2,0,2,0,0,39,39,9,,,,,,,,,,,,num_3,1.1904575999942608,num_3,0.2,0.5,0.2,0.5,7.6411,19.10275,return,1.6379306999733672,,,,,,,,,,,,,,,,,706,23,male,up_down_width,2024-05-19_16h21.25.132,exp1,2023.1.0,60.063883947441624,
,,,,,,,,,,,,,,,,4,8.65,9.55,10.45,11.35,0,0.9,0.65,0.25,2.95,10,initial,36.05,312,344,377,409,0,9,9,9,9,0,,,,,,,2,0,2,0,0,40,40,30,,,,,,,,,,,,num_4,1.0825097000051755,num_4,0.5,1.3,0.20000000000000007,1.0,7.6411,38.2055,return,1.689068400010001,,,,,,,,,,,,,,,,,706,23,male,up_down_width,2024-05-19_16h21.25.132,exp1,2023.1.0,60.063883947441624,
,,,,,,,,,,,,,,,,3,9.3,10,10.7,0,0,0.7,0.44999999999999996,0.25,1.65,10,initial,36.05,335,361,386,0,0,9,9,9,0,0,,,,,,,2,0,2,0,0,41,41,7,,,,,,,,,,,,num_2,0.8947443999932148,num_2,0.5,1.0,0.25000000000000006,1.0,9.55138,38.2055,return,1.4821030999883078,,,,,,,,,,,,,,,,,706,23,male,up_down_width,2024-05-19_16h21.25.132,exp1,2023.1.0,60.063883947441624,
,,,,,,,,,,,,,,,,5,8.2,9.1,10,10.9,11.8,0.9,0.5,0.4,4,10,initial,36.05,296,328,361,393,425,9,9,9,9,9,,,,,,,2,0,2,0,0,42,42,50,,,,,,,,,,,,num_5,0.8283367000112776,num_5,0.45,0.7,0.25000000000000006,0.7,9.55138,26.74385,return,1.9099410999915563,,,,,,,,,,,,,,,,,706,23,male,up_down_width,2024-05-19_16h21.25.132,exp1,2023.1.0,60.063883947441624,
,,,,,,,,,,,,,,,,5,8.6,9.3,10,10.7,11.4,0.7,0.44999999999999996,0.25,3.05,10,initial,36.05,310,335,361,386,411,9,9,9,9,9,,,,,,,2,0,2,0,0,43,43,42,,,,,,,,,,,,num_5,0.8368511000007857,num_5,0.25,0.6,0.15000000000000002,0.6,5.73083,22.9233,return,0.8975396000023466,,,,,,,,,,,,,,,,,706,23,male,up_down_width,2024-05-19_16h21.25.132,exp1,2023.1.0,60.063883947441624,
,,,,,,,,,,,,,,,,5,7.8,8.9,10,11.1,12.2,1.1,0.55,0.55,4.95,10,initial,36.05,281,321,361,400,440,9,9,9,9,9,,,,,,,2,0,2,0,0,44,44,34,,,,,,,,,,,,num_4,1.0708069000102114,num_4,0.35,0.6,0.49999999999999994,1.3,19.10275,49.66716,return,3.4842841000063345,,,,,,,,,,,,,,,,,706,23,male,up_down_width,2024-05-19_16h21.25.132,exp1,2023.1.0,60.063883947441624,
,,,,,,,,,,,,,,,,3,7.8,10,12.2,0,0,2.2,1.9500000000000002,0.25,4.65,10,match,36.05,281,361,440,0,0,9,9,9,0,0,,,,,,,2,0,2,0,0,45,45,37,,,,,,,,,,,,num_2,0.9041965999931563,num_2,0.4,1.4,0.15000000000000008,3.0,5.73083,114.61651,return,4.460122099990258,,,,,,,,,,,,,,,,,706,23,male,up_down_width,2024-05-19_16h21.25.132,exp1,2023.1.0,60.063883947441624,
,,,,,,,,,,,,,,,,4,9.1,9.7,10.3,10.9,0,0.6000000000000001,0.20000000000000004,0.4,2.2,10,match,36.05,328,350,371,393,0,9,9,9,9,0,,,,,,,2,0,2,0,0,46,46,16,,,,,,,,,,,,num_3,1.044465200015111,num_3,0.25,0.7,0.15000000000000002,0.7,5.73083,26.74385,return,1.1708922999969218,,,,,,,,,,,,,,,,,706,23,male,up_down_width,2024-05-19_16h21.25.132,exp1,2023.1.0,60.063883947441624,
,,,,,,,,,,,,,,,,5,8.35,9.175,10,10.825,11.65,0.8250000000000001,0.275,0.55,3.85,10,match,36.05,301,331,361,390,420,9,9,9,9,9,,,,,,,2,0,2,0,0,47,47,18,,,,,,,,,,,,num_4,0.8610999000084121,num_4,0.35,0.4,0.39999999999999997,1.0,15.2822,38.2055,return,4.0027818999951705,,,,,,,,,,,,,,,,,706,23,male,up_down_width,2024-05-19_16h21.25.132,exp1,2023.1.0,60.063883947441624,
,,,,,,,,,,,,,,,,3,9.1,10,10.9,0,0,0.9,0.65,0.25,2.05,10,initial,36.05,328,361,393,0,0,9,9,9,0,0,,,,,,,2,0,2,0,0,48,48,13,,,,,,,,,,,,num_3,0.8646476999856532,num_3,0.55,0.7,0.20000000000000007,0.95,7.6411,36.29523,return,3.397950199985644,,,,,,,,,,,,,,,,,706,23,male,up_down_width,2024-05-19_16h21.25.132,exp1,2023.1.0,60.063883947441624,
,,,,,,,,,,,,,,,,5,7.8,8.9,10,11.1,12.2,1.1,0.8500000000000001,0.25,4.65,10,initial,36.05,281,321,361,400,440,9,9,9,9,9,,,,,,,2,0,2,0,0,49,49,36,,,,,,,,,,,,num_5,0.752873899997212,num_5,0.25,1.2,0.25,1.2,9.55138,45.8466,return,1.0375143999990541,,,,,,,,,,,,,,,,,706,23,male,up_down_width,2024-05-19_16h21.25.132,exp1,2023.1.0,60.063883947441624,
,,,,,,,,,,,,,,,,3,8.6,10,11.4,0,0,1.4,0.85,0.55,3.35,10,match,36.05,310,361,411,0,0,9,9,9,0,0,,,,,,,2,0,2,0,0,50,50,41,,,,,,,,,,,,num_3,0.7927680000138935,num_3,0.35,1.2,0.6,1.3,22.9233,49.66716,return,2.212155100016389,,,,,,,,,,,,,,,,,706,23,male,up_down_width,2024-05-19_16h21.25.132,exp1,2023.1.0,60.063883947441624,
,,,,,,,,,,,,,,,,3,8.9,10,11.1,0,0,1.1,0.7000000000000001,0.4,2.6000000000000005,10,initial,36.05,321,361,400,0,0,9,9,9,0,0,,,,,,,2,0,2,0,0,51,51,4,,,,,,,,,,,,num_3,0.7276274999894667,num_3,0.2,1.3,0.35,1.05,13.37193,40.11578,return,4.147737499995856,,,,,,,,,,,,,,,,,706,23,male,up_down_width,2024-05-19_16h21.25.132,exp1,2023.1.0,60.063883947441624,
,,,,,,,,,,,,,,,,,,,,,,,,,,,,,,,,,,,,,,,,,,,,,2,0,2,0,,,,,,,,,,,,,,,,,,,,,,,,,,,,,1351.3222860999813,1351.3222860999813,1351.3222860999813,,,,,,,,,,,,706,23,male,up_down_width,2024-05-19_16h21.25.132,exp1,2023.1.0,60.063883947441624,
,,,,,,,,,,,,,,,,4,8.9,9.633333333333333,10.366666666666667,11.1,0,0.7333333333333334,0.4833333333333334,0.25,2.45,10,match,36.05,321,347,374,400,0,9,9,9,9,0,,,,,,,3,0,3,0,0,0,0,3,,,,,,,,,,,,num_4,0.8112863000133075,num_4,0.45,1.0,0.15000000000000008,0.7,5.73083,26.74385,return,1.778509399999166,,,,,,,,,,,,,,,,,706,23,male,up_down_width,2024-05-19_16h21.25.132,exp1,2023.1.0,60.063883947441624,
,,,,,,,,,,,,,,,,3,9.1,10,10.9,0,0,0.9,0.65,0.25,2.05,10,initial,36.05,328,361,393,0,0,9,9,9,0,0,,,,,,,3,0,3,0,0,1,1,13,,,,,,,,,,,,num_3,0.8350049000000581,num_3,0.2,1.3,0.2,1.3,7.6411,49.66716,return,0.8772922999924049,,,,,,,,,,,,,,,,,706,23,male,up_down_width,2024-05-19_16h21.25.132,exp1,2023.1.0,60.063883947441624,
,,,,,,,,,,,,,,,,5,7.8,8.9,10,11.1,12.2,1.1,0.7000000000000001,0.4,4.800000000000001,10,initial,36.05,281,321,361,400,440,9,9,9,9,9,,,,,,,3,0,3,0,0,2,2,38,,,,,,,,,,,,num_5,0.8688470000051893,num_5,0.55,1.1,0.20000000000000007,0.8,7.6411,30.5644,return,1.9210179000219796,,,,,,,,,,,,,,,,,706,23,male,up_down_width,2024-05-19_16h21.25.132,exp1,2023.1.0,60.063883947441624,
,,,,,,,,,,,,,,,,5,8.65,9.325,10,10.675,11.35,0.675,0.42500000000000004,0.25,2.95,10,match,36.05,312,336,361,385,409,9,9,9,9,9,,,,,,,3,0,3,0,0,3,3,31,,,,,,,,,,,,num_4,0.8614082999993116,num_4,0.25,1.2,0.25,0.9,9.55138,34.38495,return,2.1209186000050977,,,,,,,,,,,,,,,,,706,23,male,up_down_width,2024-05-19_16h21.25.132,exp1,2023.1.0,60.063883947441624,
,,,,,,,,,,,,,,,,3,8.6,10,11.4,0,0,1.4,0.85,0.55,3.35,10,match,36.05,310,361,411,0,0,9,9,9,0,0,,,,,,,3,0,3,0,0,4,4,41,,,,,,,,,,,,num_3,1.2561120000027586,num_3,0.2,1.3,0.7000000000000001,1.3,26.74385,49.66716,return,2.337196899985429,,,,,,,,,,,,,,,,,706,23,male,up_down_width,2024-05-19_16h21.25.132,exp1,2023.1.0,60.063883947441624,
,,,,,,,,,,,,,,,,4,8.95,9.65,10.35,11.05,0,0.7,0.29999999999999993,0.4,2.5,10,initial,36.05,323,348,373,398,0,9,9,9,9,0,,,,,,,3,0,3,0,0,5,5,26,,,,,,,,,,,,num_4,0.7940414999902714,num_4,0.3,1.2,0.25,0.6,9.55138,22.9233,return,2.084263500000816,,,,,,,,,,,,,,,,,706,23,male,up_down_width,2024-05-19_16h21.25.132,exp1,2023.1.0,60.063883947441624,
,,,,,,,,,,,,,,,,4,8.95,9.65,10.35,11.05,0,0.7,0.44999999999999996,0.25,2.3499999999999996,10,initial,36.05,323,348,373,398,0,9,9,9,9,0,,,,,,,3,0,3,0,0,6,6,24,,,,,,,,,,,,num_4,1.8742157999949995,num_4,0.4,1.2,0.25000000000000006,0.6,9.55138,22.9233,return,2.366867300006561,,,,,,,,,,,,,,,,,706,23,male,up_down_width,2024-05-19_16h21.25.132,exp1,2023.1.0,60.063883947441624,
,,,,,,,,,,,,,,,,5,8.65,9.325,10,10.675,11.35,0.675,0.125,0.55,3.25,10,match,36.05,312,336,361,385,409,9,9,9,9,9,,,,,,,3,0,3,0,0,7,7,29,,,,,,,,,,,,num_4,1.0447308000002522,num_4,0.4,1.1,0.6000000000000001,0.7,22.9233,26.74385,return,1.6540861999965273,,,,,,,,,,,,,,,,,706,23,male,up_down_width,2024-05-19_16h21.25.132,exp1,2023.1.0,60.063883947441624,
,,,,,,,,,,,,,,,,4,8.35,9.45,10.55,11.65,0,1.1,0.55,0.55,3.8500000000000005,10,initial,36.05,301,341,380,420,0,9,9,9,9,0,,,,,,,3,0,3,0,0,8,8,17,,,,,,,,,,,,num_4,0.8043826000066474,num_4,0.35,1.2,0.7500000000000001,1.2,28.65413,45.8466,return,2.5622366000025067,,,,,,,,,,,,,,,,,706,23,male,up_down_width,2024-05-19_16h21.25.132,exp1,2023.1.0,60.063883947441624,
,,,,,,,,,,,,,,,,3,8.9,10,11.1,0,0,1.1,0.7000000000000001,0.4,2.6000000000000005,10,initial,36.05,321,361,400,0,0,9,9,9,0,0,,,,,,,3,0,3,0,0,9,9,4,,,,,,,,,,,,num_2,1.342142999987118,num_2,0.35,0.8,0.39999999999999997,1.4,15.2822,53.48771,return,2.8223818999831565,,,,,,,,,,,,,,,,,706,23,male,up_down_width,2024-05-19_16h21.25.132,exp1,2023.1.0,60.063883947441624,
,,,,,,,,,,,,,,,,4,9.1,9.7,10.3,10.9,0,0.6,0.04999999999999997,0.55,2.35,10,match,36.05,328,350,371,393,0,9,9,9,9,0,,,,,,,3,0,3,0,0,10,10,12,,,,,,,,,,,,num_3,1.246950900007505,num_3,0.25,0.5,0.44999999999999996,0.55,17.19248,21.01303,return,6.1251480000209995,,,,,,,,,,,,,,,,,706,23,male,up_down_width,2024-05-19_16h21.25.132,exp1,2023.1.0,60.063883947441624,
,,,,,,,,,,,,,,,,3,8.2,10,11.8,0,0,1.7999999999999998,1.4,0.4,4,10,match,36.05,296,361,425,0,0,9,9,9,0,0,,,,,,,3,0,3,0,0,11,11,51,,,,,,,,,,,,num_2,0.9640825999958906,num_2,0.45,1.2,0.45,2.1,17.19248,80.23156,return,2.2796262999763712,,,,,,,,,,,,,,,,,706,23,male,up_down_width,2024-05-19_16h21.25.132,exp1,2023.1.0,60.063883947441624,
,,,,,,,,,,,,,,,,4,9.1,9.7,10.3,10.9,0,0.6000000000000001,0.20000000000000004,0.4,2.2,10,match,36.05,328,350,371,393,0,9,9,9,9,0,,,,,,,3,0,3,0,0,12,12,16,,,,,,,,,,,,num_3,0.7450243000057526,num_3,0.35,0.9,0.44999999999999996,0.6,17.19248,22.9233,return,3.030391000007512,,,,,,,,,,,,,,,,,706,23,male,up_down_width,2024-05-19_16h21.25.132,exp1,2023.1.0,60.063883947441624,
,,,,,,,,,,,,,,,,3,9.3,10,10.7,0,0,0.7,0.29999999999999993,0.4,1.8,10,initial,36.05,335,361,386,0,0,9,9,9,0,0,,,,,,,3,0,3,0,0,13,13,9,,,,,,,,,,,,num_2,0.7282919999852311,num_2,0.4,1.2,0.5,0.7,19.10275,26.74385,return,2.0427571999898646,,,,,,,,,,,,,,,,,706,23,male,up_down_width,2024-05-19_16h21.25.132,exp1,2023.1.0,60.063883947441624,
,,,,,,,,,,,,,,,,3,8.2,10,11.8,0,0,1.8,1.25,0.55,4.15,10,match,36.05,296,361,425,0,0,9,9,9,0,0,,,,,,,3,0,3,0,0,14,14,47,,,,,,,,,,,,num_3,0.9272996999789029,num_3,0.5,1.3,0.5,1.8,19.10275,68.76991,return,2.8102042000100482,,,,,,,,,,,,,,,,,706,23,male,up_down_width,2024-05-19_16h21.25.132,exp1,2023.1.0,60.063883947441624,
,,,,,,,,,,,,,,,,5,8.2,9.1,10,10.9,11.8,0.9,0.35,0.55,4.15,10,initial,36.05,296,328,361,393,425,9,9,9,9,9,,,,,,,3,0,3,0,0,15,15,46,,,,,,,,,,,,num_4,1.5012329000164755,num_4,0.45,0.7,0.45,1.1,17.19248,42.02605,return,1.6282280000159517,,,,,,,,,,,,,,,,,706,23,male,up_down_width,2024-05-19_16h21.25.132,exp1,2023.1.0,60.063883947441624,
,,,,,,,,,,,,,,,,5,8.6,9.3,10,10.7,11.4,0.7,0.44999999999999996,0.25,3.05,10,initial,36.05,310,335,361,386,411,9,9,9,9,9,,,,,,,3,0,3,0,0,16,16,42,,,,,,,,,,,,num_5,0.8313931999728084,num_5,0.2,0.8,0.2,0.8,7.6411,30.5644,return,0.9564048000029288,,,,,,,,,,,,,,,,,706,23,male,up_down_width,2024-05-19_16h21.25.132,exp1,2023.1.0,60.063883947441624,
,,,,,,,,,,,,,,,,5,8.2,9.1,10,10.9,11.8,0.9,0.5,0.4,4,10,initial,36.05,296,328,361,393,425,9,9,9,9,9,,,,,,,3,0,3,0,0,17,17,50,,,,,,,,,,,,num_5,1.2963953999860678,num_5,0.5,1.2,0.5,1.2,19.10275,45.8466,return,1.0517927999899257,,,,,,,,,,,,,,,,,706,23,male,up_down_width,2024-05-19_16h21.25.132,exp1,2023.1.0,60.063883947441624,
,,,,,,,,,,,,,,,,5,8.95,9.475,10,10.525,11.05,0.525,0.125,0.4,2.5,10,match,36.05,323,342,361,379,398,9,9,9,9,9,,,,,,,3,0,3,0,0,18,18,27,,,,,,,,,,,,num_5,0.9680752000131179,num_5,0.2,0.4,0.35,0.65,13.37193,24.83358,return,4.400613500009058,,,,,,,,,,,,,,,,,706,23,male,up_down_width,2024-05-19_16h21.25.132,exp1,2023.1.0,60.063883947441624,
,,,,,,,,,,,,,,,,5,8.65,9.325,10,10.675,11.35,0.675,0.275,0.4,3.1,10,match,36.05,312,336,361,385,409,9,9,9,9,9,,,,,,,3,0,3,0,0,19,19,33,,,,,,,,,,,,num_5,0.8574551999918185,num_5,0.35,0.4,0.3,0.65,11.46165,24.83358,return,6.447580100008054,,,,,,,,,,,,,,,,,706,23,male,up_down_width,2024-05-19_16h21.25.132,exp1,2023.1.0,60.063883947441624,
,,,,,,,,,,,,,,,,3,8.525,10,11.475,0,0,1.475,1.225,0.25,3.2,10,match,36.05,307,361,414,0,0,9,9,9,0,0,,,,,,,3,0,3,0,0,20,20,45,,,,,,,,,,,,num_2,0.8161748000129592,num_2,0.5,1.4,0.20000000000000007,1.7,7.6411,64.94936,return,2.319594300002791,,,,,,,,,,,,,,,,,706,23,male,up_down_width,2024-05-19_16h21.25.132,exp1,2023.1.0,60.063883947441624,
,,,,,,,,,,,,,,,,4,9.1,9.7,10.3,10.9,0,0.5999999999999999,0.3499999999999999,0.25,2.05,10,match,36.05,328,350,371,393,0,9,9,9,9,0,,,,,,,3,0,3,0,0,21,21,14,,,,,,,,,,,,num_3,1.055679599987343,num_3,0.35,0.8,0.2,0.8,7.6411,30.5644,return,1.284671300003538,,,,,,,,,,,,,,,,,706,23,male,up_down_width,2024-05-19_16h21.25.132,exp1,2023.1.0,60.063883947441624,
,,,,,,,,,,,,,,,,3,8.9,10,11.1,0,0,1.1,0.8500000000000001,0.25,2.45,10,initial,36.05,321,361,400,0,0,9,9,9,0,0,,,,,,,3,0,3,0,0,22,22,2,,,,,,,,,,,,num_2,0.7728203999868128,num_2,0.35,0.6,0.15000000000000002,1.4,5.73083,53.48771,return,4.464529599994421,,,,,,,,,,,,,,,,,706,23,male,up_down_width,2024-05-19_16h21.25.132,exp1,2023.1.0,60.063883947441624,
,,,,,,,,,,,,,,,,5,8.6,9.3,10,10.7,11.4,0.7,0.29999999999999993,0.4,3.1999999999999997,10,initial,36.05,310,335,361,386,411,9,9,9,9,9,,,,,,,3,0,3,0,0,23,23,44,,,,,,,,,,,,num_4,1.1836481999780517,num_4,0.2,0.8,0.44999999999999996,0.8,17.19248,30.5644,return,1.724208700004965,,,,,,,,,,,,,,,,,706,23,male,up_down_width,2024-05-19_16h21.25.132,exp1,2023.1.0,60.063883947441624,
,,,,,,,,,,,,,,,,5,7.8,8.9,10,11.1,12.2,1.1,0.55,0.55,4.95,10,initial,36.05,281,321,361,400,440,9,9,9,9,9,,,,,,,3,0,3,0,0,24,24,34,,,,,,,,,,,,num_5,1.3143259000207763,num_5,0.35,0.7,0.35,0.75,13.37193,28.65413,return,1.8899773000157438,,,,,,,,,,,,,,,,,706,23,male,up_down_width,2024-05-19_16h21.25.132,exp1,2023.1.0,60.063883947441624,
,,,,,,,,,,,,,,,,5,8.35,9.175,10,10.825,11.65,0.825,0.575,0.25,3.55,10,match,36.05,301,331,361,390,420,9,9,9,9,9,,,,,,,3,0,3,0,0,25,25,20,,,,,,,,,,,,num_5,0.849627599993255,num_5,0.5,0.9,0.20000000000000007,0.8,7.6411,30.5644,return,3.022425300005125,,,,,,,,,,,,,,,,,706,23,male,up_down_width,2024-05-19_16h21.25.132,exp1,2023.1.0,60.063883947441624,
,,,,,,,,,,,,,,,,5,8.35,9.175,10,10.825,11.65,0.8250000000000001,0.275,0.55,3.85,10,match,36.05,301,331,361,390,420,9,9,9,9,9,,,,,,,3,0,3,0,0,26,26,18,,,,,,,,,,,,num_5,1.0867857999983244,num_5,0.35,0.8,0.49999999999999994,0.8,19.10275,30.5644,return,1.469316800008528,,,,,,,,,,,,,,,,,706,23,male,up_down_width,2024-05-19_16h21.25.132,exp1,2023.1.0,60.063883947441624,
,,,,,,,,,,,,,,,,3,7.8,10,12.2,0,0,2.2,1.9500000000000002,0.25,4.65,10,match,36.05,281,361,440,0,0,9,9,9,0,0,,,,,,,3,0,3,0,0,27,27,37,,,,,,,,,,,,num_3,1.0512017000000924,num_3,0.3,0.9,0.2,1.4,7.6411,53.48771,return,4.31806950000464,,,,,,,,,,,,,,,,,706,23,male,up_down_width,2024-05-19_16h21.25.132,exp1,2023.1.0,60.063883947441624,
,,,,,,,,,,,,,,,,4,8.95,9.65,10.35,11.05,0,0.7,0.1499999999999999,0.55,2.65,10,initial,36.05,323,348,373,398,0,9,9,9,9,0,,,,,,,3,0,3,0,0,28,28,23,,,,,,,,,,,,num_3,1.1474815999972634,num_3,0.3,1.1,0.8000000000000002,1.1,30.5644,42.02605,return,2.6308851999929175,,,,,,,,,,,,,,,,,706,23,male,up_down_width,2024-05-19_16h21.25.132,exp1,2023.1.0,60.063883947441624,
,,,,,,,,,,,,,,,,3,9.3,10,10.7,0,0,0.7,0.44999999999999996,0.25,1.65,10,initial,36.05,335,361,386,0,0,9,9,9,0,0,,,,,,,3,0,3,0,0,29,29,7,,,,,,,,,,,,num_3,1.1436433999915607,num_3,0.45,1.2,0.6500000000000001,0.95,24.83358,36.29523,return,2.898273099999642,,,,,,,,,,,,,,,,,706,23,male,up_down_width,2024-05-19_16h21.25.132,exp1,2023.1.0,60.063883947441624,
,,,,,,,,,,,,,,,,4,8.35,9.45,10.55,11.65,0,1.1,0.8500000000000001,0.25,3.5500000000000003,10,initial,36.05,301,341,380,420,0,9,9,9,9,0,,,,,,,3,0,3,0,0,30,30,19,,,,,,,,,,,,num_4,0.8714001000043936,num_4,0.55,0.9,0.15000000000000008,0.9,5.73083,34.38495,return,2.5292211000050884,,,,,,,,,,,,,,,,,706,23,male,up_down_width,2024-05-19_16h21.25.132,exp1,2023.1.0,60.063883947441624,
,,,,,,,,,,,,,,,,3,9.3,10,10.7,0,0,0.7,0.1499999999999999,0.55,1.95,10,initial,36.05,335,361,386,0,0,9,9,9,0,0,,,,,,,3,0,3,0,0,31,31,6,,,,,,,,,,,,num_3,0.9297089999890886,num_3,0.25,1,0.49999999999999994,0.6,19.10275,22.9233,return,5.993029400007799,,,,,,,,,,,,,,,,,706,23,male,up_down_width,2024-05-19_16h21.25.132,exp1,2023.1.0,60.063883947441624,
,,,,,,,,,,,,,,,,5,8.6,9.3,10,10.7,11.4,0.7,0.1499999999999999,0.55,3.3499999999999996,10,initial,36.05,310,335,361,386,411,9,9,9,9,9,,,,,,,3,0,3,0,0,32,32,40,,,,,,,,,,,,num_4,0.7806784999847878,num_4,0.3,0.4,0.5499999999999999,0.7,21.01303,26.74385,return,4.002867500006687,,,,,,,,,,,,,,,,,706,23,male,up_down_width,2024-05-19_16h21.25.132,exp1,2023.1.0,60.063883947441624,
,,,,,,,,,,,,,,,,5,8.275,9.1375,10,10.8625,11.725,0.8625,0.6125,0.25,3.7,10,match,36.05,298,329,361,392,423,9,9,9,9,9,,,,,,,3,0,3,0,0,33,33,22,,,,,,,,,,,,num_4,0.9434881999914069,num_4,0.3,0.9,0.2,0.9,7.6411,34.38495,return,1.1902644999790937,,,,,,,,,,,,,,,,,706,23,male,up_down_width,2024-05-19_16h21.25.132,exp1,2023.1.0,60.063883947441624,
,,,,,,,,,,,,,,,,5,8.95,9.475,10,10.525,11.05,0.525,0.275,0.25,2.35,10,match,36.05,323,342,361,379,398,9,9,9,9,9,,,,,,,3,0,3,0,0,34,34,25,,,,,,,,,,,,num_4,0.8016196000098716,num_4,0.25,1.0,0.3,0.6,11.46165,22.9233,return,2.47963190000155,,,,,,,,,,,,,,,,,706,23,male,up_down_width,2024-05-19_16h21.25.132,exp1,2023.1.0,60.063883947441624,
,,,,,,,,,,,,,,,,3,8.6,10,11.4,0,0,1.4,1.15,0.25,3.05,10,match,36.05,310,361,411,0,0,9,9,9,0,0,,,,,,,3,0,3,0,0,35,35,43,,,,,,,,,,,,num_2,0.9288169000064954,num_2,0.25,0.8,0.2,2.1,7.6411,80.23156,return,6.441691700019874,,,,,,,,,,,,,,,,,706,23,male,up_down_width,2024-05-19_16h21.25.132,exp1,2023.1.0,60.063883947441624,
,,,,,,,,,,,,,,,,4,9.3,9.766666666666667,10.233333333333333,10.7,0,0.4666666666666667,0.21666666666666665,0.25,1.65,10,match,36.05,335,352,369,386,0,9,9,9,9,0,,,,,,,3,0,3,0,0,36,36,8,,,,,,,,,,,,num_3,1.2013420000148471,num_3,0.45,1,0.20000000000000007,0.8,7.6411,30.5644,return,2.589484399999492,,,,,,,,,,,,,,,,,706,23,male,up_down_width,2024-05-19_16h21.25.132,exp1,2023.1.0,60.063883947441624,
,,,,,,,,,,,,,,,,5,7.8,8.9,10,11.1,12.2,1.1,0.8500000000000001,0.25,4.65,10,initial,36.05,281,321,361,400,440,9,9,9,9,9,,,,,,,3,0,3,0,0,37,37,36,,,,,,,,,,,,num_5,0.8904058999905828,num_5,0.2,1.0,0.2,1.0,7.6411,38.2055,return,0.8681179999839514,,,,,,,,,,,,,,,,,706,23,male,up_down_width,2024-05-19_16h21.25.132,exp1,2023.1.0,60.063883947441624,
,,,,,,,,,,,,,,,,4,8.65,9.55,10.45,11.35,0,0.9,0.35,0.55,3.25,10,initial,36.05,312,344,377,409,0,9,9,9,9,0,,,,,,,3,0,3,0,0,38,38,28,,,,,,,,,,,,num_4,1.0333548999915365,num_4,0.4,1.0,0.4,1.0,15.2822,38.2055,return,0.784632299997611,,,,,,,,,,,,,,,,,706,23,male,up_down_width,2024-05-19_16h21.25.132,exp1,2023.1.0,60.063883947441624,
,,,,,,,,,,,,,,,,4,8.35,9.45,10.55,11.65,0,1.1,0.7000000000000001,0.4,3.7,10,initial,36.05,301,341,380,420,0,9,9,9,9,0,,,,,,,3,0,3,0,0,39,39,21,,,,,,,,,,,,num_4,0.8198298999923281,num_4,0.45,0.7,0.25000000000000006,0.7,9.55138,26.74385,return,1.8829808000009507,,,,,,,,,,,,,,,,,706,23,male,up_down_width,2024-05-19_16h21.25.132,exp1,2023.1.0,60.063883947441624,
,,,,,,,,,,,,,,,,4,8.825,9.608333333333333,10.391666666666667,11.175,0,0.7833333333333333,0.5333333333333333,0.25,2.6,10,match,36.05,318,346,375,403,0,9,9,9,9,0,,,,,,,3,0,3,0,0,40,40,5,,,,,,,,,,,,num_4,0.6707563000090886,num_4,0.5,0.6,0.15000000000000008,0.6,5.73083,22.9233,return,1.7455464999948163,,,,,,,,,,,,,,,,,706,23,male,up_down_width,2024-05-19_16h21.25.132,exp1,2023.1.0,60.063883947441624,
,,,,,,,,,,,,,,,,3,7.8,10,12.2,0,0,2.2,1.65,0.55,4.95,10,match,36.05,281,361,440,0,0,9,9,9,0,0,,,,,,,3,0,3,0,0,41,41,35,,,,,,,,,,,,num_3,0.8150700000114739,num_3,0.25,0.8,0.5499999999999999,1.55,21.01303,59.21853,return,5.624385300005088,,,,,,,,,,,,,,,,,706,23,male,up_down_width,2024-05-19_16h21.25.132,exp1,2023.1.0,60.063883947441624,
,,,,,,,,,,,,,,,,4,8.65,9.55,10.45,11.35,0,0.9,0.65,0.25,2.95,10,initial,36.05,312,344,377,409,0,9,9,9,9,0,,,,,,,3,0,3,0,0,42,42,30,,,,,,,,,,,,num_4,0.8674876000150107,num_4,0.2,0.7,0.2,1.1,7.6411,42.02605,return,1.3871227000199724,,,,,,,,,,,,,,,,,706,23,male,up_down_width,2024-05-19_16h21.25.132,exp1,2023.1.0,60.063883947441624,
,,,,,,,,,,,,,,,,3,9.1,10,10.9,0,0,0.9,0.5,0.4,2.2,10,initial,36.05,328,361,393,0,0,9,9,9,0,0,,,,,,,3,0,3,0,0,43,43,15,,,,,,,,,,,,num_3,0.8089060000202153,num_3,0.5,0.7,0.4,0.9,15.2822,34.38495,return,2.9913127000036184,,,,,,,,,,,,,,,,,706,23,male,up_down_width,2024-05-19_16h21.25.132,exp1,2023.1.0,60.063883947441624,
,,,,,,,,,,,,,,,,3,7.800000000000001,10,12.2,0,0,2.1999999999999997,1.7999999999999998,0.4,4.8,10,match,36.05,281,361,440,0,0,9,9,9,0,0,,,,,,,3,0,3,0,0,44,44,39,,,,,,,,,,,,num_2,0.7701728999963962,num_2,0.35,1.0,0.35,2.8,13.37193,106.97541,return,5.069145900022704,,,,,,,,,,,,,,,,,706,23,male,up_down_width,2024-05-19_16h21.25.132,exp1,2023.1.0,60.063883947441624,
,,,,,,,,,,,,,,,,5,8.2,9.1,10,10.9,11.8,0.9,0.65,0.25,3.85,10,initial,36.05,296,328,361,393,425,9,9,9,9,9,,,,,,,3,0,3,0,0,45,45,48,,,,,,,,,,,,num_5,1.3862454000045545,num_5,0.45,0.9,0.25000000000000006,0.9,9.55138,34.38495,return,1.3615239999780897,,,,,,,,,,,,,,,,,706,23,male,up_down_width,2024-05-19_16h21.25.132,exp1,2023.1.0,60.063883947441624,
,,,,,,,,,,,,,,,,4,9.3,9.766666666666667,10.233333333333333,10.7,0,0.4666666666666667,0.06666666666666665,0.4,1.8,10,match,36.05,335,352,369,386,0,9,9,9,9,0,,,,,,,3,0,3,0,0,46,46,10,,,,,,,,,,,,num_4,1.4924688000173774,num_4,0.3,0.9,0.35,0.4,13.37193,15.2822,return,2.5649013000074774,,,,,,,,,,,,,,,,,706,23,male,up_down_width,2024-05-19_16h21.25.132,exp1,2023.1.0,60.063883947441624,
,,,,,,,,,,,,,,,,3,8.9,10,11.1,0,0,1.1,0.55,0.55,2.75,10,initial,36.05,321,361,400,0,0,9,9,9,0,0,,,,,,,3,0,3,0,0,47,47,0,,,,,,,,,,,,num_2,0.8431455999962054,num_2,0.3,0.6,0.6,1.3,22.9233,49.66716,return,2.2115107999998145,,,,,,,,,,,,,,,,,706,23,male,up_down_width,2024-05-19_16h21.25.132,exp1,2023.1.0,60.063883947441624,
,,,,,,,,,,,,,,,,3,8.2,10,11.8,0,0,1.8,1.55,0.25,3.85,10,match,36.05,296,361,425,0,0,9,9,9,0,0,,,,,,,3,0,3,0,0,48,48,49,,,,,,,,,,,,num_2,0.9845200999989174,num_2,0.2,1.4,0.15000000000000002,2.5,5.73083,95.51376,return,3.2592468000075314,,,,,,,,,,,,,,,,,706,23,male,up_down_width,2024-05-19_16h21.25.132,exp1,2023.1.0,60.063883947441624,
,,,,,,,,,,,,,,,,4,8.9,9.633333333333333,10.366666666666667,11.1,0,0.7333333333333333,0.18333333333333326,0.55,2.75,10,match,36.05,321,347,374,400,0,9,9,9,9,0,,,,,,,3,0,3,0,0,49,49,1,,,,,,,,,,,,num_3,1.0343156000017188,num_3,0.3,0.8,0.8000000000000002,1.1,30.5644,42.02605,return,2.632646600017324,,,,,,,,,,,,,,,,,706,23,male,up_down_width,2024-05-19_16h21.25.132,exp1,2023.1.0,60.063883947441624,
,,,,,,,,,,,,,,,,4,8.65,9.55,10.45,11.35,0,0.9,0.5,0.4,3.1,10,initial,36.05,312,344,377,409,0,9,9,9,9,0,,,,,,,3,0,3,0,0,50,50,32,,,,,,,,,,,,num_4,0.7773218000074849,num_4,0.3,0.3,0.35,1.0,13.37193,38.2055,return,3.701944399974309,,,,,,,,,,,,,,,,,706,23,male,up_down_width,2024-05-19_16h21.25.132,exp1,2023.1.0,60.063883947441624,
,,,,,,,,,,,,,,,,3,9.1,10,10.9,0,0,0.9,0.35,0.55,2.35,10,initial,36.05,328,361,393,0,0,9,9,9,0,0,,,,,,,3,0,3,0,0,51,51,11,,,,,,,,,,,,num_3,0.8181016000162344,num_3,0.4,0.7,0.35000000000000003,0.8,13.37193,30.5644,return,2.7302659999986645,,,,,,,,,,,,,,,,,706,23,male,up_down_width,2024-05-19_16h21.25.132,exp1,2023.1.0,60.063883947441624,
,,,,,,,,,,,,,,,,,,,,,,,,,,,,,,,,,,,,,,,,,,,,,3,0,3,0,,,,,,,,,,,,,,,,,,,,,,,,,,,,,1638.1557768000057,1638.1557768000057,1638.1557768000057,,,,,,,,,,,,706,23,male,up_down_width,2024-05-19_16h21.25.132,exp1,2023.1.0,60.063883947441624,
,,,,,,,,,,,,,,,,3,7.8,10,12.2,0,0,2.2,1.9500000000000002,0.25,4.65,10,match,36.05,281,361,440,0,0,9,9,9,0,0,,,,,,,4,0,4,0,0,0,0,37,,,,,,,,,,,,num_2,0.9928321999905165,num_2,0.5,1.6,0.25000000000000006,2.4,9.55138,91.69321,return,3.8765119000163395,,,,,,,,,,,,,,,,,706,23,male,up_down_width,2024-05-19_16h21.25.132,exp1,2023.1.0,60.063883947441624,
,,,,,,,,,,,,,,,,4,8.65,9.55,10.45,11.35,0,0.9,0.65,0.25,2.95,10,initial,36.05,312,344,377,409,0,9,9,9,9,0,,,,,,,4,0,4,0,0,1,1,30,,,,,,,,,,,,num_4,0.9534149000246543,num_4,0.5,1.2,0.15000000000000008,1.2,5.73083,45.8466,return,2.0311352999997325,,,,,,,,,,,,,,,,,706,23,male,up_down_width,2024-05-19_16h21.25.132,exp1,2023.1.0,60.063883947441624,
,,,,,,,,,,,,,,,,4,8.65,9.55,10.45,11.35,0,0.9,0.35,0.55,3.25,10,initial,36.05,312,344,377,409,0,9,9,9,9,0,,,,,,,4,0,4,0,0,2,2,28,,,,,,,,,,,,num_4,1.220185299986042,num_4,0.55,1.0,0.5,1.0,19.10275,38.2055,return,0.9447013000026345,,,,,,,,,,,,,,,,,706,23,male,up_down_width,2024-05-19_16h21.25.132,exp1,2023.1.0,60.063883947441624,
,,,,,,,,,,,,,,,,5,8.2,9.1,10,10.9,11.8,0.9,0.35,0.55,4.15,10,initial,36.05,296,328,361,393,425,9,9,9,9,9,,,,,,,4,0,4,0,0,3,3,46,,,,,,,,,,,,num_5,1.0440284999785945,num_5,0.2,0.7,0.44999999999999996,0.7,17.19248,26.74385,return,1.5119858999969438,,,,,,,,,,,,,,,,,706,23,male,up_down_width,2024-05-19_16h21.25.132,exp1,2023.1.0,60.063883947441624,
,,,,,,,,,,,,,,,,5,8.65,9.325,10,10.675,11.35,0.675,0.275,0.4,3.1,10,match,36.05,312,336,361,385,409,9,9,9,9,9,,,,,,,4,0,4,0,0,4,4,33,,,,,,,,,,,,num_5,0.7815922000154387,num_5,0.25,1.1,0.25,0.65,9.55138,24.83358,return,4.346031699999003,,,,,,,,,,,,,,,,,706,23,male,up_down_width,2024-05-19_16h21.25.132,exp1,2023.1.0,60.063883947441624,
,,,,,,,,,,,,,,,,5,8.2,9.1,10,10.9,11.8,0.9,0.65,0.25,3.85,10,initial,36.05,296,328,361,393,425,9,9,9,9,9,,,,,,,4,0,4,0,0,5,5,48,,,,,,,,,,,,num_5,1.0727068999840412,num_5,0.2,0.3,0.2,0.9,7.6411,34.38495,return,3.248945300001651,,,,,,,,,,,,,,,,,706,23,male,up_down_width,2024-05-19_16h21.25.132,exp1,2023.1.0,60.063883947441624,
,,,,,,,,,,,,,,,,4,8.35,9.45,10.55,11.65,0,1.1,0.8500000000000001,0.25,3.5500000000000003,10,initial,36.05,301,341,380,420,0,9,9,9,9,0,,,,,,,4,0,4,0,0,6,6,19,,,,,,,,,,,,num_4,1.04443499998888,num_4,0.4,0.5,0.15000000000000008,1.1,5.73083,42.02605,return,3.865555999975186,,,,,,,,,,,,,,,,,706,23,male,up_down_width,2024-05-19_16h21.25.132,exp1,2023.1.0,60.063883947441624,
,,,,,,,,,,,,,,,,4,8.825,9.608333333333333,10.391666666666667,11.175,0,0.7833333333333333,0.5333333333333333,0.25,2.6,10,match,36.05,318,346,375,403,0,9,9,9,9,0,,,,,,,4,0,4,0,0,7,7,5,,,,,,,,,,,,num_4,0.9085264999885112,num_4,0.25,1.3,0.2,1.0,7.6411,38.2055,return,4.083238099992741,,,,,,,,,,,,,,,,,706,23,male,up_down_width,2024-05-19_16h21.25.132,exp1,2023.1.0,60.063883947441624,
,,,,,,,,,,,,,,,,4,8.9,9.633333333333333,10.366666666666667,11.1,0,0.7333333333333334,0.4833333333333334,0.25,2.45,10,match,36.05,321,347,374,400,0,9,9,9,9,0,,,,,,,4,0,4,0,0,8,8,3,,,,,,,,,,,,num_4,0.8648551000223961,num_4,0.5,0.8,0.15000000000000008,0.8,5.73083,30.5644,return,2.094196499994723,,,,,,,,,,,,,,,,,706,23,male,up_down_width,2024-05-19_16h21.25.132,exp1,2023.1.0,60.063883947441624,
,,,,,,,,,,,,,,,,5,7.8,8.9,10,11.1,12.2,1.1,0.55,0.55,4.95,10,initial,36.05,281,321,361,400,440,9,9,9,9,9,,,,,,,4,0,4,0,0,9,9,34,,,,,,,,,,,,num_4,0.9215640000184067,num_4,0.35,0.4,0.3,1.2,11.46165,45.8466,return,2.9630460999906063,,,,,,,,,,,,,,,,,706,23,male,up_down_width,2024-05-19_16h21.25.132,exp1,2023.1.0,60.063883947441624,
,,,,,,,,,,,,,,,,3,8.9,10,11.1,0,0,1.1,0.8500000000000001,0.25,2.45,10,initial,36.05,321,361,400,0,0,9,9,9,0,0,,,,,,,4,0,4,0,0,10,10,2,,,,,,,,,,,,num_3,0.8742337000148837,num_3,0.2,1.1,0.25,1.1,9.55138,42.02605,return,1.3450561000208836,,,,,,,,,,,,,,,,,706,23,male,up_down_width,2024-05-19_16h21.25.132,exp1,2023.1.0,60.063883947441624,
,,,,,,,,,,,,,,,,3,7.8,10,12.2,0,0,2.2,1.65,0.55,4.95,10,match,36.05,281,361,440,0,0,9,9,9,0,0,,,,,,,4,0,4,0,0,11,11,35,,,,,,,,,,,,num_3,0.8968483999778982,num_3,0.35,0.7,0.44999999999999996,1.9,17.19248,72.59046,return,7.291628100007074,,,,,,,,,,,,,,,,,706,23,male,up_down_width,2024-05-19_16h21.25.132,exp1,2023.1.0,60.063883947441624,
,,,,,,,,,,,,,,,,4,8.95,9.65,10.35,11.05,0,0.7,0.29999999999999993,0.4,2.5,10,initial,36.05,323,348,373,398,0,9,9,9,9,0,,,,,,,4,0,4,0,0,12,12,26,,,,,,,,,,,,num_4,2.875076700001955,num_4,0.25,1.1,0.25,0.6,9.55138,22.9233,return,1.8251210000016727,,,,,,,,,,,,,,,,,706,23,male,up_down_width,2024-05-19_16h21.25.132,exp1,2023.1.0,60.063883947441624,
,,,,,,,,,,,,,,,,3,9.3,10,10.7,0,0,0.7,0.29999999999999993,0.4,1.8,10,initial,36.05,335,361,386,0,0,9,9,9,0,0,,,,,,,4,0,4,0,0,13,13,9,,,,,,,,,,,,num_3,1.3021101000194903,num_3,0.55,0.6,0.25000000000000006,0.6,9.55138,22.9233,return,2.923349299991969,,,,,,,,,,,,,,,,,706,23,male,up_down_width,2024-05-19_16h21.25.132,exp1,2023.1.0,60.063883947441624,
,,,,,,,,,,,,,,,,4,9.1,9.7,10.3,10.9,0,0.5999999999999999,0.3499999999999999,0.25,2.05,10,match,36.05,328,350,371,393,0,9,9,9,9,0,,,,,,,4,0,4,0,0,14,14,14,,,,,,,,,,,,num_4,1.1654178000171669,num_4,0.35,1.0,0.25,0.6,9.55138,22.9233,return,2.5572913000069093,,,,,,,,,,,,,,,,,706,23,male,up_down_width,2024-05-19_16h21.25.132,exp1,2023.1.0,60.063883947441624,
,,,,,,,,,,,,,,,,3,8.6,10,11.4,0,0,1.4,0.85,0.55,3.35,10,match,36.05,310,361,411,0,0,9,9,9,0,0,,,,,,,4,0,4,0,0,15,15,41,,,,,,,,,,,,num_2,1.0796845000004396,num_2,0.35,0.4,0.6,1.4,22.9233,53.48771,return,3.3505250999878626,,,,,,,,,,,,,,,,,706,23,male,up_down_width,2024-05-19_16h21.25.132,exp1,2023.1.0,60.063883947441624,
,,,,,,,,,,,,,,,,4,9.3,9.766666666666667,10.233333333333333,10.7,0,0.4666666666666667,0.06666666666666665,0.4,1.8,10,match,36.05,335,352,369,386,0,9,9,9,9,0,,,,,,,4,0,4,0,0,16,16,10,,,,,,,,,,,,num_3,0.9262765999883413,num_3,0.5,0.9,0.4,0.6,15.2822,22.9233,return,2.769272700010333,,,,,,,,,,,,,,,,,706,23,male,up_down_width,2024-05-19_16h21.25.132,exp1,2023.1.0,60.063883947441624,
,,,,,,,,,,,,,,,,3,9.1,10,10.9,0,0,0.9,0.5,0.4,2.2,10,initial,36.05,328,361,393,0,0,9,9,9,0,0,,,,,,,4,0,4,0,0,17,17,15,,,,,,,,,,,,num_3,0.9183678000117652,num_3,0.2,0.5,0.39999999999999997,0.6,15.2822,22.9233,return,2.7656699000217486,,,,,,,,,,,,,,,,,706,23,male,up_down_width,2024-05-19_16h21.25.132,exp1,2023.1.0,60.063883947441624,
,,,,,,,,,,,,,,,,5,7.8,8.9,10,11.1,12.2,1.1,0.7000000000000001,0.4,4.800000000000001,10,initial,36.05,281,321,361,400,440,9,9,9,9,9,,,,,,,4,0,4,0,0,18,18,38,,,,,,,,,,,,num_5,0.7710191000078339,num_5,0.25,0.4,0.39999999999999997,0.85,15.2822,32.47468,return,4.347403899999335,,,,,,,,,,,,,,,,,706,23,male,up_down_width,2024-05-19_16h21.25.132,exp1,2023.1.0,60.063883947441624,
,,,,,,,,,,,,,,,,5,8.6,9.3,10,10.7,11.4,0.7,0.1499999999999999,0.55,3.3499999999999996,10,initial,36.05,310,335,361,386,411,9,9,9,9,9,,,,,,,4,0,4,0,0,19,19,40,,,,,,,,,,,,num_5,0.726745399995707,num_5,0.45,1.0,0.6500000000000001,0.8,24.83358,30.5644,return,2.3226238999923225,,,,,,,,,,,,,,,,,706,23,male,up_down_width,2024-05-19_16h21.25.132,exp1,2023.1.0,60.063883947441624,
,,,,,,,,,,,,,,,,5,7.8,8.9,10,11.1,12.2,1.1,0.8500000000000001,0.25,4.65,10,initial,36.05,281,321,361,400,440,9,9,9,9,9,,,,,,,4,0,4,0,0,20,20,36,,,,,,,,,,,,num_5,0.8465528000087943,num_5,0.4,0.8,0.15000000000000008,0.8,5.73083,30.5644,return,1.5761233999801334,,,,,,,,,,,,,,,,,706,23,male,up_down_width,2024-05-19_16h21.25.132,exp1,2023.1.0,60.063883947441624,
,,,,,,,,,,,,,,,,4,8.35,9.45,10.55,11.65,0,1.1,0.7000000000000001,0.4,3.7,10,initial,36.05,301,341,380,420,0,9,9,9,9,0,,,,,,,4,0,4,0,0,21,21,21,,,,,,,,,,,,num_4,0.8625173000036739,num_4,0.45,1.1,0.4,1.1,15.2822,42.02605,return,0.8656783000042196,,,,,,,,,,,,,,,,,706,23,male,up_down_width,2024-05-19_16h21.25.132,exp1,2023.1.0,60.063883947441624,
,,,,,,,,,,,,,,,,5,8.95,9.475,10,10.525,11.05,0.525,0.125,0.4,2.5,10,match,36.05,323,342,361,379,398,9,9,9,9,9,,,,,,,4,0,4,0,0,22,22,27,,,,,,,,,,,,num_4,0.8328883000067435,num_4,0.4,0.6,0.45,0.5,17.19248,19.10275,return,1.5620722999738064,,,,,,,,,,,,,,,,,706,23,male,up_down_width,2024-05-19_16h21.25.132,exp1,2023.1.0,60.063883947441624,
,,,,,,,,,,,,,,,,3,8.2,10,11.8,0,0,1.8,1.55,0.25,3.85,10,match,36.05,296,361,425,0,0,9,9,9,0,0,,,,,,,4,0,4,0,0,23,23,49,,,,,,,,,,,,num_3,1.4685147000127472,num_3,0.35,0.8,0.2,1.15,7.6411,43.93633,return,2.6047690999985207,,,,,,,,,,,,,,,,,706,23,male,up_down_width,2024-05-19_16h21.25.132,exp1,2023.1.0,60.063883947441624,
,,,,,,,,,,,,,,,,3,8.2,10,11.8,0,0,1.7999999999999998,1.4,0.4,4,10,match,36.05,296,361,425,0,0,9,9,9,0,0,,,,,,,4,0,4,0,0,24,24,51,,,,,,,,,,,,num_3,0.7949991000059526,num_3,0.2,0.6,0.35,1.6,13.37193,61.12881,return,6.923303499992471,,,,,,,,,,,,,,,,,706,23,male,up_down_width,2024-05-19_16h21.25.132,exp1,2023.1.0,60.063883947441624,
,,,,,,,,,,,,,,,,4,8.9,9.633333333333333,10.366666666666667,11.1,0,0.7333333333333333,0.18333333333333326,0.55,2.75,10,match,36.05,321,347,374,400,0,9,9,9,9,0,,,,,,,4,0,4,0,0,25,25,1,,,,,,,,,,,,num_3,0.8877723999903537,num_3,0.5,0.9,0.6000000000000001,0.9,22.9233,34.38495,return,1.2318368999985978,,,,,,,,,,,,,,,,,706,23,male,up_down_width,2024-05-19_16h21.25.132,exp1,2023.1.0,60.063883947441624,
,,,,,,,,,,,,,,,,3,9.1,10,10.9,0,0,0.9,0.35,0.55,2.35,10,initial,36.05,328,361,393,0,0,9,9,9,0,0,,,,,,,4,0,4,0,0,26,26,11,,,,,,,,,,,,num_3,0.9375097000156529,num_3,0.45,1,0.6500000000000001,0.85,24.83358,32.47468,return,1.8379669999994803,,,,,,,,,,,,,,,,,706,23,male,up_down_width,2024-05-19_16h21.25.132,exp1,2023.1.0,60.063883947441624,
,,,,,,,,,,,,,,,,3,8.9,10,11.1,0,0,1.1,0.7000000000000001,0.4,2.6000000000000005,10,initial,36.05,321,361,400,0,0,9,9,9,0,0,,,,,,,4,0,4,0,0,27,27,4,,,,,,,,,,,,num_3,0.7919785999984015,num_3,0.2,0.7,0.35,0.9,13.37193,34.38495,return,4.897456200007582,,,,,,,,,,,,,,,,,706,23,male,up_down_width,2024-05-19_16h21.25.132,exp1,2023.1.0,60.063883947441624,
,,,,,,,,,,,,,,,,3,8.2,10,11.8,0,0,1.8,1.25,0.55,4.15,10,match,36.05,296,361,425,0,0,9,9,9,0,0,,,,,,,4,0,4,0,0,28,28,47,,,,,,,,,,,,num_3,0.9110102999839,num_3,0.55,0.6,0.45,1.4,17.19248,53.48771,return,5.877191099978518,,,,,,,,,,,,,,,,,706,23,male,up_down_width,2024-05-19_16h21.25.132,exp1,2023.1.0,60.063883947441624,
,,,,,,,,,,,,,,,,5,8.275,9.1375,10,10.8625,11.725,0.8625,0.6125,0.25,3.7,10,match,36.05,298,329,361,392,423,9,9,9,9,9,,,,,,,4,0,4,0,0,29,29,22,,,,,,,,,,,,num_4,1.8807744999940041,num_4,0.45,0.9,0.15000000000000008,0.9,5.73083,34.38495,return,3.0211600000038743,,,,,,,,,,,,,,,,,706,23,male,up_down_width,2024-05-19_16h21.25.132,exp1,2023.1.0,60.063883947441624,
,,,,,,,,,,,,,,,,3,9.3,10,10.7,0,0,0.7,0.44999999999999996,0.25,1.65,10,initial,36.05,335,361,386,0,0,9,9,9,0,0,,,,,,,4,0,4,0,0,30,30,7,,,,,,,,,,,,num_3,0.9513074000133201,num_3,0.35,1.3,0.2,0.95,7.6411,36.29523,return,3.151413399988087,,,,,,,,,,,,,,,,,706,23,male,up_down_width,2024-05-19_16h21.25.132,exp1,2023.1.0,60.063883947441624,
,,,,,,,,,,,,,,,,3,8.525,10,11.475,0,0,1.475,1.225,0.25,3.2,10,match,36.05,307,361,414,0,0,9,9,9,0,0,,,,,,,4,0,4,0,0,31,31,45,,,,,,,,,,,,num_3,1.145174599980237,num_3,0.3,0.8,0.15000000000000002,0.85,5.73083,32.47468,return,2.277803800010588,,,,,,,,,,,,,,,,,706,23,male,up_down_width,2024-05-19_16h21.25.132,exp1,2023.1.0,60.063883947441624,
,,,,,,,,,,,,,,,,5,8.65,9.325,10,10.675,11.35,0.675,0.42500000000000004,0.25,2.95,10,match,36.05,312,336,361,385,409,9,9,9,9,9,,,,,,,4,0,4,0,0,32,32,31,,,,,,,,,,,,num_5,1.0258603999973275,num_5,0.3,0.6,0.15000000000000002,0.6,5.73083,22.9233,return,1.3265861999825574,,,,,,,,,,,,,,,,,706,23,male,up_down_width,2024-05-19_16h21.25.132,exp1,2023.1.0,60.063883947441624,
,,,,,,,,,,,,,,,,5,8.95,9.475,10,10.525,11.05,0.525,0.275,0.25,2.35,10,match,36.05,323,342,361,379,398,9,9,9,9,9,,,,,,,4,0,4,0,0,33,33,25,,,,,,,,,,,,num_5,1.071703699999489,num_5,0.55,0.8,0.20000000000000007,0.8,7.6411,30.5644,return,2.3985749000275973,,,,,,,,,,,,,,,,,706,23,male,up_down_width,2024-05-19_16h21.25.132,exp1,2023.1.0,60.063883947441624,
,,,,,,,,,,,,,,,,5,8.2,9.1,10,10.9,11.8,0.9,0.5,0.4,4,10,initial,36.05,296,328,361,393,425,9,9,9,9,9,,,,,,,4,0,4,0,0,34,34,50,,,,,,,,,,,,num_5,1.021508800011361,num_5,0.35,0.8,0.39999999999999997,0.8,15.2822,30.5644,return,0.8804123000008985,,,,,,,,,,,,,,,,,706,23,male,up_down_width,2024-05-19_16h21.25.132,exp1,2023.1.0,60.063883947441624,
,,,,,,,,,,,,,,,,4,9.1,9.7,10.3,10.9,0,0.6,0.04999999999999997,0.55,2.35,10,match,36.05,328,350,371,393,0,9,9,9,9,0,,,,,,,4,0,4,0,0,35,35,12,,,,,,,,,,,,num_4,1.0432823000010103,num_4,0.55,1.2,0.45,0.7,17.19248,26.74385,return,2.8858953999879304,,,,,,,,,,,,,,,,,706,23,male,up_down_width,2024-05-19_16h21.25.132,exp1,2023.1.0,60.063883947441624,
,,,,,,,,,,,,,,,,4,8.95,9.65,10.35,11.05,0,0.7,0.1499999999999999,0.55,2.65,10,initial,36.05,323,348,373,398,0,9,9,9,9,0,,,,,,,4,0,4,0,0,36,36,23,,,,,,,,,,,,num_4,0.9169031999772415,num_4,0.2,0.4,0.44999999999999996,0.7,17.19248,26.74385,return,2.3040065999957733,,,,,,,,,,,,,,,,,706,23,male,up_down_width,2024-05-19_16h21.25.132,exp1,2023.1.0,60.063883947441624,
,,,,,,,,,,,,,,,,3,8.9,10,11.1,0,0,1.1,0.55,0.55,2.75,10,initial,36.05,321,361,400,0,0,9,9,9,0,0,,,,,,,4,0,4,0,0,37,37,0,,,,,,,,,,,,num_3,0.8053592999931425,num_3,0.5,0.8,0.5,1.2,19.10275,45.8466,return,2.450997300009476,,,,,,,,,,,,,,,,,706,23,male,up_down_width,2024-05-19_16h21.25.132,exp1,2023.1.0,60.063883947441624,
,,,,,,,,,,,,,,,,5,8.35,9.175,10,10.825,11.65,0.825,0.575,0.25,3.55,10,match,36.05,301,331,361,390,420,9,9,9,9,9,,,,,,,4,0,4,0,0,38,38,20,,,,,,,,,,,,num_5,0.8630443000001833,num_5,0.4,0.6,0.15000000000000008,0.75,5.73083,28.65413,return,3.4465137000079267,,,,,,,,,,,,,,,,,706,23,male,up_down_width,2024-05-19_16h21.25.132,exp1,2023.1.0,60.063883947441624,
,,,,,,,,,,,,,,,,3,9.1,10,10.9,0,0,0.9,0.65,0.25,2.05,10,initial,36.05,328,361,393,0,0,9,9,9,0,0,,,,,,,4,0,4,0,0,39,39,13,,,,,,,,,,,,num_3,0.8907992000167724,num_3,0.4,0.7,0.15000000000000008,0.85,5.73083,32.47468,return,1.9423247999802697,,,,,,,,,,,,,,,,,706,23,male,up_down_width,2024-05-19_16h21.25.132,exp1,2023.1.0,60.063883947441624,
,,,,,,,,,,,,,,,,3,7.800000000000001,10,12.2,0,0,2.1999999999999997,1.7999999999999998,0.4,4.8,10,match,36.05,281,361,440,0,0,9,9,9,0,0,,,,,,,4,0,4,0,0,40,40,39,,,,,,,,,,,,num_3,0.7829142000118736,num_3,0.25,0.3,0.49999999999999994,1.85,19.10275,70.68018,return,7.216381600010209,,,,,,,,,,,,,,,,,706,23,male,up_down_width,2024-05-19_16h21.25.132,exp1,2023.1.0,60.063883947441624,
,,,,,,,,,,,,,,,,4,8.35,9.45,10.55,11.65,0,1.1,0.55,0.55,3.8500000000000005,10,initial,36.05,301,341,380,420,0,9,9,9,9,0,,,,,,,4,0,4,0,0,41,41,17,,,,,,,,,,,,num_4,1.042532499996014,num_4,0.35,0.9,0.5499999999999999,1.3,21.01303,49.66716,return,2.454125299991574,,,,,,,,,,,,,,,,,706,23,male,up_down_width,2024-05-19_16h21.25.132,exp1,2023.1.0,60.063883947441624,
,,,,,,,,,,,,,,,,5,8.6,9.3,10,10.7,11.4,0.7,0.44999999999999996,0.25,3.05,10,initial,36.05,310,335,361,386,411,9,9,9,9,9,,,,,,,4,0,4,0,0,42,42,42,,,,,,,,,,,,num_5,1.293028400017647,num_5,0.55,1.2,0.15000000000000008,0.75,5.73083,28.65413,return,3.0968866999901365,,,,,,,,,,,,,,,,,706,23,male,up_down_width,2024-05-19_16h21.25.132,exp1,2023.1.0,60.063883947441624,
,,,,,,,,,,,,,,,,5,8.35,9.175,10,10.825,11.65,0.8250000000000001,0.275,0.55,3.85,10,match,36.05,301,331,361,390,420,9,9,9,9,9,,,,,,,4,0,4,0,0,43,43,18,,,,,,,,,,,,num_5,0.8993582999974024,num_5,0.3,1.2,0.6,0.8,22.9233,30.5644,return,3.1438111000170466,,,,,,,,,,,,,,,,,706,23,male,up_down_width,2024-05-19_16h21.25.132,exp1,2023.1.0,60.063883947441624,
,,,,,,,,,,,,,,,,3,9.3,10,10.7,0,0,0.7,0.1499999999999999,0.55,1.95,10,initial,36.05,335,361,386,0,0,9,9,9,0,0,,,,,,,4,0,4,0,0,44,44,6,,,,,,,,,,,,num_3,0.9736685999960173,num_3,0.3,0.4,0.49999999999999994,0.65,19.10275,24.83358,return,2.0210001999803353,,,,,,,,,,,,,,,,,706,23,male,up_down_width,2024-05-19_16h21.25.132,exp1,2023.1.0,60.063883947441624,
,,,,,,,,,,,,,,,,3,8.6,10,11.4,0,0,1.4,1.15,0.25,3.05,10,match,36.05,310,361,411,0,0,9,9,9,0,0,,,,,,,4,0,4,0,0,45,45,43,,,,,,,,,,,,num_2,0.9192935999890324,num_2,0.25,1.6,0.25,2.3,9.55138,87.87266,return,2.6735023999935947,,,,,,,,,,,,,,,,,706,23,male,up_down_width,2024-05-19_16h21.25.132,exp1,2023.1.0,60.063883947441624,
,,,,,,,,,,,,,,,,4,8.95,9.65,10.35,11.05,0,0.7,0.44999999999999996,0.25,2.3499999999999996,10,initial,36.05,323,348,373,398,0,9,9,9,9,0,,,,,,,4,0,4,0,0,46,46,24,,,,,,,,,,,,num_3,1.0081096999929287,num_3,0.5,1.1,0.20000000000000007,1.0,7.6411,38.2055,return,2.242280499980552,,,,,,,,,,,,,,,,,706,23,male,up_down_width,2024-05-19_16h21.25.132,exp1,2023.1.0,60.063883947441624,
,,,,,,,,,,,,,,,,4,9.1,9.7,10.3,10.9,0,0.6000000000000001,0.20000000000000004,0.4,2.2,10,match,36.05,328,350,371,393,0,9,9,9,9,0,,,,,,,4,0,4,0,0,47,47,16,,,,,,,,,,,,num_4,1.6136615999857895,num_4,0.25,1.2,0.15000000000000002,0.3,5.73083,11.46165,return,3.7723090999934357,,,,,,,,,,,,,,,,,706,23,male,up_down_width,2024-05-19_16h21.25.132,exp1,2023.1.0,60.063883947441624,
,,,,,,,,,,,,,,,,4,9.3,9.766666666666667,10.233333333333333,10.7,0,0.4666666666666667,0.21666666666666665,0.25,1.65,10,match,36.05,335,352,369,386,0,9,9,9,9,0,,,,,,,4,0,4,0,0,48,48,8,,,,,,,,,,,,num_4,1.0944735999801196,num_4,0.2,0.3,0.2,0.3,7.6411,11.46165,return,0.6381844999850728,,,,,,,,,,,,,,,,,706,23,male,up_down_width,2024-05-19_16h21.25.132,exp1,2023.1.0,60.063883947441624,
,,,,,,,,,,,,,,,,4,8.65,9.55,10.45,11.35,0,0.9,0.5,0.4,3.1,10,initial,36.05,312,344,377,409,0,9,9,9,9,0,,,,,,,4,0,4,0,0,49,49,32,,,,,,,,,,,,num_4,1.0257196000020485,num_4,0.35,0.9,0.2,0.9,7.6411,34.38495,return,1.4634717000008095,,,,,,,,,,,,,,,,,706,23,male,up_down_width,2024-05-19_16h21.25.132,exp1,2023.1.0,60.063883947441624,
,,,,,,,,,,,,,,,,5,8.6,9.3,10,10.7,11.4,0.7,0.29999999999999993,0.4,3.1999999999999997,10,initial,36.05,310,335,361,386,411,9,9,9,9,9,,,,,,,4,0,4,0,0,50,50,44,,,,,,,,,,,,num_5,1.0303619999904186,num_5,0.3,1.1,0.2,0.65,7.6411,24.83358,return,3.1391487999935634,,,,,,,,,,,,,,,,,706,23,male,up_down_width,2024-05-19_16h21.25.132,exp1,2023.1.0,60.063883947441624,
,,,,,,,,,,,,,,,,5,8.65,9.325,10,10.675,11.35,0.675,0.125,0.55,3.25,10,match,36.05,312,336,361,385,409,9,9,9,9,9,,,,,,,4,0,4,0,0,51,51,29,,,,,,,,,,,,num_4,1.0472454999980982,num_4,0.25,0.8,0.39999999999999997,0.8,15.2822,30.5644,return,1.6124454000091646,,,,,,,,,,,,,,,,,706,23,male,up_down_width,2024-05-19_16h21.25.132,exp1,2023.1.0,60.063883947441624,
,,,,,,,,,,,,,,,,,,,,,,,,,,,,,,,,,,,,,,,,,,,,,4,0,4,0,,,,,,,,,,,,,,,,,,,,,,,,,,,,,2015.922576699988,2015.922576699988,2015.922576699988,,,,,,,,,,,,706,23,male,up_down_width,2024-05-19_16h21.25.132,exp1,2023.1.0,60.063883947441624,
,,,,,,,,,,,,,,,,3,9.3,10,10.7,0,0,0.7,0.29999999999999993,0.4,1.8,10,initial,36.05,335,361,386,0,0,9,9,9,0,0,,,,,,,5,0,5,0,0,0,0,9,,,,,,,,,,,,num_3,1.015114400011953,num_3,0.2,0.5,0.35,0.5,13.37193,19.10275,return,1.2142074999865144,,,,,,,,,,,,,,,,,706,23,male,up_down_width,2024-05-19_16h21.25.132,exp1,2023.1.0,60.063883947441624,
,,,,,,,,,,,,,,,,3,9.1,10,10.9,0,0,0.9,0.5,0.4,2.2,10,initial,36.05,328,361,393,0,0,9,9,9,0,0,,,,,,,5,0,5,0,0,1,1,15,,,,,,,,,,,,num_3,0.8847293999860995,num_3,0.2,0.9,0.44999999999999996,0.9,17.19248,34.38495,return,1.5285928999946918,,,,,,,,,,,,,,,,,706,23,male,up_down_width,2024-05-19_16h21.25.132,exp1,2023.1.0,60.063883947441624,
,,,,,,,,,,,,,,,,4,8.9,9.633333333333333,10.366666666666667,11.1,0,0.7333333333333334,0.4833333333333334,0.25,2.45,10,match,36.05,321,347,374,400,0,9,9,9,9,0,,,,,,,5,0,5,0,0,2,2,3,,,,,,,,,,,,num_4,0.8274245999928098,num_4,0.35,0.8,0.15000000000000002,0.8,5.73083,30.5644,return,1.384897199983243,,,,,,,,,,,,,,,,,706,23,male,up_down_width,2024-05-19_16h21.25.132,exp1,2023.1.0,60.063883947441624,
,,,,,,,,,,,,,,,,3,9.3,10,10.7,0,0,0.7,0.44999999999999996,0.25,1.65,10,initial,36.05,335,361,386,0,0,9,9,9,0,0,,,,,,,5,0,5,0,0,3,3,7,,,,,,,,,,,,num_2,0.8028655000089202,num_2,0.2,1.0,0.2,1.0,7.6411,38.2055,return,0.7509426999895368,,,,,,,,,,,,,,,,,706,23,male,up_down_width,2024-05-19_16h21.25.132,exp1,2023.1.0,60.063883947441624,
,,,,,,,,,,,,,,,,3,8.6,10,11.4,0,0,1.4,1.15,0.25,3.05,10,match,36.05,310,361,411,0,0,9,9,9,0,0,,,,,,,5,0,5,0,0,4,4,43,,,,,,,,,,,,num_2,1.1316317999735475,num_2,0.3,1.6,0.15000000000000002,1.6,5.73083,61.12881,return,1.2096448999946006,,,,,,,,,,,,,,,,,706,23,male,up_down_width,2024-05-19_16h21.25.132,exp1,2023.1.0,60.063883947441624,
,,,,,,,,,,,,,,,,4,8.35,9.45,10.55,11.65,0,1.1,0.55,0.55,3.8500000000000005,10,initial,36.05,301,341,380,420,0,9,9,9,9,0,,,,,,,5,0,5,0,0,5,5,17,,,,,,,,,,,,num_4,1.0139284000033513,num_4,0.25,0.5,0.6,0.9,22.9233,34.38495,return,2.951283100002911,,,,,,,,,,,,,,,,,706,23,male,up_down_width,2024-05-19_16h21.25.132,exp1,2023.1.0,60.063883947441624,
,,,,,,,,,,,,,,,,3,8.9,10,11.1,0,0,1.1,0.8500000000000001,0.25,2.45,10,initial,36.05,321,361,400,0,0,9,9,9,0,0,,,,,,,5,0,5,0,0,6,6,2,,,,,,,,,,,,num_2,2.5673911000194494,num_2,0.55,0.8,0.25000000000000006,2.0,9.55138,76.41101,return,5.614460300013889,,,,,,,,,,,,,,,,,706,23,male,up_down_width,2024-05-19_16h21.25.132,exp1,2023.1.0,60.063883947441624,
,,,,,,,,,,,,,,,,3,8.2,10,11.8,0,0,1.8,1.55,0.25,3.85,10,match,36.05,296,361,425,0,0,9,9,9,0,0,,,,,,,5,0,5,0,0,7,7,49,,,,,,,,,,,,num_2,0.8382788000162691,num_2,0.25,1.0,0.15000000000000002,2.6,5.73083,99.33431,return,4.131675699987682,,,,,,,,,,,,,,,,,706,23,male,up_down_width,2024-05-19_16h21.25.132,exp1,2023.1.0,60.063883947441624,
,,,,,,,,,,,,,,,,5,8.65,9.325,10,10.675,11.35,0.675,0.125,0.55,3.25,10,match,36.05,312,336,361,385,409,9,9,9,9,9,,,,,,,5,0,5,0,0,8,8,29,,,,,,,,,,,,num_4,0.6673873999970965,num_4,0.45,1.2,0.7000000000000002,0.8,26.74385,30.5644,return,2.1075241999933496,,,,,,,,,,,,,,,,,706,23,male,up_down_width,2024-05-19_16h21.25.132,exp1,2023.1.0,60.063883947441624,
