amount_p,posx1_p,posx2_p,posx3_p,posx4_p,posx5_p,center_to_center_p,edge_to_edge_p,w_p,stim_lengt_p,eccentricity_p,line1_p,line2_p,line3_p,line4_p,line5_p,amount,posx1,posx2,posx3,posx4,posx5,center_to_center,edge_to_edge,w,stim_length,eccentricity,trial_type,deg_to_pix_index,posx1_in_pix,posx2_in_pix,posx3_in_pix,posx4_in_pix,posx5_in_pix,line1,line2,line3,line4,line5,posx,setsize_cobdi,trials.thisRepN,trials.thisTrialN,trials.thisN,trials.thisIndex,blocks.thisRepN,blocks.thisTrialN,blocks.thisN,blocks.thisIndex,loop.thisRepN,loop.thisTrialN,loop.thisN,loop.thisIndex,first.thisRepN,first.thisTrialN,first.thisN,first.thisIndex,second.thisRepN,second.thisTrialN,second.thisN,second.thisIndex,key_resp_3.started,key_resp_3.keys,key_resp_3.rt,key_resp.keys,key_resp.rt,response,starting_width_deg,starting_space_deg,response_width_degree,response_spacing_degree,response_width_pixel,response_spacing_pixel,next_5.keys,next_5.rt,key_resp_4.keys,key_resp_4.rt,text_3.started,text_4.started,key_resp_2.started,text_2.started,key_resp_2.keys,key_resp_2.rt,adjusting.started,next.keys,next.rt,text_control2.started,key_resp.started,key_resp.corr,text_bye.started,text_bye.stopped,participant,age,gender,resp_group,date,expName,psychopyVersion,frameRate,
,,,,,,,,,,,,,,,,,,,,,,,,,,,,,,,,,,,,,,,,,,,,,,,,,,,,,,,,,,,,,49.784519399981946,c,275.1279381000204,,,,,,,,,,,,,,,,,,,,,,,,,,,,707,23,male,up_down_width,2024-05-22_15h44.00.859,exp1,2023.1.0,59.99415657354465,
3,8.2,10,11.8,0,0,1.7999999999999998,1.4,0.4,4,10,9,9,9,0,0,,,,,,,,,,,,,,,,,,,,,,,,,,0,0,0,2,,,,,,,,,,,,,,,,,,,,num_2,12.463649299985263,num_2,0.5,0.6,0.35000000000000003,1.7,13.37193,64.94936,return,29.781071799981873,,,,,,,,,,,,,,,,,707,23,male,up_down_width,2024-05-22_15h44.00.859,exp1,2023.1.0,59.99415657354465,
4,9.25,9.75,10.25,10.75,0,0.5,0.25,0.25,1.75,10,9,9,9,9,0,,,,,,,,,,,,,,,,,,,,,,,,,,0,1,1,4,,,,,,,,,,,,,,,,,,,,num_4,8.110155000002123,num_4,0.25,1.0,0.3,0.6,11.46165,22.9233,return,33.559519200003706,,,,,,,,,,,,,,,,,707,23,male,up_down_width,2024-05-22_15h44.00.859,exp1,2023.1.0,59.99415657354465,
5,9,9.5,10,10.5,11,0.5,0.09999999999999998,0.4,2.4,10,9,9,9,9,9,,,,,,,,,,,,,,,,,,,,,,,,,,0,2,2,8,,,,,,,,,,,,,,,,,,,,num_5,3.5434175999835134,num_5,0.45,1.3,0.4,0.9,15.2822,34.38495,return,21.91279220004799,,,,,,,,,,,,,,,,,707,23,male,up_down_width,2024-05-22_15h44.00.859,exp1,2023.1.0,59.99415657354465,
3,9,10,11,0,0,1,0.9,0.1,2.1,10,9,9,9,0,0,,,,,,,,,,,,,,,,,,,,,,,,,,0,3,3,1,,,,,,,,,,,,,,,,,,,,num_3,2.9888830999843776,num_3,0.2,0.8,0.2,1.15,7.6411,43.93633,return,3.729879600054119,,,,,,,,,,,,,,,,,707,23,male,up_down_width,2024-05-22_15h44.00.859,exp1,2023.1.0,59.99415657354465,
5,9.25,9.625,10,10.375,10.75,0.375,0.125,0.25,1.75,10,9,9,9,9,9,,,,,,,,,,,,,,,,,,,,,,,,,,0,4,4,6,,,,,,,,,,,,,,,,,,,,num_5,3.1771256000502035,num_5,0.3,0.5,0.25,0.5,9.55138,19.10275,return,11.554545500024687,,,,,,,,,,,,,,,,,707,23,male,up_down_width,2024-05-22_15h44.00.859,exp1,2023.1.0,59.99415657354465,
3,9.5,10,10.5,0,0,0.5,0.4,0.1,1.1,10,9,9,9,0,0,,,,,,,,,,,,,,,,,,,,,,,,,,0,5,5,0,,,,,,,,,,,,,,,,,,,,num_3,1.4913738000323065,num_3,0.5,0.9,0.20000000000000007,0.85,7.6411,32.47468,return,5.234555400034878,,,,,,,,,,,,,,,,,707,23,male,up_down_width,2024-05-22_15h44.00.859,exp1,2023.1.0,59.99415657354465,
4,9.5,9.833333333333334,10.166666666666666,10.5,0,0.33333333333333337,0.23333333333333336,0.1,1.1,10,9,9,9,9,0,,,,,,,,,,,,,,,,,,,,,,,,,,0,6,6,3,,,,,,,,,,,,,,,,,,,,num_4,2.3581002000137232,num_4,0.3,1.3,0.10000000000000002,0.6,3.82055,22.9233,return,5.1720255999825895,,,,,,,,,,,,,,,,,707,23,male,up_down_width,2024-05-22_15h44.00.859,exp1,2023.1.0,59.99415657354465,
5,8.6,9.3,10,10.7,11.4,0.7,0.29999999999999993,0.4,3.1999999999999997,10,9,9,9,9,9,,,,,,,,,,,,,,,,,,,,,,,,,,0,7,7,7,,,,,,,,,,,,,,,,,,,,num_5,1.3862725000362843,num_5,0.3,0.9,0.2,0.75,7.6411,28.65413,return,4.1610704000340775,,,,,,,,,,,,,,,,,707,23,male,up_down_width,2024-05-22_15h44.00.859,exp1,2023.1.0,59.99415657354465,
4,8.65,9.55,10.45,11.35,0,0.9,0.5,0.4,3.1,10,9,9,9,9,0,,,,,,,,,,,,,,,,,,,,,,,,,,0,8,8,5,,,,,,,,,,,,,,,,,,,,num_4,1.282664600003045,num_4,0.45,1.1,0.4,0.9,15.2822,34.38495,return,3.7388015000033192,,,,,,,,,,,,,,,,,707,23,male,up_down_width,2024-05-22_15h44.00.859,exp1,2023.1.0,59.99415657354465,
,,,,,,,,,,,,,,,,,,,,,,,,,,,,,,,,,,,,,,,,,,,,,,,,,,,,,,,,,,,,,,,,,,,,,,,,,,,c,191.46327470004326,,,,,,,,,,,,,,,707,23,male,up_down_width,2024-05-22_15h44.00.859,exp1,2023.1.0,59.99415657354465,
,,,,,,,,,,,,,,,,3,9.1,10,10.9,0,0,0.9,0.35,0.55,2.35,10,initial,36.05,328,361,393,0,0,9,9,9,0,0,,,,,,,0,0,0,0,0,0,0,11,,,,,,,,,,,,num_2,1.605029900034424,num_2,0.55,1.4,0.55,1.1,21.01303,42.02605,return,2.270286299986765,,,,,,,,,,,,,,,,,707,23,male,up_down_width,2024-05-22_15h44.00.859,exp1,2023.1.0,59.99415657354465,
,,,,,,,,,,,,,,,,3,7.8,10,12.2,0,0,2.2,1.65,0.55,4.95,10,match,36.05,281,361,440,0,0,9,9,9,0,0,,,,,,,0,0,0,0,0,1,1,35,,,,,,,,,,,,num_2,1.4731262000277638,num_2,0.5,0.8,0.5,2.4,19.10275,91.69321,return,4.142536500003189,,,,,,,,,,,,,,,,,707,23,male,up_down_width,2024-05-22_15h44.00.859,exp1,2023.1.0,59.99415657354465,
,,,,,,,,,,,,,,,,3,7.8,10,12.2,0,0,2.2,1.9500000000000002,0.25,4.65,10,match,36.05,281,361,440,0,0,9,9,9,0,0,,,,,,,0,0,0,0,0,2,2,37,,,,,,,,,,,,num_2,1.4730320000089705,num_2,0.2,1.4,0.2,2.3,7.6411,87.87266,return,3.199712500034366,,,,,,,,,,,,,,,,,707,23,male,up_down_width,2024-05-22_15h44.00.859,exp1,2023.1.0,59.99415657354465,
,,,,,,,,,,,,,,,,3,9.3,10,10.7,0,0,0.7,0.44999999999999996,0.25,1.65,10,initial,36.05,335,361,386,0,0,9,9,9,0,0,,,,,,,0,0,0,0,0,3,3,7,,,,,,,,,,,,num_2,1.404990600014571,num_2,0.25,1.4,0.25,1.4,9.55138,53.48771,return,2.2876547999912873,,,,,,,,,,,,,,,,,707,23,male,up_down_width,2024-05-22_15h44.00.859,exp1,2023.1.0,59.99415657354465,
,,,,,,,,,,,,,,,,4,9.1,9.7,10.3,10.9,0,0.6000000000000001,0.20000000000000004,0.4,2.2,10,match,36.05,328,350,371,393,0,9,9,9,9,0,,,,,,,0,0,0,0,0,4,4,16,,,,,,,,,,,,num_3,2.6249998999992386,num_3,0.2,1.2,0.39999999999999997,0.95,15.2822,36.29523,return,6.898017500003334,,,,,,,,,,,,,,,,,707,23,male,up_down_width,2024-05-22_15h44.00.859,exp1,2023.1.0,59.99415657354465,
,,,,,,,,,,,,,,,,3,8.2,10,11.8,0,0,1.8,1.55,0.25,3.85,10,match,36.05,296,361,425,0,0,9,9,9,0,0,,,,,,,0,0,0,0,0,5,5,49,,,,,,,,,,,,num_3,1.4343654999975115,num_3,0.4,1.3,0.25000000000000006,1.65,9.55138,63.03908,return,3.3506797999725677,,,,,,,,,,,,,,,,,707,23,male,up_down_width,2024-05-22_15h44.00.859,exp1,2023.1.0,59.99415657354465,
,,,,,,,,,,,,,,,,4,8.65,9.55,10.45,11.35,0,0.9,0.65,0.25,2.95,10,initial,36.05,312,344,377,409,0,9,9,9,9,0,,,,,,,0,0,0,0,0,6,6,30,,,,,,,,,,,,num_3,1.3067707000300288,num_3,0.55,1.2,0.30000000000000004,1.35,11.46165,51.57743,return,5.588145200046711,,,,,,,,,,,,,,,,,707,23,male,up_down_width,2024-05-22_15h44.00.859,exp1,2023.1.0,59.99415657354465,
,,,,,,,,,,,,,,,,5,8.35,9.175,10,10.825,11.65,0.825,0.575,0.25,3.55,10,match,36.05,301,331,361,390,420,9,9,9,9,9,,,,,,,0,0,0,0,0,7,7,20,,,,,,,,,,,,num_5,1.6827833999996074,num_5,0.4,1.3,0.20000000000000007,1.0,7.6411,38.2055,return,6.697510999976657,,,,,,,,,,,,,,,,,707,23,male,up_down_width,2024-05-22_15h44.00.859,exp1,2023.1.0,59.99415657354465,
,,,,,,,,,,,,,,,,3,8.9,10,11.1,0,0,1.1,0.8500000000000001,0.25,2.45,10,initial,36.05,321,361,400,0,0,9,9,9,0,0,,,,,,,0,0,0,0,0,8,8,2,,,,,,,,,,,,num_3,1.2061018000240438,num_3,0.2,0.7,0.15000000000000002,1.1,5.73083,42.02605,return,8.080728299973998,,,,,,,,,,,,,,,,,707,23,male,up_down_width,2024-05-22_15h44.00.859,exp1,2023.1.0,59.99415657354465,
,,,,,,,,,,,,,,,,5,8.6,9.3,10,10.7,11.4,0.7,0.29999999999999993,0.4,3.1999999999999997,10,initial,36.05,310,335,361,386,411,9,9,9,9,9,,,,,,,0,0,0,0,0,9,9,44,,,,,,,,,,,,num_5,1.7326847999938764,num_5,0.45,0.6,0.45,0.8,17.19248,30.5644,return,3.5576268999720924,,,,,,,,,,,,,,,,,707,23,male,up_down_width,2024-05-22_15h44.00.859,exp1,2023.1.0,59.99415657354465,
,,,,,,,,,,,,,,,,3,8.6,10,11.4,0,0,1.4,0.85,0.55,3.35,10,match,36.05,310,361,411,0,0,9,9,9,0,0,,,,,,,0,0,0,0,0,10,10,41,,,,,,,,,,,,num_3,1.1686110000009649,num_3,0.25,0.9,0.39999999999999997,0.95,15.2822,36.29523,return,3.707013699982781,,,,,,,,,,,,,,,,,707,23,male,up_down_width,2024-05-22_15h44.00.859,exp1,2023.1.0,59.99415657354465,
,,,,,,,,,,,,,,,,5,8.95,9.475,10,10.525,11.05,0.525,0.275,0.25,2.35,10,match,36.05,323,342,361,379,398,9,9,9,9,9,,,,,,,0,0,0,0,0,11,11,25,,,,,,,,,,,,num_5,1.7758219999959692,num_5,0.3,1.0,0.3,0.85,11.46165,32.47468,return,2.020339499984402,,,,,,,,,,,,,,,,,707,23,male,up_down_width,2024-05-22_15h44.00.859,exp1,2023.1.0,59.99415657354465,
,,,,,,,,,,,,,,,,3,8.525,10,11.475,0,0,1.475,1.225,0.25,3.2,10,match,36.05,307,361,414,0,0,9,9,9,0,0,,,,,,,0,0,0,0,0,12,12,45,,,,,,,,,,,,num_3,1.1141436999896541,num_3,0.4,0.5,0.25000000000000006,0.95,9.55138,36.29523,return,6.87144180003088,,,,,,,,,,,,,,,,,707,23,male,up_down_width,2024-05-22_15h44.00.859,exp1,2023.1.0,59.99415657354465,
,,,,,,,,,,,,,,,,3,8.2,10,11.8,0,0,1.7999999999999998,1.4,0.4,4,10,match,36.05,296,361,425,0,0,9,9,9,0,0,,,,,,,0,0,0,0,0,13,13,51,,,,,,,,,,,,num_3,1.2989156000548974,num_3,0.25,1,0.39999999999999997,1.45,15.2822,55.39798,return,5.254992900008801,,,,,,,,,,,,,,,,,707,23,male,up_down_width,2024-05-22_15h44.00.859,exp1,2023.1.0,59.99415657354465,
,,,,,,,,,,,,,,,,5,8.275,9.1375,10,10.8625,11.725,0.8625,0.6125,0.25,3.7,10,match,36.05,298,329,361,392,423,9,9,9,9,9,,,,,,,0,0,0,0,0,14,14,22,,,,,,,,,,,,num_5,1.7423805000144057,num_5,0.55,1.3,0.25000000000000006,1.1,9.55138,42.02605,return,5.602890099980868,,,,,,,,,,,,,,,,,707,23,male,up_down_width,2024-05-22_15h44.00.859,exp1,2023.1.0,59.99415657354465,
,,,,,,,,,,,,,,,,4,8.95,9.65,10.35,11.05,0,0.7,0.44999999999999996,0.25,2.3499999999999996,10,initial,36.05,323,348,373,398,0,9,9,9,9,0,,,,,,,0,0,0,0,0,15,15,24,,,,,,,,,,,,num_4,1.8476059000240639,num_4,0.55,0.6,0.4,0.7,15.2822,26.74385,return,4.457033900020178,,,,,,,,,,,,,,,,,707,23,male,up_down_width,2024-05-22_15h44.00.859,exp1,2023.1.0,59.99415657354465,
,,,,,,,,,,,,,,,,5,7.8,8.9,10,11.1,12.2,1.1,0.55,0.55,4.95,10,initial,36.05,281,321,361,400,440,9,9,9,9,9,,,,,,,0,0,0,0,0,16,16,34,,,,,,,,,,,,num_5,2.4132831000024453,num_5,0.4,1.0,0.45,0.9,17.19248,34.38495,return,4.522973999963142,,,,,,,,,,,,,,,,,707,23,male,up_down_width,2024-05-22_15h44.00.859,exp1,2023.1.0,59.99415657354465,
,,,,,,,,,,,,,,,,5,8.2,9.1,10,10.9,11.8,0.9,0.35,0.55,4.15,10,initial,36.05,296,328,361,393,425,9,9,9,9,9,,,,,,,0,0,0,0,0,17,17,46,,,,,,,,,,,,num_6,1.6796720999991521,num_6,0.25,0.7,0.3,0.7,11.46165,26.74385,return,3.602900600002613,,,,,,,,,,,,,,,,,707,23,male,up_down_width,2024-05-22_15h44.00.859,exp1,2023.1.0,59.99415657354465,
,,,,,,,,,,,,,,,,3,7.800000000000001,10,12.2,0,0,2.1999999999999997,1.7999999999999998,0.4,4.8,10,match,36.05,281,361,440,0,0,9,9,9,0,0,,,,,,,0,0,0,0,0,18,18,39,,,,,,,,,,,,num_3,1.3162123000365682,num_3,0.4,0.5,0.35000000000000003,1.8,13.37193,68.76991,return,7.3832235999871045,,,,,,,,,,,,,,,,,707,23,male,up_down_width,2024-05-22_15h44.00.859,exp1,2023.1.0,59.99415657354465,
,,,,,,,,,,,,,,,,4,8.825,9.608333333333333,10.391666666666667,11.175,0,0.7833333333333333,0.5333333333333333,0.25,2.6,10,match,36.05,318,346,375,403,0,9,9,9,9,0,,,,,,,0,0,0,0,0,19,19,5,,,,,,,,,,,,num_4,1.9561795000336133,num_4,0.25,0.5,0.25,1.2,9.55138,45.8466,return,3.381135599978734,,,,,,,,,,,,,,,,,707,23,male,up_down_width,2024-05-22_15h44.00.859,exp1,2023.1.0,59.99415657354465,
,,,,,,,,,,,,,,,,4,8.95,9.65,10.35,11.05,0,0.7,0.29999999999999993,0.4,2.5,10,initial,36.05,323,348,373,398,0,9,9,9,9,0,,,,,,,0,0,0,0,0,20,20,26,,,,,,,,,,,,num_4,1.284374300041236,num_4,0.35,0.4,0.35,0.7,13.37193,26.74385,return,3.9614481000462547,,,,,,,,,,,,,,,,,707,23,male,up_down_width,2024-05-22_15h44.00.859,exp1,2023.1.0,59.99415657354465,
,,,,,,,,,,,,,,,,4,9.1,9.7,10.3,10.9,0,0.6,0.04999999999999997,0.55,2.35,10,match,36.05,328,350,371,393,0,9,9,9,9,0,,,,,,,0,0,0,0,0,21,21,12,,,,,,,,,,,,num_4,1.3203031999873929,num_4,0.25,0.8,0.3,0.5,11.46165,19.10275,return,5.630445400020108,,,,,,,,,,,,,,,,,707,23,male,up_down_width,2024-05-22_15h44.00.859,exp1,2023.1.0,59.99415657354465,
,,,,,,,,,,,,,,,,4,8.65,9.55,10.45,11.35,0,0.9,0.5,0.4,3.1,10,initial,36.05,312,344,377,409,0,9,9,9,9,0,,,,,,,0,0,0,0,0,22,22,32,,,,,,,,,,,,num_5,1.401771499949973,num_5,0.25,1.3,0.25,0.95,9.55138,36.29523,return,2.7980555000249296,,,,,,,,,,,,,,,,,707,23,male,up_down_width,2024-05-22_15h44.00.859,exp1,2023.1.0,59.99415657354465,
,,,,,,,,,,,,,,,,4,8.9,9.633333333333333,10.366666666666667,11.1,0,0.7333333333333333,0.18333333333333326,0.55,2.75,10,match,36.05,321,347,374,400,0,9,9,9,9,0,,,,,,,0,0,0,0,0,23,23,1,,,,,,,,,,,,num_4,1.2727746999589726,num_4,0.3,1.3,0.35,0.8,13.37193,30.5644,return,5.681231100053992,,,,,,,,,,,,,,,,,707,23,male,up_down_width,2024-05-22_15h44.00.859,exp1,2023.1.0,59.99415657354465,
,,,,,,,,,,,,,,,,5,8.2,9.1,10,10.9,11.8,0.9,0.5,0.4,4,10,initial,36.05,296,328,361,393,425,9,9,9,9,9,,,,,,,0,0,0,0,0,24,24,50,,,,,,,,,,,,num_5,1.9073045999975875,num_5,0.4,0.5,0.4,0.75,15.2822,28.65413,return,4.6729940000223,,,,,,,,,,,,,,,,,707,23,male,up_down_width,2024-05-22_15h44.00.859,exp1,2023.1.0,59.99415657354465,
,,,,,,,,,,,,,,,,5,8.2,9.1,10,10.9,11.8,0.9,0.65,0.25,3.85,10,initial,36.05,296,328,361,393,425,9,9,9,9,9,,,,,,,0,0,0,0,0,25,25,48,,,,,,,,,,,,num_6,1.2282878000405617,num_6,0.4,1.1,0.15000000000000008,0.9,5.73083,34.38495,return,4.759172499994747,,,,,,,,,,,,,,,,,707,23,male,up_down_width,2024-05-22_15h44.00.859,exp1,2023.1.0,59.99415657354465,
,,,,,,,,,,,,,,,,5,8.6,9.3,10,10.7,11.4,0.7,0.44999999999999996,0.25,3.05,10,initial,36.05,310,335,361,386,411,9,9,9,9,9,,,,,,,0,0,0,0,0,26,26,42,,,,,,,,,,,,num_6,1.3575863000005484,num_6,0.55,1.3,0.15000000000000008,0.7,5.73083,26.74385,return,5.390294099983294,,,,,,,,,,,,,,,,,707,23,male,up_down_width,2024-05-22_15h44.00.859,exp1,2023.1.0,59.99415657354465,
,,,,,,,,,,,,,,,,5,7.8,8.9,10,11.1,12.2,1.1,0.7000000000000001,0.4,4.800000000000001,10,initial,36.05,281,321,361,400,440,9,9,9,9,9,,,,,,,0,0,0,0,0,27,27,38,,,,,,,,,,,,num_5,1.2533941000001505,num_5,0.2,0.9,0.25,1.0,9.55138,38.2055,return,3.2177196000120603,,,,,,,,,,,,,,,,,707,23,male,up_down_width,2024-05-22_15h44.00.859,exp1,2023.1.0,59.99415657354465,
,,,,,,,,,,,,,,,,4,8.35,9.45,10.55,11.65,0,1.1,0.55,0.55,3.8500000000000005,10,initial,36.05,301,341,380,420,0,9,9,9,9,0,,,,,,,0,0,0,0,0,28,28,17,,,,,,,,,,,,num_4,1.182803200033959,num_4,0.4,0.8,0.4,0.8,15.2822,30.5644,return,2.83205630001612,,,,,,,,,,,,,,,,,707,23,male,up_down_width,2024-05-22_15h44.00.859,exp1,2023.1.0,59.99415657354465,
,,,,,,,,,,,,,,,,3,8.2,10,11.8,0,0,1.8,1.25,0.55,4.15,10,match,36.05,296,361,425,0,0,9,9,9,0,0,,,,,,,0,0,0,0,0,29,29,47,,,,,,,,,,,,num_3,1.3492781999520957,num_3,0.2,1.1,0.44999999999999996,1.2,17.19248,45.8466,return,3.8656404999783263,,,,,,,,,,,,,,,,,707,23,male,up_down_width,2024-05-22_15h44.00.859,exp1,2023.1.0,59.99415657354465,
,,,,,,,,,,,,,,,,5,7.8,8.9,10,11.1,12.2,1.1,0.8500000000000001,0.25,4.65,10,initial,36.05,281,321,361,400,440,9,9,9,9,9,,,,,,,0,0,0,0,0,30,30,36,,,,,,,,,,,,num_4,1.936443299986422,num_4,0.3,0.4,0.25,1.3,9.55138,49.66716,return,5.6299689000006765,,,,,,,,,,,,,,,,,707,23,male,up_down_width,2024-05-22_15h44.00.859,exp1,2023.1.0,59.99415657354465,
,,,,,,,,,,,,,,,,4,8.35,9.45,10.55,11.65,0,1.1,0.7000000000000001,0.4,3.7,10,initial,36.05,301,341,380,420,0,9,9,9,9,0,,,,,,,0,0,0,0,0,31,31,21,,,,,,,,,,,,num_4,1.4268779000267386,num_4,0.3,0.6,0.3,1.1,11.46165,42.02605,return,2.1306342000025325,,,,,,,,,,,,,,,,,707,23,male,up_down_width,2024-05-22_15h44.00.859,exp1,2023.1.0,59.99415657354465,
,,,,,,,,,,,,,,,,4,8.9,9.633333333333333,10.366666666666667,11.1,0,0.7333333333333334,0.4833333333333334,0.25,2.45,10,match,36.05,321,347,374,400,0,9,9,9,9,0,,,,,,,0,0,0,0,0,32,32,3,,,,,,,,,,,,num_4,1.2039394000312313,num_4,0.2,0.5,0.2,0.6,7.6411,22.9233,return,4.000014599994756,,,,,,,,,,,,,,,,,707,23,male,up_down_width,2024-05-22_15h44.00.859,exp1,2023.1.0,59.99415657354465,
,,,,,,,,,,,,,,,,5,8.65,9.325,10,10.675,11.35,0.675,0.275,0.4,3.1,10,match,36.05,312,336,361,385,409,9,9,9,9,9,,,,,,,0,0,0,0,0,33,33,33,,,,,,,,,,,,num_4,1.2210909000132233,num_4,0.3,1.0,0.35,0.7,13.37193,26.74385,return,2.9409723000135273,,,,,,,,,,,,,,,,,707,23,male,up_down_width,2024-05-22_15h44.00.859,exp1,2023.1.0,59.99415657354465,
,,,,,,,,,,,,,,,,4,8.95,9.65,10.35,11.05,0,0.7,0.1499999999999999,0.55,2.65,10,initial,36.05,323,348,373,398,0,9,9,9,9,0,,,,,,,0,0,0,0,0,34,34,23,,,,,,,,,,,,num_5,3.6687479999964125,num_5,0.2,0.4,0.3,0.45,11.46165,17.19248,return,4.977669899992179,,,,,,,,,,,,,,,,,707,23,male,up_down_width,2024-05-22_15h44.00.859,exp1,2023.1.0,59.99415657354465,
,,,,,,,,,,,,,,,,5,8.6,9.3,10,10.7,11.4,0.7,0.1499999999999999,0.55,3.3499999999999996,10,initial,36.05,310,335,361,386,411,9,9,9,9,9,,,,,,,0,0,0,0,0,35,35,40,,,,,,,,,,,,num_4,1.1479294000309892,num_4,0.5,1.1,0.5,0.7,19.10275,26.74385,return,5.19658150000032,,,,,,,,,,,,,,,,,707,23,male,up_down_width,2024-05-22_15h44.00.859,exp1,2023.1.0,59.99415657354465,
,,,,,,,,,,,,,,,,3,9.3,10,10.7,0,0,0.7,0.1499999999999999,0.55,1.95,10,initial,36.05,335,361,386,0,0,9,9,9,0,0,,,,,,,0,0,0,0,0,36,36,6,,,,,,,,,,,,num_3,1.5564916000002995,num_3,0.55,0.8,0.55,0.7,21.01303,26.74385,return,5.140160000009928,,,,,,,,,,,,,,,,,707,23,male,up_down_width,2024-05-22_15h44.00.859,exp1,2023.1.0,59.99415657354465,
,,,,,,,,,,,,,,,,5,8.65,9.325,10,10.675,11.35,0.675,0.125,0.55,3.25,10,match,36.05,312,336,361,385,409,9,9,9,9,9,,,,,,,0,0,0,0,0,37,37,29,,,,,,,,,,,,num_4,1.12995289999526,num_4,0.4,1.0,0.5,0.7,19.10275,26.74385,return,6.211351600009948,,,,,,,,,,,,,,,,,707,23,male,up_down_width,2024-05-22_15h44.00.859,exp1,2023.1.0,59.99415657354465,
,,,,,,,,,,,,,,,,5,8.35,9.175,10,10.825,11.65,0.8250000000000001,0.275,0.55,3.85,10,match,36.05,301,331,361,390,420,9,9,9,9,9,,,,,,,0,0,0,0,0,38,38,18,,,,,,,,,,,,num_6,1.158345100004226,num_6,0.2,0.4,0.44999999999999996,0.6,17.19248,22.9233,return,6.848382700001821,,,,,,,,,,,,,,,,,707,23,male,up_down_width,2024-05-22_15h44.00.859,exp1,2023.1.0,59.99415657354465,
,,,,,,,,,,,,,,,,5,8.95,9.475,10,10.525,11.05,0.525,0.125,0.4,2.5,10,match,36.05,323,342,361,379,398,9,9,9,9,9,,,,,,,0,0,0,0,0,39,39,27,,,,,,,,,,,,num_5,1.3719995999708772,num_5,0.45,1.1,0.45,0.55,17.19248,21.01303,return,4.5477088000043295,,,,,,,,,,,,,,,,,707,23,male,up_down_width,2024-05-22_15h44.00.859,exp1,2023.1.0,59.99415657354465,
,,,,,,,,,,,,,,,,5,8.65,9.325,10,10.675,11.35,0.675,0.42500000000000004,0.25,2.95,10,match,36.05,312,336,361,385,409,9,9,9,9,9,,,,,,,0,0,0,0,0,40,40,31,,,,,,,,,,,,num_5,1.6910344999632798,num_5,0.25,0.5,0.25,0.65,9.55138,24.83358,return,1.9264399000094272,,,,,,,,,,,,,,,,,707,23,male,up_down_width,2024-05-22_15h44.00.859,exp1,2023.1.0,59.99415657354465,
,,,,,,,,,,,,,,,,4,8.65,9.55,10.45,11.35,0,0.9,0.35,0.55,3.25,10,initial,36.05,312,344,377,409,0,9,9,9,9,0,,,,,,,0,0,0,0,0,41,41,28,,,,,,,,,,,,num_3,1.5706709999940358,num_3,0.35,1,0.35,0.7,13.37193,26.74385,return,3.8688915999955498,,,,,,,,,,,,,,,,,707,23,male,up_down_width,2024-05-22_15h44.00.859,exp1,2023.1.0,59.99415657354465,
,,,,,,,,,,,,,,,,4,9.1,9.7,10.3,10.9,0,0.5999999999999999,0.3499999999999999,0.25,2.05,10,match,36.05,328,350,371,393,0,9,9,9,9,0,,,,,,,0,0,0,0,0,42,42,14,,,,,,,,,,,,num_4,1.1209594999672845,num_4,0.2,1.3,0.2,0.8,7.6411,30.5644,return,3.420672900043428,,,,,,,,,,,,,,,,,707,23,male,up_down_width,2024-05-22_15h44.00.859,exp1,2023.1.0,59.99415657354465,
,,,,,,,,,,,,,,,,3,8.9,10,11.1,0,0,1.1,0.7000000000000001,0.4,2.6000000000000005,10,initial,36.05,321,361,400,0,0,9,9,9,0,0,,,,,,,0,0,0,0,0,43,43,4,,,,,,,,,,,,num_3,1.245307299948763,num_3,0.3,1.1,0.25,0.95,9.55138,36.29523,return,5.509166700008791,,,,,,,,,,,,,,,,,707,23,male,up_down_width,2024-05-22_15h44.00.859,exp1,2023.1.0,59.99415657354465,
,,,,,,,,,,,,,,,,3,9.3,10,10.7,0,0,0.7,0.29999999999999993,0.4,1.8,10,initial,36.05,335,361,386,0,0,9,9,9,0,0,,,,,,,0,0,0,0,0,44,44,9,,,,,,,,,,,,num_3,1.3020052000065334,num_3,0.3,0.5,0.39999999999999997,0.55,15.2822,21.01303,return,7.612226800003555,,,,,,,,,,,,,,,,,707,23,male,up_down_width,2024-05-22_15h44.00.859,exp1,2023.1.0,59.99415657354465,
,,,,,,,,,,,,,,,,4,8.35,9.45,10.55,11.65,0,1.1,0.8500000000000001,0.25,3.5500000000000003,10,initial,36.05,301,341,380,420,0,9,9,9,9,0,,,,,,,0,0,0,0,0,45,45,19,,,,,,,,,,,,num_4,1.3677417999715544,num_4,0.25,0.5,0.25,1.0,9.55138,38.2055,return,4.315407900023274,,,,,,,,,,,,,,,,,707,23,male,up_down_width,2024-05-22_15h44.00.859,exp1,2023.1.0,59.99415657354465,
,,,,,,,,,,,,,,,,3,9.1,10,10.9,0,0,0.9,0.5,0.4,2.2,10,initial,36.05,328,361,393,0,0,9,9,9,0,0,,,,,,,0,0,0,0,0,46,46,15,,,,,,,,,,,,num_3,1.082791900029406,num_3,0.25,0.4,0.25,0.65,9.55138,24.83358,return,3.1826992999995127,,,,,,,,,,,,,,,,,707,23,male,up_down_width,2024-05-22_15h44.00.859,exp1,2023.1.0,59.99415657354465,
,,,,,,,,,,,,,,,,4,9.3,9.766666666666667,10.233333333333333,10.7,0,0.4666666666666667,0.06666666666666665,0.4,1.8,10,match,36.05,335,352,369,386,0,9,9,9,9,0,,,,,,,0,0,0,0,0,47,47,10,,,,,,,,,,,,num_4,1.0724647999741137,num_4,0.2,1.1,0.49999999999999994,0.7,19.10275,26.74385,return,4.064631899993401,,,,,,,,,,,,,,,,,707,23,male,up_down_width,2024-05-22_15h44.00.859,exp1,2023.1.0,59.99415657354465,
,,,,,,,,,,,,,,,,3,8.6,10,11.4,0,0,1.4,1.15,0.25,3.05,10,match,36.05,310,361,411,0,0,9,9,9,0,0,,,,,,,0,0,0,0,0,48,48,43,,,,,,,,,,,,num_3,1.2373728000093251,num_3,0.3,0.9,0.15000000000000002,1.3,5.73083,49.66716,return,3.2795808000373654,,,,,,,,,,,,,,,,,707,23,male,up_down_width,2024-05-22_15h44.00.859,exp1,2023.1.0,59.99415657354465,
,,,,,,,,,,,,,,,,3,8.9,10,11.1,0,0,1.1,0.55,0.55,2.75,10,initial,36.05,321,361,400,0,0,9,9,9,0,0,,,,,,,0,0,0,0,0,49,49,0,,,,,,,,,,,,num_3,1.1209674999699928,num_3,0.3,1,0.49999999999999994,1.0,19.10275,38.2055,return,3.9695461000083014,,,,,,,,,,,,,,,,,707,23,male,up_down_width,2024-05-22_15h44.00.859,exp1,2023.1.0,59.99415657354465,
,,,,,,,,,,,,,,,,3,9.1,10,10.9,0,0,0.9,0.65,0.25,2.05,10,initial,36.05,328,361,393,0,0,9,9,9,0,0,,,,,,,0,0,0,0,0,50,50,13,,,,,,,,,,,,num_3,0.9556296999799088,num_3,0.5,1,0.20000000000000007,1.1,7.6411,42.02605,return,3.0390010999981314,,,,,,,,,,,,,,,,,707,23,male,up_down_width,2024-05-22_15h44.00.859,exp1,2023.1.0,59.99415657354465,
,,,,,,,,,,,,,,,,4,9.3,9.766666666666667,10.233333333333333,10.7,0,0.4666666666666667,0.21666666666666665,0.25,1.65,10,match,36.05,335,352,369,386,0,9,9,9,9,0,,,,,,,0,0,0,0,0,51,51,8,,,,,,,,,,,,num_3,2.378388100012671,num_3,0.55,1,0.20000000000000007,0.9,7.6411,34.38495,return,5.211165699991398,,,,,,,,,,,,,,,,,707,23,male,up_down_width,2024-05-22_15h44.00.859,exp1,2023.1.0,59.99415657354465,
,,,,,,,,,,,,,,,,,,,,,,,,,,,,,,,,,,,,,,,,,,,,,0,0,0,0,,,,,,,,,,,,,,,,,,,,,,,,,,,,,1085.4601527000195,1085.4601527000195,1085.4601527000195,,,,,,,,,,,,707,23,male,up_down_width,2024-05-22_15h44.00.859,exp1,2023.1.0,59.99415657354465,
,,,,,,,,,,,,,,,,4,8.95,9.65,10.35,11.05,0,0.7,0.44999999999999996,0.25,2.3499999999999996,10,initial,36.05,323,348,373,398,0,9,9,9,9,0,,,,,,,1,0,1,0,0,0,0,24,,,,,,,,,,,,num_4,2.5971545000211336,num_4,0.35,0.4,0.15000000000000002,0.5,5.73083,19.10275,return,3.851017899985891,,,,,,,,,,,,,,,,,707,23,male,up_down_width,2024-05-22_15h44.00.859,exp1,2023.1.0,59.99415657354465,
,,,,,,,,,,,,,,,,4,8.95,9.65,10.35,11.05,0,0.7,0.29999999999999993,0.4,2.5,10,initial,36.05,323,348,373,398,0,9,9,9,9,0,,,,,,,1,0,1,0,0,1,1,26,,,,,,,,,,,,num_4,1.3363017999799922,num_4,0.25,0.9,0.2,0.6,7.6411,22.9233,return,7.230796999996528,,,,,,,,,,,,,,,,,707,23,male,up_down_width,2024-05-22_15h44.00.859,exp1,2023.1.0,59.99415657354465,
,,,,,,,,,,,,,,,,3,9.1,10,10.9,0,0,0.9,0.65,0.25,2.05,10,initial,36.05,328,361,393,0,0,9,9,9,0,0,,,,,,,1,0,1,0,0,2,2,13,,,,,,,,,,,,num_3,1.1656526000006124,num_3,0.3,1.1,0.3,1.1,11.46165,42.02605,return,1.9995381000335328,,,,,,,,,,,,,,,,,707,23,male,up_down_width,2024-05-22_15h44.00.859,exp1,2023.1.0,59.99415657354465,
,,,,,,,,,,,,,,,,5,8.6,9.3,10,10.7,11.4,0.7,0.29999999999999993,0.4,3.1999999999999997,10,initial,36.05,310,335,361,386,411,9,9,9,9,9,,,,,,,1,0,1,0,0,3,3,44,,,,,,,,,,,,num_5,1.1326517999987118,num_5,0.4,0.5,0.4,0.75,15.2822,28.65413,return,2.5977011999930255,,,,,,,,,,,,,,,,,707,23,male,up_down_width,2024-05-22_15h44.00.859,exp1,2023.1.0,59.99415657354465,
,,,,,,,,,,,,,,,,4,8.9,9.633333333333333,10.366666666666667,11.1,0,0.7333333333333333,0.18333333333333326,0.55,2.75,10,match,36.05,321,347,374,400,0,9,9,9,9,0,,,,,,,1,0,1,0,0,4,4,1,,,,,,,,,,,,num_5,1.2239569000084884,num_5,0.45,0.5,0.45,0.7,17.19248,26.74385,return,1.9048273999942467,,,,,,,,,,,,,,,,,707,23,male,up_down_width,2024-05-22_15h44.00.859,exp1,2023.1.0,59.99415657354465,
,,,,,,,,,,,,,,,,4,8.65,9.55,10.45,11.35,0,0.9,0.65,0.25,2.95,10,initial,36.05,312,344,377,409,0,9,9,9,9,0,,,,,,,1,0,1,0,0,5,5,30,,,,,,,,,,,,num_4,1.2310553999850526,num_4,0.25,0.4,0.25,0.9,9.55138,34.38495,return,1.8307481000083499,,,,,,,,,,,,,,,,,707,23,male,up_down_width,2024-05-22_15h44.00.859,exp1,2023.1.0,59.99415657354465,
,,,,,,,,,,,,,,,,3,9.3,10,10.7,0,0,0.7,0.1499999999999999,0.55,1.95,10,initial,36.05,335,361,386,0,0,9,9,9,0,0,,,,,,,1,0,1,0,0,6,6,6,,,,,,,,,,,,num_3,1.101539600000251,num_3,0.25,0.3,0.25,0.4,9.55138,15.2822,return,3.147695499996189,,,,,,,,,,,,,,,,,707,23,male,up_down_width,2024-05-22_15h44.00.859,exp1,2023.1.0,59.99415657354465,
,,,,,,,,,,,,,,,,5,7.8,8.9,10,11.1,12.2,1.1,0.8500000000000001,0.25,4.65,10,initial,36.05,281,321,361,400,440,9,9,9,9,9,,,,,,,1,0,1,0,0,7,7,36,,,,,,,,,,,,num_5,1.5080274000065401,num_5,0.55,0.6,0.25000000000000006,0.75,9.55138,28.65413,return,3.841909200011287,,,,,,,,,,,,,,,,,707,23,male,up_down_width,2024-05-22_15h44.00.859,exp1,2023.1.0,59.99415657354465,
,,,,,,,,,,,,,,,,5,8.95,9.475,10,10.525,11.05,0.525,0.125,0.4,2.5,10,match,36.05,323,342,361,379,398,9,9,9,9,9,,,,,,,1,0,1,0,0,8,8,27,,,,,,,,,,,,num_4,1.5832800000207499,num_4,0.35,1.0,0.49999999999999994,0.8,19.10275,30.5644,return,5.005947400000878,,,,,,,,,,,,,,,,,707,23,male,up_down_width,2024-05-22_15h44.00.859,exp1,2023.1.0,59.99415657354465,
,,,,,,,,,,,,,,,,4,9.3,9.766666666666667,10.233333333333333,10.7,0,0.4666666666666667,0.21666666666666665,0.25,1.65,10,match,36.05,335,352,369,386,0,9,9,9,9,0,,,,,,,1,0,1,0,0,9,9,8,,,,,,,,,,,,num_3,1.4696090000215918,num_3,0.55,0.9,0.55,0.8,21.01303,30.5644,return,2.3338713999837637,,,,,,,,,,,,,,,,,707,23,male,up_down_width,2024-05-22_15h44.00.859,exp1,2023.1.0,59.99415657354465,
,,,,,,,,,,,,,,,,5,7.8,8.9,10,11.1,12.2,1.1,0.7000000000000001,0.4,4.800000000000001,10,initial,36.05,281,321,361,400,440,9,9,9,9,9,,,,,,,1,0,1,0,0,10,10,38,,,,,,,,,,,,num_5,1.1684946999885142,num_5,0.55,0.7,0.55,0.8,21.01303,30.5644,return,3.7097523999982513,,,,,,,,,,,,,,,,,707,23,male,up_down_width,2024-05-22_15h44.00.859,exp1,2023.1.0,59.99415657354465,
,,,,,,,,,,,,,,,,3,7.800000000000001,10,12.2,0,0,2.1999999999999997,1.7999999999999998,0.4,4.8,10,match,36.05,281,361,440,0,0,9,9,9,0,0,,,,,,,1,0,1,0,0,11,11,39,,,,,,,,,,,,num_3,1.0600857000099495,num_3,0.55,1.1,0.5,1.4,19.10275,53.48771,return,3.509316999989096,,,,,,,,,,,,,,,,,707,23,male,up_down_width,2024-05-22_15h44.00.859,exp1,2023.1.0,59.99415657354465,
,,,,,,,,,,,,,,,,5,7.8,8.9,10,11.1,12.2,1.1,0.55,0.55,4.95,10,initial,36.05,281,321,361,400,440,9,9,9,9,9,,,,,,,1,0,1,0,0,12,12,34,,,,,,,,,,,,num_5,1.2186917000217363,num_5,0.2,0.8,0.35,0.85,13.37193,32.47468,return,4.729250999982469,,,,,,,,,,,,,,,,,707,23,male,up_down_width,2024-05-22_15h44.00.859,exp1,2023.1.0,59.99415657354465,
,,,,,,,,,,,,,,,,5,8.65,9.325,10,10.675,11.35,0.675,0.125,0.55,3.25,10,match,36.05,312,336,361,385,409,9,9,9,9,9,,,,,,,1,0,1,0,0,13,13,29,,,,,,,,,,,,num_5,0.9810851999791339,num_5,0.5,0.7,0.5,0.65,19.10275,24.83358,return,2.1817806999897584,,,,,,,,,,,,,,,,,707,23,male,up_down_width,2024-05-22_15h44.00.859,exp1,2023.1.0,59.99415657354465,
,,,,,,,,,,,,,,,,3,8.9,10,11.1,0,0,1.1,0.55,0.55,2.75,10,initial,36.05,321,361,400,0,0,9,9,9,0,0,,,,,,,1,0,1,0,0,14,14,0,,,,,,,,,,,,num_2,1.1129756000009365,num_2,0.45,1.2,0.45,1.0,17.19248,38.2055,return,1.5306751999887638,,,,,,,,,,,,,,,,,707,23,male,up_down_width,2024-05-22_15h44.00.859,exp1,2023.1.0,59.99415657354465,
,,,,,,,,,,,,,,,,3,8.2,10,11.8,0,0,1.7999999999999998,1.4,0.4,4,10,match,36.05,296,361,425,0,0,9,9,9,0,0,,,,,,,1,0,1,0,0,15,15,51,,,,,,,,,,,,num_2,1.0128449999610893,num_2,0.4,0.8,0.4,1.8,15.2822,68.76991,return,4.874652399972547,,,,,,,,,,,,,,,,,707,23,male,up_down_width,2024-05-22_15h44.00.859,exp1,2023.1.0,59.99415657354465,
,,,,,,,,,,,,,,,,4,8.35,9.45,10.55,11.65,0,1.1,0.8500000000000001,0.25,3.5500000000000003,10,initial,36.05,301,341,380,420,0,9,9,9,9,0,,,,,,,1,0,1,0,0,16,16,19,,,,,,,,,,,,num_3,1.1956076000351459,num_3,0.4,0.8,0.20000000000000007,1.2,7.6411,45.8466,return,4.586030000005849,,,,,,,,,,,,,,,,,707,23,male,up_down_width,2024-05-22_15h44.00.859,exp1,2023.1.0,59.99415657354465,
,,,,,,,,,,,,,,,,3,8.2,10,11.8,0,0,1.8,1.55,0.25,3.85,10,match,36.05,296,361,425,0,0,9,9,9,0,0,,,,,,,1,0,1,0,0,17,17,49,,,,,,,,,,,,num_2,1.5646072999807075,num_2,0.2,1.2,0.2,1.9,7.6411,72.59046,return,4.765815699996892,,,,,,,,,,,,,,,,,707,23,male,up_down_width,2024-05-22_15h44.00.859,exp1,2023.1.0,59.99415657354465,
,,,,,,,,,,,,,,,,4,8.95,9.65,10.35,11.05,0,0.7,0.1499999999999999,0.55,2.65,10,initial,36.05,323,348,373,398,0,9,9,9,9,0,,,,,,,1,0,1,0,0,18,18,23,,,,,,,,,,,,num_5,22.770916000008583,num_5,0.55,0.7,0.55,0.7,21.01303,26.74385,return,1.1545439999899827,,,,,,,,,,,,,,,,,707,23,male,up_down_width,2024-05-22_15h44.00.859,exp1,2023.1.0,59.99415657354465,
,,,,,,,,,,,,,,,,5,8.35,9.175,10,10.825,11.65,0.825,0.575,0.25,3.55,10,match,36.05,301,331,361,390,420,9,9,9,9,9,,,,,,,1,0,1,0,0,19,19,20,,,,,,,,,,,,num_4,1.1685884000035003,num_4,0.55,1.1,0.35000000000000003,0.9,13.37193,34.38495,return,3.311882500012871,,,,,,,,,,,,,,,,,707,23,male,up_down_width,2024-05-22_15h44.00.859,exp1,2023.1.0,59.99415657354465,
,,,,,,,,,,,,,,,,5,8.6,9.3,10,10.7,11.4,0.7,0.1499999999999999,0.55,3.3499999999999996,10,initial,36.05,310,335,361,386,411,9,9,9,9,9,,,,,,,1,0,1,0,0,20,20,40,,,,,,,,,,,,num_5,3.268767800007481,num_5,0.35,0.5,0.35,0.6,13.37193,22.9233,return,1.4572043999796733,,,,,,,,,,,,,,,,,707,23,male,up_down_width,2024-05-22_15h44.00.859,exp1,2023.1.0,59.99415657354465,
,,,,,,,,,,,,,,,,4,9.1,9.7,10.3,10.9,0,0.6,0.04999999999999997,0.55,2.35,10,match,36.05,328,350,371,393,0,9,9,9,9,0,,,,,,,1,0,1,0,0,21,21,12,,,,,,,,,,,,num_4,1.3352518000174314,num_4,0.45,0.9,0.45,0.5,17.19248,19.10275,return,1.7288315000478178,,,,,,,,,,,,,,,,,707,23,male,up_down_width,2024-05-22_15h44.00.859,exp1,2023.1.0,59.99415657354465,
,,,,,,,,,,,,,,,,4,8.35,9.45,10.55,11.65,0,1.1,0.7000000000000001,0.4,3.7,10,initial,36.05,301,341,380,420,0,9,9,9,9,0,,,,,,,1,0,1,0,0,22,22,21,,,,,,,,,,,,num_4,1.5816012000432238,num_4,0.2,0.9,0.3,0.5,11.46165,19.10275,return,2.6989535000175238,,,,,,,,,,,,,,,,,707,23,male,up_down_width,2024-05-22_15h44.00.859,exp1,2023.1.0,59.99415657354465,
,,,,,,,,,,,,,,,,5,8.2,9.1,10,10.9,11.8,0.9,0.5,0.4,4,10,initial,36.05,296,328,361,393,425,9,9,9,9,9,,,,,,,1,0,1,0,0,23,23,50,,,,,,,,,,,,num_5,1.1728871999657713,num_5,0.35,0.7,0.35,0.65,13.37193,24.83358,return,1.2948553999885917,,,,,,,,,,,,,,,,,707,23,male,up_down_width,2024-05-22_15h44.00.859,exp1,2023.1.0,59.99415657354465,
,,,,,,,,,,,,,,,,4,9.1,9.7,10.3,10.9,0,0.6000000000000001,0.20000000000000004,0.4,2.2,10,match,36.05,328,350,371,393,0,9,9,9,9,0,,,,,,,1,0,1,0,0,24,24,16,,,,,,,,,,,,num_3,1.124831199995242,num_3,0.35,0.8,0.35,0.6,13.37193,22.9233,return,2.065786699997261,,,,,,,,,,,,,,,,,707,23,male,up_down_width,2024-05-22_15h44.00.859,exp1,2023.1.0,59.99415657354465,
,,,,,,,,,,,,,,,,5,8.95,9.475,10,10.525,11.05,0.525,0.275,0.25,2.35,10,match,36.05,323,342,361,379,398,9,9,9,9,9,,,,,,,1,0,1,0,0,25,25,25,,,,,,,,,,,,num_4,1.2101213000132702,num_4,0.2,0.3,0.2,0.5,7.6411,19.10275,return,2.6292919000261463,,,,,,,,,,,,,,,,,707,23,male,up_down_width,2024-05-22_15h44.00.859,exp1,2023.1.0,59.99415657354465,
,,,,,,,,,,,,,,,,5,8.35,9.175,10,10.825,11.65,0.8250000000000001,0.275,0.55,3.85,10,match,36.05,301,331,361,390,420,9,9,9,9,9,,,,,,,1,0,1,0,0,26,26,18,,,,,,,,,,,,num_5,1.6864324000198394,num_5,0.45,0.6,0.45,0.6,17.19248,22.9233,return,1.134365500009153,,,,,,,,,,,,,,,,,707,23,male,up_down_width,2024-05-22_15h44.00.859,exp1,2023.1.0,59.99415657354465,
,,,,,,,,,,,,,,,,3,7.8,10,12.2,0,0,2.2,1.65,0.55,4.95,10,match,36.05,281,361,440,0,0,9,9,9,0,0,,,,,,,1,0,1,0,0,27,27,35,,,,,,,,,,,,num_2,1.3009578000055626,num_2,0.2,1.6,0.44999999999999996,1.7,17.19248,64.94936,return,3.5122695000027306,,,,,,,,,,,,,,,,,707,23,male,up_down_width,2024-05-22_15h44.00.859,exp1,2023.1.0,59.99415657354465,
,,,,,,,,,,,,,,,,3,8.9,10,11.1,0,0,1.1,0.7000000000000001,0.4,2.6000000000000005,10,initial,36.05,321,361,400,0,0,9,9,9,0,0,,,,,,,1,0,1,0,0,28,28,4,,,,,,,,,,,,num_2,1.1516966999624856,num_2,0.35,1.2,0.35,1.4,13.37193,53.48771,return,7.470724500017241,,,,,,,,,,,,,,,,,707,23,male,up_down_width,2024-05-22_15h44.00.859,exp1,2023.1.0,59.99415657354465,
,,,,,,,,,,,,,,,,3,9.3,10,10.7,0,0,0.7,0.44999999999999996,0.25,1.65,10,initial,36.05,335,361,386,0,0,9,9,9,0,0,,,,,,,1,0,1,0,0,29,29,7,,,,,,,,,,,,num_2,1.1326303000096232,num_2,0.4,1.4,0.20000000000000007,1.4,7.6411,53.48771,return,2.681452699995134,,,,,,,,,,,,,,,,,707,23,male,up_down_width,2024-05-22_15h44.00.859,exp1,2023.1.0,59.99415657354465,
,,,,,,,,,,,,,,,,4,8.9,9.633333333333333,10.366666666666667,11.1,0,0.7333333333333334,0.4833333333333334,0.25,2.45,10,match,36.05,321,347,374,400,0,9,9,9,9,0,,,,,,,1,0,1,0,0,30,30,3,,,,,,,,,,,,num_2,0.9250522999791428,num_2,0.3,0.8,0.3,1.4,11.46165,53.48771,return,3.841932100011036,,,,,,,,,,,,,,,,,707,23,male,up_down_width,2024-05-22_15h44.00.859,exp1,2023.1.0,59.99415657354465,
,,,,,,,,,,,,,,,,5,8.65,9.325,10,10.675,11.35,0.675,0.42500000000000004,0.25,2.95,10,match,36.05,312,336,361,385,409,9,9,9,9,9,,,,,,,1,0,1,0,0,31,31,31,,,,,,,,,,,,num_4,1.2329527999972925,num_4,0.5,1.2,0.30000000000000004,1.1,11.46165,42.02605,return,2.7010029000230134,,,,,,,,,,,,,,,,,707,23,male,up_down_width,2024-05-22_15h44.00.859,exp1,2023.1.0,59.99415657354465,
,,,,,,,,,,,,,,,,4,8.65,9.55,10.45,11.35,0,0.9,0.5,0.4,3.1,10,initial,36.05,312,344,377,409,0,9,9,9,9,0,,,,,,,1,0,1,0,0,32,32,32,,,,,,,,,,,,num_2,1.058518500009086,num_2,0.4,1.4,0.4,1.7,15.2822,64.94936,return,1.188657200022135,,,,,,,,,,,,,,,,,707,23,male,up_down_width,2024-05-22_15h44.00.859,exp1,2023.1.0,59.99415657354465,
,,,,,,,,,,,,,,,,4,8.825,9.608333333333333,10.391666666666667,11.175,0,0.7833333333333333,0.5333333333333333,0.25,2.6,10,match,36.05,318,346,375,403,0,9,9,9,9,0,,,,,,,1,0,1,0,0,33,33,5,,,,,,,,,,,,num_3,1.0619703000411391,num_3,0.3,1.1,0.3,1.2,11.46165,45.8466,return,0.9851610999903642,,,,,,,,,,,,,,,,,707,23,male,up_down_width,2024-05-22_15h44.00.859,exp1,2023.1.0,59.99415657354465,
,,,,,,,,,,,,,,,,3,8.525,10,11.475,0,0,1.475,1.225,0.25,3.2,10,match,36.05,307,361,414,0,0,9,9,9,0,0,,,,,,,1,0,1,0,0,34,34,45,,,,,,,,,,,,num_2,1.077843800012488,num_2,0.4,0.6,0.4,1.8,15.2822,68.76991,return,2.803979399963282,,,,,,,,,,,,,,,,,707,23,male,up_down_width,2024-05-22_15h44.00.859,exp1,2023.1.0,59.99415657354465,
,,,,,,,,,,,,,,,,3,8.6,10,11.4,0,0,1.4,1.15,0.25,3.05,10,match,36.05,310,361,411,0,0,9,9,9,0,0,,,,,,,1,0,1,0,0,35,35,43,,,,,,,,,,,,num_2,1.1789290999877267,num_2,0.3,1.4,0.3,2.4,11.46165,91.69321,return,2.1540399999939837,,,,,,,,,,,,,,,,,707,23,male,up_down_width,2024-05-22_15h44.00.859,exp1,2023.1.0,59.99415657354465,
,,,,,,,,,,,,,,,,5,8.6,9.3,10,10.7,11.4,0.7,0.44999999999999996,0.25,3.05,10,initial,36.05,310,335,361,386,411,9,9,9,9,9,,,,,,,1,0,1,0,0,36,36,42,,,,,,,,,,,,num_4,0.982712100027129,num_4,0.2,1.0,0.2,1.2,7.6411,45.8466,return,0.8899036999791861,,,,,,,,,,,,,,,,,707,23,male,up_down_width,2024-05-22_15h44.00.859,exp1,2023.1.0,59.99415657354465,
,,,,,,,,,,,,,,,,3,9.1,10,10.9,0,0,0.9,0.35,0.55,2.35,10,initial,36.05,328,361,393,0,0,9,9,9,0,0,,,,,,,1,0,1,0,0,37,37,11,,,,,,,,,,,,num_2,0.9403175999759696,num_2,0.3,1.4,0.44999999999999996,1.3,17.19248,49.66716,return,1.9879848000127822,,,,,,,,,,,,,,,,,707,23,male,up_down_width,2024-05-22_15h44.00.859,exp1,2023.1.0,59.99415657354465,
,,,,,,,,,,,,,,,,3,8.6,10,11.4,0,0,1.4,0.85,0.55,3.35,10,match,36.05,310,361,411,0,0,9,9,9,0,0,,,,,,,1,0,1,0,0,38,38,41,,,,,,,,,,,,num_2,0.9110165000311099,num_2,0.45,1.0,0.45,1.5,17.19248,57.30826,return,2.4368139000143856,,,,,,,,,,,,,,,,,707,23,male,up_down_width,2024-05-22_15h44.00.859,exp1,2023.1.0,59.99415657354465,
,,,,,,,,,,,,,,,,3,8.2,10,11.8,0,0,1.8,1.25,0.55,4.15,10,match,36.05,296,361,425,0,0,9,9,9,0,0,,,,,,,1,0,1,0,0,39,39,47,,,,,,,,,,,,num_2,0.9117832999909297,num_2,0.55,1.4,0.55,2.5,21.01303,95.51376,return,2.7138252000440843,,,,,,,,,,,,,,,,,707,23,male,up_down_width,2024-05-22_15h44.00.859,exp1,2023.1.0,59.99415657354465,
,,,,,,,,,,,,,,,,5,8.2,9.1,10,10.9,11.8,0.9,0.65,0.25,3.85,10,initial,36.05,296,328,361,393,425,9,9,9,9,9,,,,,,,1,0,1,0,0,40,40,48,,,,,,,,,,,,num_4,1.0066090999753214,num_4,0.35,0.8,0.35,1.2,13.37193,45.8466,return,1.537309700041078,,,,,,,,,,,,,,,,,707,23,male,up_down_width,2024-05-22_15h44.00.859,exp1,2023.1.0,59.99415657354465,
,,,,,,,,,,,,,,,,5,8.65,9.325,10,10.675,11.35,0.675,0.275,0.4,3.1,10,match,36.05,312,336,361,385,409,9,9,9,9,9,,,,,,,1,0,1,0,0,41,41,33,,,,,,,,,,,,num_5,1.002494900021702,num_5,0.45,0.5,0.45,0.7,17.19248,26.74385,return,1.2649347999831662,,,,,,,,,,,,,,,,,707,23,male,up_down_width,2024-05-22_15h44.00.859,exp1,2023.1.0,59.99415657354465,
,,,,,,,,,,,,,,,,4,9.1,9.7,10.3,10.9,0,0.5999999999999999,0.3499999999999999,0.25,2.05,10,match,36.05,328,350,371,393,0,9,9,9,9,0,,,,,,,1,0,1,0,0,42,42,14,,,,,,,,,,,,num_4,1.144460399984382,num_4,0.2,0.9,0.2,0.6,7.6411,22.9233,return,1.785185199987609,,,,,,,,,,,,,,,,,707,23,male,up_down_width,2024-05-22_15h44.00.859,exp1,2023.1.0,59.99415657354465,
,,,,,,,,,,,,,,,,4,8.65,9.55,10.45,11.35,0,0.9,0.35,0.55,3.25,10,initial,36.05,312,344,377,409,0,9,9,9,9,0,,,,,,,1,0,1,0,0,43,43,28,,,,,,,,,,,,num_3,1.7690339999971911,num_3,0.5,0.7,0.5,0.85,19.10275,32.47468,return,1.421587000018917,,,,,,,,,,,,,,,,,707,23,male,up_down_width,2024-05-22_15h44.00.859,exp1,2023.1.0,59.99415657354465,
,,,,,,,,,,,,,,,,3,9.1,10,10.9,0,0,0.9,0.5,0.4,2.2,10,initial,36.05,328,361,393,0,0,9,9,9,0,0,,,,,,,1,0,1,0,0,44,44,15,,,,,,,,,,,,num_2,0.8159691999899223,num_2,0.25,1.2,0.44999999999999996,1.0,17.19248,38.2055,return,2.090182600019034,,,,,,,,,,,,,,,,,707,23,male,up_down_width,2024-05-22_15h44.00.859,exp1,2023.1.0,59.99415657354465,
,,,,,,,,,,,,,,,,5,8.275,9.1375,10,10.8625,11.725,0.8625,0.6125,0.25,3.7,10,match,36.05,298,329,361,392,423,9,9,9,9,9,,,,,,,1,0,1,0,0,45,45,22,,,,,,,,,,,,num_5,1.0632433000137098,num_5,0.2,0.5,0.2,0.7,7.6411,26.74385,return,2.7134638999705203,,,,,,,,,,,,,,,,,707,23,male,up_down_width,2024-05-22_15h44.00.859,exp1,2023.1.0,59.99415657354465,
,,,,,,,,,,,,,,,,4,9.3,9.766666666666667,10.233333333333333,10.7,0,0.4666666666666667,0.06666666666666665,0.4,1.8,10,match,36.05,335,352,369,386,0,9,9,9,9,0,,,,,,,1,0,1,0,0,46,46,10,,,,,,,,,,,,num_4,1.1362732999841683,num_4,0.45,1.1,0.45,0.6,17.19248,22.9233,return,2.249838699994143,,,,,,,,,,,,,,,,,707,23,male,up_down_width,2024-05-22_15h44.00.859,exp1,2023.1.0,59.99415657354465,
,,,,,,,,,,,,,,,,3,7.8,10,12.2,0,0,2.2,1.9500000000000002,0.25,4.65,10,match,36.05,281,361,440,0,0,9,9,9,0,0,,,,,,,1,0,1,0,0,47,47,37,,,,,,,,,,,,num_3,1.1606746999896131,num_3,0.35,0.6,0.35,1.3,13.37193,49.66716,return,3.4945910000242293,,,,,,,,,,,,,,,,,707,23,male,up_down_width,2024-05-22_15h44.00.859,exp1,2023.1.0,59.99415657354465,
,,,,,,,,,,,,,,,,5,8.2,9.1,10,10.9,11.8,0.9,0.35,0.55,4.15,10,initial,36.05,296,328,361,393,425,9,9,9,9,9,,,,,,,1,0,1,0,0,48,48,46,,,,,,,,,,,,num_4,1.1425127999973483,num_4,0.5,0.6,0.5,1.0,19.10275,38.2055,return,3.14106549997814,,,,,,,,,,,,,,,,,707,23,male,up_down_width,2024-05-22_15h44.00.859,exp1,2023.1.0,59.99415657354465,
,,,,,,,,,,,,,,,,3,9.3,10,10.7,0,0,0.7,0.29999999999999993,0.4,1.8,10,initial,36.05,335,361,386,0,0,9,9,9,0,0,,,,,,,1,0,1,0,0,49,49,9,,,,,,,,,,,,num_2,1.0636800000211224,num_2,0.2,0.6,0.39999999999999997,0.6,15.2822,22.9233,return,3.259194899990689,,,,,,,,,,,,,,,,,707,23,male,up_down_width,2024-05-22_15h44.00.859,exp1,2023.1.0,59.99415657354465,
,,,,,,,,,,,,,,,,3,8.9,10,11.1,0,0,1.1,0.8500000000000001,0.25,2.45,10,initial,36.05,321,361,400,0,0,9,9,9,0,0,,,,,,,1,0,1,0,0,50,50,2,,,,,,,,,,,,num_2,0.927747699955944,num_2,0.4,1.2,0.20000000000000007,1.2,7.6411,45.8466,return,2.5855863000033423,,,,,,,,,,,,,,,,,707,23,male,up_down_width,2024-05-22_15h44.00.859,exp1,2023.1.0,59.99415657354465,
,,,,,,,,,,,,,,,,4,8.35,9.45,10.55,11.65,0,1.1,0.55,0.55,3.8500000000000005,10,initial,36.05,301,341,380,420,0,9,9,9,9,0,,,,,,,1,0,1,0,0,51,51,17,,,,,,,,,,,,num_2,0.9665354000171646,num_2,0.45,0.8,0.45,1.7,17.19248,64.94936,return,2.1596155000152066,,,,,,,,,,,,,,,,,707,23,male,up_down_width,2024-05-22_15h44.00.859,exp1,2023.1.0,59.99415657354465,
,,,,,,,,,,,,,,,,,,,,,,,,,,,,,,,,,,,,,,,,,,,,,1,0,1,0,,,,,,,,,,,,,,,,,,,,,,,,,,,,,1413.1104728000355,1413.1104728000355,1413.1104728000355,,,,,,,,,,,,707,23,male,up_down_width,2024-05-22_15h44.00.859,exp1,2023.1.0,59.99415657354465,
,,,,,,,,,,,,,,,,3,7.800000000000001,10,12.2,0,0,2.1999999999999997,1.7999999999999998,0.4,4.8,10,match,36.05,281,361,440,0,0,9,9,9,0,0,,,,,,,2,0,2,0,0,0,0,39,,,,,,,,,,,,num_2,1.0997406999813393,num_2,0.2,1.0,0.44999999999999996,1.4,17.19248,53.48771,return,2.7946942999842577,,,,,,,,,,,,,,,,,707,23,male,up_down_width,2024-05-22_15h44.00.859,exp1,2023.1.0,59.99415657354465,
,,,,,,,,,,,,,,,,3,9.1,10,10.9,0,0,0.9,0.5,0.4,2.2,10,initial,36.05,328,361,393,0,0,9,9,9,0,0,,,,,,,2,0,2,0,0,1,1,15,,,,,,,,,,,,num_2,0.7924990999745205,num_2,0.2,1.4,0.39999999999999997,1.2,15.2822,45.8466,return,3.13956350000808,,,,,,,,,,,,,,,,,707,23,male,up_down_width,2024-05-22_15h44.00.859,exp1,2023.1.0,59.99415657354465,
,,,,,,,,,,,,,,,,4,8.95,9.65,10.35,11.05,0,0.7,0.29999999999999993,0.4,2.5,10,initial,36.05,323,348,373,398,0,9,9,9,9,0,,,,,,,2,0,2,0,0,2,2,26,,,,,,,,,,,,num_3,1.1788600999861956,num_3,0.5,1.1,0.5,0.95,19.10275,36.29523,return,2.404410699964501,,,,,,,,,,,,,,,,,707,23,male,up_down_width,2024-05-22_15h44.00.859,exp1,2023.1.0,59.99415657354465,
,,,,,,,,,,,,,,,,3,8.6,10,11.4,0,0,1.4,0.85,0.55,3.35,10,match,36.05,310,361,411,0,0,9,9,9,0,0,,,,,,,2,0,2,0,0,3,3,41,,,,,,,,,,,,num_2,0.8560026999912225,num_2,0.35,0.6,0.44999999999999996,1.0,17.19248,38.2055,return,5.069939100008924,,,,,,,,,,,,,,,,,707,23,male,up_down_width,2024-05-22_15h44.00.859,exp1,2023.1.0,59.99415657354465,
,,,,,,,,,,,,,,,,5,8.65,9.325,10,10.675,11.35,0.675,0.125,0.55,3.25,10,match,36.05,312,336,361,385,409,9,9,9,9,9,,,,,,,2,0,2,0,0,4,4,29,,,,,,,,,,,,num_4,1.3209670000360347,num_4,0.55,0.9,0.55,0.7,21.01303,26.74385,return,2.300527499988675,,,,,,,,,,,,,,,,,707,23,male,up_down_width,2024-05-22_15h44.00.859,exp1,2023.1.0,59.99415657354465,
,,,,,,,,,,,,,,,,3,9.3,10,10.7,0,0,0.7,0.44999999999999996,0.25,1.65,10,initial,36.05,335,361,386,0,0,9,9,9,0,0,,,,,,,2,0,2,0,0,5,5,7,,,,,,,,,,,,num_2,0.7763895000098273,num_2,0.2,0.6,0.2,0.8,7.6411,30.5644,return,0.9213696999941021,,,,,,,,,,,,,,,,,707,23,male,up_down_width,2024-05-22_15h44.00.859,exp1,2023.1.0,59.99415657354465,
,,,,,,,,,,,,,,,,5,8.65,9.325,10,10.675,11.35,0.675,0.42500000000000004,0.25,2.95,10,match,36.05,312,336,361,385,409,9,9,9,9,9,,,,,,,2,0,2,0,0,6,6,31,,,,,,,,,,,,num_4,0.9498118000337854,num_4,0.55,1.2,0.30000000000000004,0.9,11.46165,34.38495,return,3.0391303000506014,,,,,,,,,,,,,,,,,707,23,male,up_down_width,2024-05-22_15h44.00.859,exp1,2023.1.0,59.99415657354465,
,,,,,,,,,,,,,,,,3,8.9,10,11.1,0,0,1.1,0.8500000000000001,0.25,2.45,10,initial,36.05,321,361,400,0,0,9,9,9,0,0,,,,,,,2,0,2,0,0,7,7,2,,,,,,,,,,,,num_2,0.8955571999540552,num_2,0.4,0.8,0.20000000000000007,1.5,7.6411,57.30826,return,4.867869000008795,,,,,,,,,,,,,,,,,707,23,male,up_down_width,2024-05-22_15h44.00.859,exp1,2023.1.0,59.99415657354465,
,,,,,,,,,,,,,,,,5,8.6,9.3,10,10.7,11.4,0.7,0.29999999999999993,0.4,3.1999999999999997,10,initial,36.05,310,335,361,386,411,9,9,9,9,9,,,,,,,2,0,2,0,0,8,8,44,,,,,,,,,,,,num_4,1.58274139999412,num_4,0.35,0.6,0.35,0.8,13.37193,30.5644,return,2.5222917000064626,,,,,,,,,,,,,,,,,707,23,male,up_down_width,2024-05-22_15h44.00.859,exp1,2023.1.0,59.99415657354465,
,,,,,,,,,,,,,,,,3,8.525,10,11.475,0,0,1.475,1.225,0.25,3.2,10,match,36.05,307,361,414,0,0,9,9,9,0,0,,,,,,,2,0,2,0,0,9,9,45,,,,,,,,,,,,num_2,0.8857418000116013,num_2,0.55,1.4,0.20000000000000007,2.4,7.6411,91.69321,return,3.9050625000381842,,,,,,,,,,,,,,,,,707,23,male,up_down_width,2024-05-22_15h44.00.859,exp1,2023.1.0,59.99415657354465,
,,,,,,,,,,,,,,,,3,8.2,10,11.8,0,0,1.8,1.55,0.25,3.85,10,match,36.05,296,361,425,0,0,9,9,9,0,0,,,,,,,2,0,2,0,0,10,10,49,,,,,,,,,,,,num_2,0.9251084999996237,num_2,0.5,1.4,0.25000000000000006,2.0,9.55138,76.41101,return,3.3465553000569344,,,,,,,,,,,,,,,,,707,23,male,up_down_width,2024-05-22_15h44.00.859,exp1,2023.1.0,59.99415657354465,
,,,,,,,,,,,,,,,,4,8.65,9.55,10.45,11.35,0,0.9,0.65,0.25,2.95,10,initial,36.05,312,344,377,409,0,9,9,9,9,0,,,,,,,2,0,2,0,0,11,11,30,,,,,,,,,,,,num_3,1.3581316000199877,num_3,0.2,0.5,0.2,1.15,7.6411,43.93633,return,3.0718654000083916,,,,,,,,,,,,,,,,,707,23,male,up_down_width,2024-05-22_15h44.00.859,exp1,2023.1.0,59.99415657354465,
,,,,,,,,,,,,,,,,5,7.8,8.9,10,11.1,12.2,1.1,0.7000000000000001,0.4,4.800000000000001,10,initial,36.05,281,321,361,400,440,9,9,9,9,9,,,,,,,2,0,2,0,0,12,12,38,,,,,,,,,,,,num_5,1.2626472000265494,num_5,0.4,0.5,0.4,0.95,15.2822,36.29523,return,2.9157842999557033,,,,,,,,,,,,,,,,,707,23,male,up_down_width,2024-05-22_15h44.00.859,exp1,2023.1.0,59.99415657354465,
,,,,,,,,,,,,,,,,5,8.95,9.475,10,10.525,11.05,0.525,0.125,0.4,2.5,10,match,36.05,323,342,361,379,398,9,9,9,9,9,,,,,,,2,0,2,0,0,13,13,27,,,,,,,,,,,,num_5,2.9915647000307217,num_5,0.4,1.1,0.4,0.6,15.2822,22.9233,return,5.089958500000648,,,,,,,,,,,,,,,,,707,23,male,up_down_width,2024-05-22_15h44.00.859,exp1,2023.1.0,59.99415657354465,
,,,,,,,,,,,,,,,,4,9.1,9.7,10.3,10.9,0,0.6,0.04999999999999997,0.55,2.35,10,match,36.05,328,350,371,393,0,9,9,9,9,0,,,,,,,2,0,2,0,0,14,14,12,,,,,,,,,,,,num_6,1.2720406000153162,num_6,0.2,1.2,0.35,0.5,13.37193,19.10275,return,4.686223099997733,,,,,,,,,,,,,,,,,707,23,male,up_down_width,2024-05-22_15h44.00.859,exp1,2023.1.0,59.99415657354465,
,,,,,,,,,,,,,,,,5,7.8,8.9,10,11.1,12.2,1.1,0.55,0.55,4.95,10,initial,36.05,281,321,361,400,440,9,9,9,9,9,,,,,,,2,0,2,0,0,15,15,34,,,,,,,,,,,,num_5,1.134894200018607,num_5,0.45,1.1,0.45,0.95,17.19248,36.29523,return,1.3119367000181228,,,,,,,,,,,,,,,,,707,23,male,up_down_width,2024-05-22_15h44.00.859,exp1,2023.1.0,59.99415657354465,
,,,,,,,,,,,,,,,,5,8.2,9.1,10,10.9,11.8,0.9,0.35,0.55,4.15,10,initial,36.05,296,328,361,393,425,9,9,9,9,9,,,,,,,2,0,2,0,0,16,16,46,,,,,,,,,,,,num_4,5.109665399999358,num_4,0.25,1.0,0.25,0.6,9.55138,22.9233,return,1.2987251000013202,,,,,,,,,,,,,,,,,707,23,male,up_down_width,2024-05-22_15h44.00.859,exp1,2023.1.0,59.99415657354465,
,,,,,,,,,,,,,,,,3,9.3,10,10.7,0,0,0.7,0.1499999999999999,0.55,1.95,10,initial,36.05,335,361,386,0,0,9,9,9,0,0,,,,,,,2,0,2,0,0,17,17,6,,,,,,,,,,,,num_2,1.0739784999750555,num_2,0.4,0.6,0.4,0.6,15.2822,22.9233,return,1.397241100028623,,,,,,,,,,,,,,,,,707,23,male,up_down_width,2024-05-22_15h44.00.859,exp1,2023.1.0,59.99415657354465,
,,,,,,,,,,,,,,,,5,8.275,9.1375,10,10.8625,11.725,0.8625,0.6125,0.25,3.7,10,match,36.05,298,329,361,392,423,9,9,9,9,9,,,,,,,2,0,2,0,0,18,18,22,,,,,,,,,,,,num_4,1.4563899000058882,num_4,0.2,0.3,0.2,0.8,7.6411,30.5644,return,1.7276652000145987,,,,,,,,,,,,,,,,,707,23,male,up_down_width,2024-05-22_15h44.00.859,exp1,2023.1.0,59.99415657354465,
,,,,,,,,,,,,,,,,3,8.9,10,11.1,0,0,1.1,0.55,0.55,2.75,10,initial,36.05,321,361,400,0,0,9,9,9,0,0,,,,,,,2,0,2,0,0,19,19,0,,,,,,,,,,,,num_2,1.495994700002484,num_2,0.4,1.4,0.45,1.0,17.19248,38.2055,return,1.9544189000152983,,,,,,,,,,,,,,,,,707,23,male,up_down_width,2024-05-22_15h44.00.859,exp1,2023.1.0,59.99415657354465,
,,,,,,,,,,,,,,,,3,8.2,10,11.8,0,0,1.7999999999999998,1.4,0.4,4,10,match,36.05,296,361,425,0,0,9,9,9,0,0,,,,,,,2,0,2,0,0,20,20,51,,,,,,,,,,,,num_2,0.9659778000204824,num_2,0.5,1.0,0.4,2.3,15.2822,87.87266,return,3.4988617000053637,,,,,,,,,,,,,,,,,707,23,male,up_down_width,2024-05-22_15h44.00.859,exp1,2023.1.0,59.99415657354465,
,,,,,,,,,,,,,,,,3,9.3,10,10.7,0,0,0.7,0.29999999999999993,0.4,1.8,10,initial,36.05,335,361,386,0,0,9,9,9,0,0,,,,,,,2,0,2,0,0,21,21,9,,,,,,,,,,,,num_2,0.8418027000152506,num_2,0.3,1.4,0.3,0.5,11.46165,19.10275,return,2.0216908999718726,,,,,,,,,,,,,,,,,707,23,male,up_down_width,2024-05-22_15h44.00.859,exp1,2023.1.0,59.99415657354465,
,,,,,,,,,,,,,,,,4,9.3,9.766666666666667,10.233333333333333,10.7,0,0.4666666666666667,0.21666666666666665,0.25,1.65,10,match,36.05,335,352,369,386,0,9,9,9,9,0,,,,,,,2,0,2,0,0,22,22,8,,,,,,,,,,,,num_3,1.1158749999594875,num_3,0.25,0.3,0.25,0.4,9.55138,15.2822,return,1.1418708999990486,,,,,,,,,,,,,,,,,707,23,male,up_down_width,2024-05-22_15h44.00.859,exp1,2023.1.0,59.99415657354465,
,,,,,,,,,,,,,,,,5,8.2,9.1,10,10.9,11.8,0.9,0.5,0.4,4,10,initial,36.05,296,328,361,393,425,9,9,9,9,9,,,,,,,2,0,2,0,0,23,23,50,,,,,,,,,,,,num_5,1.2751504000043496,num_5,0.2,1.3,0.35,0.7,13.37193,26.74385,return,3.5832465999992564,,,,,,,,,,,,,,,,,707,23,male,up_down_width,2024-05-22_15h44.00.859,exp1,2023.1.0,59.99415657354465,
,,,,,,,,,,,,,,,,4,8.65,9.55,10.45,11.35,0,0.9,0.5,0.4,3.1,10,initial,36.05,312,344,377,409,0,9,9,9,9,0,,,,,,,2,0,2,0,0,24,24,32,,,,,,,,,,,,num_3,1.4018217000411823,num_3,0.35,0.9,0.35,0.75,13.37193,28.65413,return,1.1812315999995917,,,,,,,,,,,,,,,,,707,23,male,up_down_width,2024-05-22_15h44.00.859,exp1,2023.1.0,59.99415657354465,
,,,,,,,,,,,,,,,,5,8.35,9.175,10,10.825,11.65,0.825,0.575,0.25,3.55,10,match,36.05,301,331,361,390,420,9,9,9,9,9,,,,,,,2,0,2,0,0,25,25,20,,,,,,,,,,,,num_5,1.1454146000323817,num_5,0.55,1.2,0.35000000000000003,0.85,13.37193,32.47468,return,2.4709404000313953,,,,,,,,,,,,,,,,,707,23,male,up_down_width,2024-05-22_15h44.00.859,exp1,2023.1.0,59.99415657354465,
,,,,,,,,,,,,,,,,4,8.95,9.65,10.35,11.05,0,0.7,0.44999999999999996,0.25,2.3499999999999996,10,initial,36.05,323,348,373,398,0,9,9,9,9,0,,,,,,,2,0,2,0,0,26,26,24,,,,,,,,,,,,num_4,1.0444070000085048,num_4,0.5,0.8,0.30000000000000004,0.7,11.46165,26.74385,return,1.7337154999841005,,,,,,,,,,,,,,,,,707,23,male,up_down_width,2024-05-22_15h44.00.859,exp1,2023.1.0,59.99415657354465,
,,,,,,,,,,,,,,,,3,9.1,10,10.9,0,0,0.9,0.35,0.55,2.35,10,initial,36.05,328,361,393,0,0,9,9,9,0,0,,,,,,,2,0,2,0,0,27,27,11,,,,,,,,,,,,num_2,0.9096342999837361,num_2,0.5,0.6,0.5,0.9,19.10275,34.38495,return,1.8733714999980293,,,,,,,,,,,,,,,,,707,23,male,up_down_width,2024-05-22_15h44.00.859,exp1,2023.1.0,59.99415657354465,
,,,,,,,,,,,,,,,,5,8.6,9.3,10,10.7,11.4,0.7,0.1499999999999999,0.55,3.3499999999999996,10,initial,36.05,310,335,361,386,411,9,9,9,9,9,,,,,,,2,0,2,0,0,28,28,40,,,,,,,,,,,,num_4,1.2373393999878317,num_4,0.3,1.0,0.49999999999999994,0.7,19.10275,26.74385,return,2.9596843000035733,,,,,,,,,,,,,,,,,707,23,male,up_down_width,2024-05-22_15h44.00.859,exp1,2023.1.0,59.99415657354465,
,,,,,,,,,,,,,,,,4,8.35,9.45,10.55,11.65,0,1.1,0.55,0.55,3.8500000000000005,10,initial,36.05,301,341,380,420,0,9,9,9,9,0,,,,,,,2,0,2,0,0,29,29,17,,,,,,,,,,,,num_5,3.4455458999727853,num_5,0.5,0.6,0.5,0.8,19.10275,30.5644,return,2.612726700026542,,,,,,,,,,,,,,,,,707,23,male,up_down_width,2024-05-22_15h44.00.859,exp1,2023.1.0,59.99415657354465,
,,,,,,,,,,,,,,,,3,8.9,10,11.1,0,0,1.1,0.7000000000000001,0.4,2.6000000000000005,10,initial,36.05,321,361,400,0,0,9,9,9,0,0,,,,,,,2,0,2,0,0,30,30,4,,,,,,,,,,,,num_2,1.119412400003057,num_2,0.3,1.2,0.3,0.9,11.46165,34.38495,return,3.918492899974808,,,,,,,,,,,,,,,,,707,23,male,up_down_width,2024-05-22_15h44.00.859,exp1,2023.1.0,59.99415657354465,
,,,,,,,,,,,,,,,,4,9.1,9.7,10.3,10.9,0,0.5999999999999999,0.3499999999999999,0.25,2.05,10,match,36.05,328,350,371,393,0,9,9,9,9,0,,,,,,,2,0,2,0,0,31,31,14,,,,,,,,,,,,num_3,1.1922381999902427,num_3,0.2,0.6,0.2,0.75,7.6411,28.65413,return,1.9722856999724172,,,,,,,,,,,,,,,,,707,23,male,up_down_width,2024-05-22_15h44.00.859,exp1,2023.1.0,59.99415657354465,
,,,,,,,,,,,,,,,,4,8.95,9.65,10.35,11.05,0,0.7,0.1499999999999999,0.55,2.65,10,initial,36.05,323,348,373,398,0,9,9,9,9,0,,,,,,,2,0,2,0,0,32,32,23,,,,,,,,,,,,num_3,1.0899362999480218,num_3,0.55,0.7,0.55,0.7,21.01303,26.74385,return,0.7243196999770589,,,,,,,,,,,,,,,,,707,23,male,up_down_width,2024-05-22_15h44.00.859,exp1,2023.1.0,59.99415657354465,
,,,,,,,,,,,,,,,,4,8.9,9.633333333333333,10.366666666666667,11.1,0,0.7333333333333333,0.18333333333333326,0.55,2.75,10,match,36.05,321,347,374,400,0,9,9,9,9,0,,,,,,,2,0,2,0,0,33,33,1,,,,,,,,,,,,num_3,0.884991800005082,num_3,0.4,1.1,0.4,0.55,15.2822,21.01303,return,3.9516335999942385,,,,,,,,,,,,,,,,,707,23,male,up_down_width,2024-05-22_15h44.00.859,exp1,2023.1.0,59.99415657354465,
,,,,,,,,,,,,,,,,4,8.65,9.55,10.45,11.35,0,0.9,0.35,0.55,3.25,10,initial,36.05,312,344,377,409,0,9,9,9,9,0,,,,,,,2,0,2,0,0,34,34,28,,,,,,,,,,,,num_3,0.9910836000344716,num_3,0.2,1.3,0.49999999999999994,0.8,19.10275,30.5644,return,4.807355600001756,,,,,,,,,,,,,,,,,707,23,male,up_down_width,2024-05-22_15h44.00.859,exp1,2023.1.0,59.99415657354465,
,,,,,,,,,,,,,,,,4,8.825,9.608333333333333,10.391666666666667,11.175,0,0.7833333333333333,0.5333333333333333,0.25,2.6,10,match,36.05,318,346,375,403,0,9,9,9,9,0,,,,,,,2,0,2,0,0,35,35,5,,,,,,,,,,,,num_3,1.3271765999961644,num_3,0.3,0.7,0.2,0.9,7.6411,34.38495,return,3.001133400015533,,,,,,,,,,,,,,,,,707,23,male,up_down_width,2024-05-22_15h44.00.859,exp1,2023.1.0,59.99415657354465,
,,,,,,,,,,,,,,,,4,9.1,9.7,10.3,10.9,0,0.6000000000000001,0.20000000000000004,0.4,2.2,10,match,36.05,328,350,371,393,0,9,9,9,9,0,,,,,,,2,0,2,0,0,36,36,16,,,,,,,,,,,,num_4,0.9936586000258103,num_4,0.3,1.1,0.3,0.6,11.46165,22.9233,return,1.5409326999797486,,,,,,,,,,,,,,,,,707,23,male,up_down_width,2024-05-22_15h44.00.859,exp1,2023.1.0,59.99415657354465,
,,,,,,,,,,,,,,,,4,8.35,9.45,10.55,11.65,0,1.1,0.8500000000000001,0.25,3.5500000000000003,10,initial,36.05,301,341,380,420,0,9,9,9,9,0,,,,,,,2,0,2,0,0,37,37,19,,,,,,,,,,,,num_3,1.0378987999865785,num_3,0.2,1.3,0.2,1.1,7.6411,42.02605,return,1.6642363999853842,,,,,,,,,,,,,,,,,707,23,male,up_down_width,2024-05-22_15h44.00.859,exp1,2023.1.0,59.99415657354465,
,,,,,,,,,,,,,,,,5,8.6,9.3,10,10.7,11.4,0.7,0.44999999999999996,0.25,3.05,10,initial,36.05,310,335,361,386,411,9,9,9,9,9,,,,,,,2,0,2,0,0,38,38,42,,,,,,,,,,,,num_5,1.0913236999767832,num_5,0.2,0.9,0.2,0.75,7.6411,28.65413,return,1.02646880003158,,,,,,,,,,,,,,,,,707,23,male,up_down_width,2024-05-22_15h44.00.859,exp1,2023.1.0,59.99415657354465,
,,,,,,,,,,,,,,,,3,9.1,10,10.9,0,0,0.9,0.65,0.25,2.05,10,initial,36.05,328,361,393,0,0,9,9,9,0,0,,,,,,,2,0,2,0,0,39,39,13,,,,,,,,,,,,num_3,0.9286512000253424,num_3,0.25,1.1,0.25,1.05,9.55138,40.11578,return,0.6991965000052005,,,,,,,,,,,,,,,,,707,23,male,up_down_width,2024-05-22_15h44.00.859,exp1,2023.1.0,59.99415657354465,
,,,,,,,,,,,,,,,,3,8.2,10,11.8,0,0,1.8,1.25,0.55,4.15,10,match,36.05,296,361,425,0,0,9,9,9,0,0,,,,,,,2,0,2,0,0,40,40,47,,,,,,,,,,,,num_2,0.8606635999749415,num_2,0.3,1.0,0.3,2.1,11.46165,80.23156,return,2.665005300019402,,,,,,,,,,,,,,,,,707,23,male,up_down_width,2024-05-22_15h44.00.859,exp1,2023.1.0,59.99415657354465,
,,,,,,,,,,,,,,,,5,8.2,9.1,10,10.9,11.8,0.9,0.65,0.25,3.85,10,initial,36.05,296,328,361,393,425,9,9,9,9,9,,,,,,,2,0,2,0,0,41,41,48,,,,,,,,,,,,num_4,0.9491606999654323,num_4,0.25,1.3,0.25,1.0,9.55138,38.2055,return,0.9742619000026025,,,,,,,,,,,,,,,,,707,23,male,up_down_width,2024-05-22_15h44.00.859,exp1,2023.1.0,59.99415657354465,
,,,,,,,,,,,,,,,,4,9.3,9.766666666666667,10.233333333333333,10.7,0,0.4666666666666667,0.06666666666666665,0.4,1.8,10,match,36.05,335,352,369,386,0,9,9,9,9,0,,,,,,,2,0,2,0,0,42,42,10,,,,,,,,,,,,num_4,1.0968503000331111,num_4,0.35,0.7,0.35,0.5,13.37193,19.10275,return,1.39770229998976,,,,,,,,,,,,,,,,,707,23,male,up_down_width,2024-05-22_15h44.00.859,exp1,2023.1.0,59.99415657354465,
,,,,,,,,,,,,,,,,3,7.8,10,12.2,0,0,2.2,1.9500000000000002,0.25,4.65,10,match,36.05,281,361,440,0,0,9,9,9,0,0,,,,,,,2,0,2,0,0,43,43,37,,,,,,,,,,,,num_2,0.8747339000110514,num_2,0.25,0.8,0.25,2.9,9.55138,110.79596,return,3.78307590004988,,,,,,,,,,,,,,,,,707,23,male,up_down_width,2024-05-22_15h44.00.859,exp1,2023.1.0,59.99415657354465,
,,,,,,,,,,,,,,,,3,7.8,10,12.2,0,0,2.2,1.65,0.55,4.95,10,match,36.05,281,361,440,0,0,9,9,9,0,0,,,,,,,2,0,2,0,0,44,44,35,,,,,,,,,,,,num_2,0.8826463000150397,num_2,0.25,1.0,0.3,2.2,11.46165,84.05211,return,2.9079561000107788,,,,,,,,,,,,,,,,,707,23,male,up_down_width,2024-05-22_15h44.00.859,exp1,2023.1.0,59.99415657354465,
,,,,,,,,,,,,,,,,3,8.6,10,11.4,0,0,1.4,1.15,0.25,3.05,10,match,36.05,310,361,411,0,0,9,9,9,0,0,,,,,,,2,0,2,0,0,45,45,43,,,,,,,,,,,,num_2,0.890969900006894,num_2,0.2,0.4,0.2,2.0,7.6411,76.41101,return,3.2500904999906197,,,,,,,,,,,,,,,,,707,23,male,up_down_width,2024-05-22_15h44.00.859,exp1,2023.1.0,59.99415657354465,
,,,,,,,,,,,,,,,,5,8.95,9.475,10,10.525,11.05,0.525,0.275,0.25,2.35,10,match,36.05,323,342,361,379,398,9,9,9,9,9,,,,,,,2,0,2,0,0,46,46,25,,,,,,,,,,,,num_4,0.9080645000212826,num_4,0.3,1.3,0.3,0.8,11.46165,30.5644,return,1.6159562999964692,,,,,,,,,,,,,,,,,707,23,male,up_down_width,2024-05-22_15h44.00.859,exp1,2023.1.0,59.99415657354465,
,,,,,,,,,,,,,,,,4,8.35,9.45,10.55,11.65,0,1.1,0.7000000000000001,0.4,3.7,10,initial,36.05,301,341,380,420,0,9,9,9,9,0,,,,,,,2,0,2,0,0,47,47,21,,,,,,,,,,,,num_3,1.0159207999822684,num_3,0.35,0.9,0.35,1.05,13.37193,40.11578,return,1.576390200003516,,,,,,,,,,,,,,,,,707,23,male,up_down_width,2024-05-22_15h44.00.859,exp1,2023.1.0,59.99415657354465,
,,,,,,,,,,,,,,,,5,8.35,9.175,10,10.825,11.65,0.8250000000000001,0.275,0.55,3.85,10,match,36.05,301,331,361,390,420,9,9,9,9,9,,,,,,,2,0,2,0,0,48,48,18,,,,,,,,,,,,num_5,1.1870680000283755,num_5,0.2,1.3,0.3,0.75,11.46165,28.65413,return,5.66593139996985,,,,,,,,,,,,,,,,,707,23,male,up_down_width,2024-05-22_15h44.00.859,exp1,2023.1.0,59.99415657354465,
,,,,,,,,,,,,,,,,5,7.8,8.9,10,11.1,12.2,1.1,0.8500000000000001,0.25,4.65,10,initial,36.05,281,321,361,400,440,9,9,9,9,9,,,,,,,2,0,2,0,0,49,49,36,,,,,,,,,,,,num_5,2.0085898999823257,num_5,0.4,0.7,0.30000000000000004,0.65,11.46165,24.83358,return,3.583532099961303,,,,,,,,,,,,,,,,,707,23,male,up_down_width,2024-05-22_15h44.00.859,exp1,2023.1.0,59.99415657354465,
,,,,,,,,,,,,,,,,5,8.65,9.325,10,10.675,11.35,0.675,0.275,0.4,3.1,10,match,36.05,312,336,361,385,409,9,9,9,9,9,,,,,,,2,0,2,0,0,50,50,33,,,,,,,,,,,,num_5,1.0488828000379726,num_5,0.4,0.9,0.4,0.8,15.2822,30.5644,return,0.9068763999966905,,,,,,,,,,,,,,,,,707,23,male,up_down_width,2024-05-22_15h44.00.859,exp1,2023.1.0,59.99415657354465,
,,,,,,,,,,,,,,,,4,8.9,9.633333333333333,10.366666666666667,11.1,0,0.7333333333333334,0.4833333333333334,0.25,2.45,10,match,36.05,321,347,374,400,0,9,9,9,9,0,,,,,,,2,0,2,0,0,51,51,3,,,,,,,,,,,,num_3,1.2330577000393532,num_3,0.2,0.7,0.2,0.9,7.6411,34.38495,return,1.30946610000683,,,,,,,,,,,,,,,,,707,23,male,up_down_width,2024-05-22_15h44.00.859,exp1,2023.1.0,59.99415657354465,
,,,,,,,,,,,,,,,,,,,,,,,,,,,,,,,,,,,,,,,,,,,,,2,0,2,0,,,,,,,,,,,,,,,,,,,,,,,,,,,,,1709.877230699989,1709.877230699989,1709.877230699989,,,,,,,,,,,,707,23,male,up_down_width,2024-05-22_15h44.00.859,exp1,2023.1.0,59.99415657354465,
,,,,,,,,,,,,,,,,4,8.65,9.55,10.45,11.35,0,0.9,0.35,0.55,3.25,10,initial,36.05,312,344,377,409,0,9,9,9,9,0,,,,,,,3,0,3,0,0,0,0,28,,,,,,,,,,,,num_4,3.591396900010295,num_4,0.25,1.2,0.39999999999999997,0.8,15.2822,30.5644,return,3.7773154000169598,,,,,,,,,,,,,,,,,707,23,male,up_down_width,2024-05-22_15h44.00.859,exp1,2023.1.0,59.99415657354465,
,,,,,,,,,,,,,,,,4,9.3,9.766666666666667,10.233333333333333,10.7,0,0.4666666666666667,0.06666666666666665,0.4,1.8,10,match,36.05,335,352,369,386,0,9,9,9,9,0,,,,,,,3,0,3,0,0,1,1,10,,,,,,,,,,,,num_4,3.7782998000038788,num_4,0.2,0.8,0.44999999999999996,0.7,17.19248,26.74385,return,3.5621608000365086,,,,,,,,,,,,,,,,,707,23,male,up_down_width,2024-05-22_15h44.00.859,exp1,2023.1.0,59.99415657354465,
,,,,,,,,,,,,,,,,4,9.1,9.7,10.3,10.9,0,0.6,0.04999999999999997,0.55,2.35,10,match,36.05,328,350,371,393,0,9,9,9,9,0,,,,,,,3,0,3,0,0,2,2,12,,,,,,,,,,,,num_5,1.3434133999980986,num_5,0.5,0.6,0.5,0.6,19.10275,22.9233,return,1.4930564999813214,,,,,,,,,,,,,,,,,707,23,male,up_down_width,2024-05-22_15h44.00.859,exp1,2023.1.0,59.99415657354465,
,,,,,,,,,,,,,,,,5,8.2,9.1,10,10.9,11.8,0.9,0.5,0.4,4,10,initial,36.05,296,328,361,393,425,9,9,9,9,9,,,,,,,3,0,3,0,0,3,3,50,,,,,,,,,,,,num_5,1.3660139000276104,num_5,0.3,0.7,0.3,0.7,11.46165,26.74385,return,1.1652820000308566,,,,,,,,,,,,,,,,,707,23,male,up_down_width,2024-05-22_15h44.00.859,exp1,2023.1.0,59.99415657354465,
,,,,,,,,,,,,,,,,5,7.8,8.9,10,11.1,12.2,1.1,0.7000000000000001,0.4,4.800000000000001,10,initial,36.05,281,321,361,400,440,9,9,9,9,9,,,,,,,3,0,3,0,0,4,4,38,,,,,,,,,,,,num_5,1.303883099986706,num_5,0.25,0.7,0.25,0.7,9.55138,26.74385,return,0.7199629999813624,,,,,,,,,,,,,,,,,707,23,male,up_down_width,2024-05-22_15h44.00.859,exp1,2023.1.0,59.99415657354465,
,,,,,,,,,,,,,,,,3,9.1,10,10.9,0,0,0.9,0.35,0.55,2.35,10,initial,36.05,328,361,393,0,0,9,9,9,0,0,,,,,,,3,0,3,0,0,5,5,11,,,,,,,,,,,,num_3,1.0057206999626942,num_3,0.35,1,0.44999999999999996,0.95,17.19248,36.29523,return,1.9718645000248216,,,,,,,,,,,,,,,,,707,23,male,up_down_width,2024-05-22_15h44.00.859,exp1,2023.1.0,59.99415657354465,
,,,,,,,,,,,,,,,,4,9.1,9.7,10.3,10.9,0,0.6000000000000001,0.20000000000000004,0.4,2.2,10,match,36.05,328,350,371,393,0,9,9,9,9,0,,,,,,,3,0,3,0,0,6,6,16,,,,,,,,,,,,num_3,0.9584194000344723,num_3,0.45,1.1,0.45,0.65,17.19248,24.83358,return,2.7360243999864906,,,,,,,,,,,,,,,,,707,23,male,up_down_width,2024-05-22_15h44.00.859,exp1,2023.1.0,59.99415657354465,
,,,,,,,,,,,,,,,,5,8.65,9.325,10,10.675,11.35,0.675,0.275,0.4,3.1,10,match,36.05,312,336,361,385,409,9,9,9,9,9,,,,,,,3,0,3,0,0,7,7,33,,,,,,,,,,,,num_5,1.8513432000181638,num_5,0.2,0.5,0.35,0.6,13.37193,22.9233,return,1.8884285999811254,,,,,,,,,,,,,,,,,707,23,male,up_down_width,2024-05-22_15h44.00.859,exp1,2023.1.0,59.99415657354465,
,,,,,,,,,,,,,,,,5,8.6,9.3,10,10.7,11.4,0.7,0.1499999999999999,0.55,3.3499999999999996,10,initial,36.05,310,335,361,386,411,9,9,9,9,9,,,,,,,3,0,3,0,0,8,8,40,,,,,,,,,,,,num_4,0.9626407999894582,num_4,0.35,0.4,0.35,0.6,13.37193,22.9233,return,1.3856913999770768,,,,,,,,,,,,,,,,,707,23,male,up_down_width,2024-05-22_15h44.00.859,exp1,2023.1.0,59.99415657354465,
,,,,,,,,,,,,,,,,5,8.35,9.175,10,10.825,11.65,0.8250000000000001,0.275,0.55,3.85,10,match,36.05,301,331,361,390,420,9,9,9,9,9,,,,,,,3,0,3,0,0,9,9,18,,,,,,,,,,,,num_5,1.025347499991767,num_5,0.5,1.0,0.5,0.75,19.10275,28.65413,return,1.9540256999898702,,,,,,,,,,,,,,,,,707,23,male,up_down_width,2024-05-22_15h44.00.859,exp1,2023.1.0,59.99415657354465,
,,,,,,,,,,,,,,,,4,8.9,9.633333333333333,10.366666666666667,11.1,0,0.7333333333333334,0.4833333333333334,0.25,2.45,10,match,36.05,321,347,374,400,0,9,9,9,9,0,,,,,,,3,0,3,0,0,10,10,3,,,,,,,,,,,,num_3,1.0330415000207722,num_3,0.25,0.9,0.25,0.7,9.55138,26.74385,return,2.368125399982091,,,,,,,,,,,,,,,,,707,23,male,up_down_width,2024-05-22_15h44.00.859,exp1,2023.1.0,59.99415657354465,
,,,,,,,,,,,,,,,,5,8.95,9.475,10,10.525,11.05,0.525,0.275,0.25,2.35,10,match,36.05,323,342,361,379,398,9,9,9,9,9,,,,,,,3,0,3,0,0,11,11,25,,,,,,,,,,,,num_4,1.0927422000095248,num_4,0.25,0.7,0.25,0.5,9.55138,19.10275,return,1.9743493999703787,,,,,,,,,,,,,,,,,707,23,male,up_down_width,2024-05-22_15h44.00.859,exp1,2023.1.0,59.99415657354465,
,,,,,,,,,,,,,,,,5,8.95,9.475,10,10.525,11.05,0.525,0.125,0.4,2.5,10,match,36.05,323,342,361,379,398,9,9,9,9,9,,,,,,,3,0,3,0,0,12,12,27,,,,,,,,,,,,num_5,0.9656460999976844,num_5,0.35,0.6,0.35,0.5,13.37193,19.10275,return,1.2561513999826275,,,,,,,,,,,,,,,,,707,23,male,up_down_width,2024-05-22_15h44.00.859,exp1,2023.1.0,59.99415657354465,
,,,,,,,,,,,,,,,,5,8.2,9.1,10,10.9,11.8,0.9,0.65,0.25,3.85,10,initial,36.05,296,328,361,393,425,9,9,9,9,9,,,,,,,3,0,3,0,0,13,13,48,,,,,,,,,,,,num_5,1.0011845999979414,num_5,0.25,0.7,0.25,0.75,9.55138,28.65413,return,1.0401042000157759,,,,,,,,,,,,,,,,,707,23,male,up_down_width,2024-05-22_15h44.00.859,exp1,2023.1.0,59.99415657354465,
,,,,,,,,,,,,,,,,3,7.8,10,12.2,0,0,2.2,1.65,0.55,4.95,10,match,36.05,281,361,440,0,0,9,9,9,0,0,,,,,,,3,0,3,0,0,14,14,35,,,,,,,,,,,,num_2,1.309900699998252,num_2,0.3,1.6,0.3,2.0,11.46165,76.41101,return,1.110005300026387,,,,,,,,,,,,,,,,,707,23,male,up_down_width,2024-05-22_15h44.00.859,exp1,2023.1.0,59.99415657354465,
,,,,,,,,,,,,,,,,4,8.95,9.65,10.35,11.05,0,0.7,0.44999999999999996,0.25,2.3499999999999996,10,initial,36.05,323,348,373,398,0,9,9,9,9,0,,,,,,,3,0,3,0,0,15,15,24,,,,,,,,,,,,num_2,1.1195756000233814,num_2,0.4,1.0,0.4,1.8,15.2822,68.76991,return,1.7462945000152104,,,,,,,,,,,,,,,,,707,23,male,up_down_width,2024-05-22_15h44.00.859,exp1,2023.1.0,59.99415657354465,
,,,,,,,,,,,,,,,,5,7.8,8.9,10,11.1,12.2,1.1,0.8500000000000001,0.25,4.65,10,initial,36.05,281,321,361,400,440,9,9,9,9,9,,,,,,,3,0,3,0,0,16,16,36,,,,,,,,,,,,num_4,1.3661279000225477,num_4,0.45,0.8,0.35000000000000003,1.3,13.37193,49.66716,return,2.062430799996946,,,,,,,,,,,,,,,,,707,23,male,up_down_width,2024-05-22_15h44.00.859,exp1,2023.1.0,59.99415657354465,
,,,,,,,,,,,,,,,,3,9.1,10,10.9,0,0,0.9,0.5,0.4,2.2,10,initial,36.05,328,361,393,0,0,9,9,9,0,0,,,,,,,3,0,3,0,0,17,17,15,,,,,,,,,,,,num_2,0.8890524000162259,num_2,0.4,1.4,0.4,1.4,15.2822,53.48771,return,0.9159314999706112,,,,,,,,,,,,,,,,,707,23,male,up_down_width,2024-05-22_15h44.00.859,exp1,2023.1.0,59.99415657354465,
,,,,,,,,,,,,,,,,3,8.525,10,11.475,0,0,1.475,1.225,0.25,3.2,10,match,36.05,307,361,414,0,0,9,9,9,0,0,,,,,,,3,0,3,0,0,18,18,45,,,,,,,,,,,,num_2,0.8926636999822222,num_2,0.45,0.8,0.25000000000000006,1.8,9.55138,68.76991,return,3.240204800036736,,,,,,,,,,,,,,,,,707,23,male,up_down_width,2024-05-22_15h44.00.859,exp1,2023.1.0,59.99415657354465,
,,,,,,,,,,,,,,,,4,8.35,9.45,10.55,11.65,0,1.1,0.8500000000000001,0.25,3.5500000000000003,10,initial,36.05,301,341,380,420,0,9,9,9,9,0,,,,,,,3,0,3,0,0,19,19,19,,,,,,,,,,,,num_2,0.7712386000202969,num_2,0.2,1.4,0.15000000000000002,1.7,5.73083,64.94936,return,1.3326356000034139,,,,,,,,,,,,,,,,,707,23,male,up_down_width,2024-05-22_15h44.00.859,exp1,2023.1.0,59.99415657354465,
,,,,,,,,,,,,,,,,4,8.95,9.65,10.35,11.05,0,0.7,0.1499999999999999,0.55,2.65,10,initial,36.05,323,348,373,398,0,9,9,9,9,0,,,,,,,3,0,3,0,0,20,20,23,,,,,,,,,,,,num_3,0.8658820000127889,num_3,0.55,0.7,0.55,0.7,21.01303,26.74385,return,0.5735936000128277,,,,,,,,,,,,,,,,,707,23,male,up_down_width,2024-05-22_15h44.00.859,exp1,2023.1.0,59.99415657354465,
,,,,,,,,,,,,,,,,4,8.9,9.633333333333333,10.366666666666667,11.1,0,0.7333333333333333,0.18333333333333326,0.55,2.75,10,match,36.05,321,347,374,400,0,9,9,9,9,0,,,,,,,3,0,3,0,0,21,21,1,,,,,,,,,,,,num_3,0.9123196000000462,num_3,0.45,0.8,0.45,0.8,17.19248,30.5644,return,0.3145174999954179,,,,,,,,,,,,,,,,,707,23,male,up_down_width,2024-05-22_15h44.00.859,exp1,2023.1.0,59.99415657354465,
,,,,,,,,,,,,,,,,3,7.800000000000001,10,12.2,0,0,2.1999999999999997,1.7999999999999998,0.4,4.8,10,match,36.05,281,361,440,0,0,9,9,9,0,0,,,,,,,3,0,3,0,0,22,22,39,,,,,,,,,,,,num_2,0.7914755999809131,num_2,0.5,1.6,0.5,2.9,19.10275,110.79596,return,2.564264499989804,,,,,,,,,,,,,,,,,707,23,male,up_down_width,2024-05-22_15h44.00.859,exp1,2023.1.0,59.99415657354465,
,,,,,,,,,,,,,,,,4,8.35,9.45,10.55,11.65,0,1.1,0.7000000000000001,0.4,3.7,10,initial,36.05,301,341,380,420,0,9,9,9,9,0,,,,,,,3,0,3,0,0,23,23,21,,,,,,,,,,,,num_2,0.8325033999863081,num_2,0.55,0.6,0.55,1.4,21.01303,53.48771,return,1.6916070000152104,,,,,,,,,,,,,,,,,707,23,male,up_down_width,2024-05-22_15h44.00.859,exp1,2023.1.0,59.99415657354465,
,,,,,,,,,,,,,,,,5,8.65,9.325,10,10.675,11.35,0.675,0.42500000000000004,0.25,2.95,10,match,36.05,312,336,361,385,409,9,9,9,9,9,,,,,,,3,0,3,0,0,24,24,31,,,,,,,,,,,,num_3,0.8091991000110283,num_3,0.4,0.6,0.4,1.0,15.2822,38.2055,return,1.6314767000149004,,,,,,,,,,,,,,,,,707,23,male,up_down_width,2024-05-22_15h44.00.859,exp1,2023.1.0,59.99415657354465,
,,,,,,,,,,,,,,,,3,9.1,10,10.9,0,0,0.9,0.65,0.25,2.05,10,initial,36.05,328,361,393,0,0,9,9,9,0,0,,,,,,,3,0,3,0,0,25,25,13,,,,,,,,,,,,num_2,0.776458400010597,num_2,0.25,1.4,0.25,1.7,9.55138,64.94936,return,0.7408659000066109,,,,,,,,,,,,,,,,,707,23,male,up_down_width,2024-05-22_15h44.00.859,exp1,2023.1.0,59.99415657354465,
,,,,,,,,,,,,,,,,4,8.825,9.608333333333333,10.391666666666667,11.175,0,0.7833333333333333,0.5333333333333333,0.25,2.6,10,match,36.05,318,346,375,403,0,9,9,9,9,0,,,,,,,3,0,3,0,0,26,26,5,,,,,,,,,,,,num_3,0.8721365000237711,num_3,0.45,1.1,0.45,1.35,17.19248,51.57743,return,1.101643999980297,,,,,,,,,,,,,,,,,707,23,male,up_down_width,2024-05-22_15h44.00.859,exp1,2023.1.0,59.99415657354465,
,,,,,,,,,,,,,,,,3,8.6,10,11.4,0,0,1.4,1.15,0.25,3.05,10,match,36.05,310,361,411,0,0,9,9,9,0,0,,,,,,,3,0,3,0,0,27,27,43,,,,,,,,,,,,num_2,0.7249866999918595,num_2,0.25,0.8,0.25,2.1,9.55138,80.23156,return,2.608743599965237,,,,,,,,,,,,,,,,,707,23,male,up_down_width,2024-05-22_15h44.00.859,exp1,2023.1.0,59.99415657354465,
,,,,,,,,,,,,,,,,3,9.3,10,10.7,0,0,0.7,0.29999999999999993,0.4,1.8,10,initial,36.05,335,361,386,0,0,9,9,9,0,0,,,,,,,3,0,3,0,0,28,28,9,,,,,,,,,,,,num_2,1.008064399997238,num_2,0.55,0.8,0.55,0.8,21.01303,30.5644,return,0.4061103999847546,,,,,,,,,,,,,,,,,707,23,male,up_down_width,2024-05-22_15h44.00.859,exp1,2023.1.0,59.99415657354465,
,,,,,,,,,,,,,,,,3,8.9,10,11.1,0,0,1.1,0.55,0.55,2.75,10,initial,36.05,321,361,400,0,0,9,9,9,0,0,,,,,,,3,0,3,0,0,29,29,0,,,,,,,,,,,,num_2,0.8074094000039622,num_2,0.55,0.8,0.55,1.1,21.01303,42.02605,return,0.8810019000084139,,,,,,,,,,,,,,,,,707,23,male,up_down_width,2024-05-22_15h44.00.859,exp1,2023.1.0,59.99415657354465,
,,,,,,,,,,,,,,,,3,7.8,10,12.2,0,0,2.2,1.9500000000000002,0.25,4.65,10,match,36.05,281,361,440,0,0,9,9,9,0,0,,,,,,,3,0,3,0,0,30,30,37,,,,,,,,,,,,num_2,0.7582391999894753,num_2,0.35,1.2,0.35,2.7,13.37193,103.15486,return,2.70963259995915,,,,,,,,,,,,,,,,,707,23,male,up_down_width,2024-05-22_15h44.00.859,exp1,2023.1.0,59.99415657354465,
,,,,,,,,,,,,,,,,5,8.35,9.175,10,10.825,11.65,0.825,0.575,0.25,3.55,10,match,36.05,301,331,361,390,420,9,9,9,9,9,,,,,,,3,0,3,0,0,31,31,20,,,,,,,,,,,,num_3,0.7965179000166245,num_3,0.25,0.7,0.25,1.1,9.55138,42.02605,return,1.51181410002755,,,,,,,,,,,,,,,,,707,23,male,up_down_width,2024-05-22_15h44.00.859,exp1,2023.1.0,59.99415657354465,
,,,,,,,,,,,,,,,,3,8.2,10,11.8,0,0,1.8,1.55,0.25,3.85,10,match,36.05,296,361,425,0,0,9,9,9,0,0,,,,,,,3,0,3,0,0,32,32,49,,,,,,,,,,,,num_2,0.6747504999511875,num_2,0.45,1.6,0.45,2.3,17.19248,87.87266,return,1.3954425000119954,,,,,,,,,,,,,,,,,707,23,male,up_down_width,2024-05-22_15h44.00.859,exp1,2023.1.0,59.99415657354465,
,,,,,,,,,,,,,,,,4,9.1,9.7,10.3,10.9,0,0.5999999999999999,0.3499999999999999,0.25,2.05,10,match,36.05,328,350,371,393,0,9,9,9,9,0,,,,,,,3,0,3,0,0,33,33,14,,,,,,,,,,,,num_3,0.9139518000301905,num_3,0.35,0.8,0.25,0.65,9.55138,24.83358,return,2.4767255000188015,,,,,,,,,,,,,,,,,707,23,male,up_down_width,2024-05-22_15h44.00.859,exp1,2023.1.0,59.99415657354465,
,,,,,,,,,,,,,,,,5,8.6,9.3,10,10.7,11.4,0.7,0.44999999999999996,0.25,3.05,10,initial,36.05,310,335,361,386,411,9,9,9,9,9,,,,,,,3,0,3,0,0,34,34,42,,,,,,,,,,,,num_5,1.1862938000122085,num_5,0.55,0.8,0.35000000000000003,0.7,13.37193,26.74385,return,2.673473400005605,,,,,,,,,,,,,,,,,707,23,male,up_down_width,2024-05-22_15h44.00.859,exp1,2023.1.0,59.99415657354465,
,,,,,,,,,,,,,,,,3,8.6,10,11.4,0,0,1.4,0.85,0.55,3.35,10,match,36.05,310,361,411,0,0,9,9,9,0,0,,,,,,,3,0,3,0,0,35,35,41,,,,,,,,,,,,num_2,0.7887177999946289,num_2,0.5,1.4,0.5,1.8,19.10275,68.76991,return,0.9757504999870434,,,,,,,,,,,,,,,,,707,23,male,up_down_width,2024-05-22_15h44.00.859,exp1,2023.1.0,59.99415657354465,
,,,,,,,,,,,,,,,,3,8.9,10,11.1,0,0,1.1,0.8500000000000001,0.25,2.45,10,initial,36.05,321,361,400,0,0,9,9,9,0,0,,,,,,,3,0,3,0,0,36,36,2,,,,,,,,,,,,num_2,0.7654586999560706,num_2,0.2,1.0,0.15000000000000002,0.9,5.73083,34.38495,return,2.3656642000423744,,,,,,,,,,,,,,,,,707,23,male,up_down_width,2024-05-22_15h44.00.859,exp1,2023.1.0,59.99415657354465,
,,,,,,,,,,,,,,,,3,9.3,10,10.7,0,0,0.7,0.44999999999999996,0.25,1.65,10,initial,36.05,335,361,386,0,0,9,9,9,0,0,,,,,,,3,0,3,0,0,37,37,7,,,,,,,,,,,,num_2,0.8231910999747925,num_2,0.45,1.2,0.45,1.2,17.19248,45.8466,return,0.40417240001261234,,,,,,,,,,,,,,,,,707,23,male,up_down_width,2024-05-22_15h44.00.859,exp1,2023.1.0,59.99415657354465,
,,,,,,,,,,,,,,,,4,8.65,9.55,10.45,11.35,0,0.9,0.5,0.4,3.1,10,initial,36.05,312,344,377,409,0,9,9,9,9,0,,,,,,,3,0,3,0,0,38,38,32,,,,,,,,,,,,num_3,0.775995000032708,num_3,0.4,0.6,0.4,0.95,15.2822,36.29523,return,1.7163044000044465,,,,,,,,,,,,,,,,,707,23,male,up_down_width,2024-05-22_15h44.00.859,exp1,2023.1.0,59.99415657354465,
,,,,,,,,,,,,,,,,5,7.8,8.9,10,11.1,12.2,1.1,0.55,0.55,4.95,10,initial,36.05,281,321,361,400,440,9,9,9,9,9,,,,,,,3,0,3,0,0,39,39,34,,,,,,,,,,,,num_5,0.9920389000326395,num_5,0.5,1.1,0.5,1.15,19.10275,43.93633,return,1.4309858999913558,,,,,,,,,,,,,,,,,707,23,male,up_down_width,2024-05-22_15h44.00.859,exp1,2023.1.0,59.99415657354465,
,,,,,,,,,,,,,,,,5,8.275,9.1375,10,10.8625,11.725,0.8625,0.6125,0.25,3.7,10,match,36.05,298,329,361,392,423,9,9,9,9,9,,,,,,,3,0,3,0,0,40,40,22,,,,,,,,,,,,num_5,0.9513057000003755,num_5,0.35,0.6,0.35,0.85,13.37193,32.47468,return,1.6555074999923818,,,,,,,,,,,,,,,,,707,23,male,up_down_width,2024-05-22_15h44.00.859,exp1,2023.1.0,59.99415657354465,
,,,,,,,,,,,,,,,,3,8.9,10,11.1,0,0,1.1,0.7000000000000001,0.4,2.6000000000000005,10,initial,36.05,321,361,400,0,0,9,9,9,0,0,,,,,,,3,0,3,0,0,41,41,4,,,,,,,,,,,,num_2,1.2063448000117205,num_2,0.35,1.0,0.35,1.2,13.37193,45.8466,return,0.724253399996087,,,,,,,,,,,,,,,,,707,23,male,up_down_width,2024-05-22_15h44.00.859,exp1,2023.1.0,59.99415657354465,
,,,,,,,,,,,,,,,,3,9.3,10,10.7,0,0,0.7,0.1499999999999999,0.55,1.95,10,initial,36.05,335,361,386,0,0,9,9,9,0,0,,,,,,,3,0,3,0,0,42,42,6,,,,,,,,,,,,num_2,0.7840499999583699,num_2,0.4,1.0,0.4,0.8,15.2822,30.5644,return,1.5970873999758624,,,,,,,,,,,,,,,,,707,23,male,up_down_width,2024-05-22_15h44.00.859,exp1,2023.1.0,59.99415657354465,
,,,,,,,,,,,,,,,,4,8.35,9.45,10.55,11.65,0,1.1,0.55,0.55,3.8500000000000005,10,initial,36.05,301,341,380,420,0,9,9,9,9,0,,,,,,,3,0,3,0,0,43,43,17,,,,,,,,,,,,num_5,1.218414800008759,num_5,0.25,0.7,0.25,0.8,9.55138,30.5644,return,1.13424230000237,,,,,,,,,,,,,,,,,707,23,male,up_down_width,2024-05-22_15h44.00.859,exp1,2023.1.0,59.99415657354465,
,,,,,,,,,,,,,,,,3,8.2,10,11.8,0,0,1.7999999999999998,1.4,0.4,4,10,match,36.05,296,361,425,0,0,9,9,9,0,0,,,,,,,3,0,3,0,0,44,44,51,,,,,,,,,,,,num_2,0.7689203000045381,num_2,0.4,1.2,0.4,1.8,15.2822,68.76991,return,1.2165303000365384,,,,,,,,,,,,,,,,,707,23,male,up_down_width,2024-05-22_15h44.00.859,exp1,2023.1.0,59.99415657354465,
,,,,,,,,,,,,,,,,5,8.65,9.325,10,10.675,11.35,0.675,0.125,0.55,3.25,10,match,36.05,312,336,361,385,409,9,9,9,9,9,,,,,,,3,0,3,0,0,45,45,29,,,,,,,,,,,,num_5,1.0159241000073962,num_5,0.2,1.2,0.3,0.6,11.46165,22.9233,return,5.59619999997085,,,,,,,,,,,,,,,,,707,23,male,up_down_width,2024-05-22_15h44.00.859,exp1,2023.1.0,59.99415657354465,
,,,,,,,,,,,,,,,,4,8.95,9.65,10.35,11.05,0,0.7,0.29999999999999993,0.4,2.5,10,initial,36.05,323,348,373,398,0,9,9,9,9,0,,,,,,,3,0,3,0,0,46,46,26,,,,,,,,,,,,num_3,1.068207699980121,num_3,0.4,1.1,0.4,0.6,15.2822,22.9233,return,2.8159378999844193,,,,,,,,,,,,,,,,,707,23,male,up_down_width,2024-05-22_15h44.00.859,exp1,2023.1.0,59.99415657354465,
,,,,,,,,,,,,,,,,3,8.2,10,11.8,0,0,1.8,1.25,0.55,4.15,10,match,36.05,296,361,425,0,0,9,9,9,0,0,,,,,,,3,0,3,0,0,47,47,47,,,,,,,,,,,,num_2,0.9600740000023507,num_2,0.55,1.2,0.55,2.1,21.01303,80.23156,return,2.4994702000403777,,,,,,,,,,,,,,,,,707,23,male,up_down_width,2024-05-22_15h44.00.859,exp1,2023.1.0,59.99415657354465,
,,,,,,,,,,,,,,,,4,8.65,9.55,10.45,11.35,0,0.9,0.65,0.25,2.95,10,initial,36.05,312,344,377,409,0,9,9,9,9,0,,,,,,,3,0,3,0,0,48,48,30,,,,,,,,,,,,num_3,1.06771909998497,num_3,0.3,1.1,0.3,1.15,11.46165,43.93633,return,0.9851124999695458,,,,,,,,,,,,,,,,,707,23,male,up_down_width,2024-05-22_15h44.00.859,exp1,2023.1.0,59.99415657354465,
,,,,,,,,,,,,,,,,5,8.6,9.3,10,10.7,11.4,0.7,0.29999999999999993,0.4,3.1999999999999997,10,initial,36.05,310,335,361,386,411,9,9,9,9,9,,,,,,,3,0,3,0,0,49,49,44,,,,,,,,,,,,num_4,1.1186387999914587,num_4,0.45,0.8,0.45,0.8,17.19248,30.5644,return,0.6662859999923967,,,,,,,,,,,,,,,,,707,23,male,up_down_width,2024-05-22_15h44.00.859,exp1,2023.1.0,59.99415657354465,
,,,,,,,,,,,,,,,,4,9.3,9.766666666666667,10.233333333333333,10.7,0,0.4666666666666667,0.21666666666666665,0.25,1.65,10,match,36.05,335,352,369,386,0,9,9,9,9,0,,,,,,,3,0,3,0,0,50,50,8,,,,,,,,,,,,num_3,0.8996075000031851,num_3,0.35,0.5,0.35,0.5,13.37193,19.10275,return,0.6155424999888055,,,,,,,,,,,,,,,,,707,23,male,up_down_width,2024-05-22_15h44.00.859,exp1,2023.1.0,59.99415657354465,
,,,,,,,,,,,,,,,,5,8.2,9.1,10,10.9,11.8,0.9,0.35,0.55,4.15,10,initial,36.05,296,328,361,393,425,9,9,9,9,9,,,,,,,3,0,3,0,0,51,51,46,,,,,,,,,,,,num_5,0.982750799972564,num_5,0.4,1.2,0.4,1.2,15.2822,45.8466,return,0.9380861999816261,,,,,,,,,,,,,,,,,707,23,male,up_down_width,2024-05-22_15h44.00.859,exp1,2023.1.0,59.99415657354465,
,,,,,,,,,,,,,,,,,,,,,,,,,,,,,,,,,,,,,,,,,,,,,3,0,3,0,,,,,,,,,,,,,,,,,,,,,,,,,,,,,1951.527347300027,1951.527347300027,1951.527347300027,,,,,,,,,,,,707,23,male,up_down_width,2024-05-22_15h44.00.859,exp1,2023.1.0,59.99415657354465,
,,,,,,,,,,,,,,,,5,8.35,9.175,10,10.825,11.65,0.8250000000000001,0.275,0.55,3.85,10,match,36.05,301,331,361,390,420,9,9,9,9,9,,,,,,,4,0,4,0,0,0,0,18,,,,,,,,,,,,num_5,1.789519099984318,num_5,0.45,1.2,0.45,1.2,17.19248,45.8466,return,0.5939392000436783,,,,,,,,,,,,,,,,,707,23,male,up_down_width,2024-05-22_15h44.00.859,exp1,2023.1.0,59.99415657354465,
,,,,,,,,,,,,,,,,4,8.95,9.65,10.35,11.05,0,0.7,0.29999999999999993,0.4,2.5,10,initial,36.05,323,348,373,398,0,9,9,9,9,0,,,,,,,4,0,4,0,0,1,1,26,,,,,,,,,,,,num_3,0.8632489999872632,num_3,0.45,0.7,0.45,0.7,17.19248,26.74385,return,0.4688684000284411,,,,,,,,,,,,,,,,,707,23,male,up_down_width,2024-05-22_15h44.00.859,exp1,2023.1.0,59.99415657354465,
,,,,,,,,,,,,,,,,4,9.1,9.7,10.3,10.9,0,0.6,0.04999999999999997,0.55,2.35,10,match,36.05,328,350,371,393,0,9,9,9,9,0,,,,,,,4,0,4,0,0,2,2,12,,,,,,,,,,,,num_4,1.094593400019221,num_4,0.45,0.8,0.45,0.6,17.19248,22.9233,return,3.348019100027159,,,,,,,,,,,,,,,,,707,23,male,up_down_width,2024-05-22_15h44.00.859,exp1,2023.1.0,59.99415657354465,
,,,,,,,,,,,,,,,,5,7.8,8.9,10,11.1,12.2,1.1,0.8500000000000001,0.25,4.65,10,initial,36.05,281,321,361,400,440,9,9,9,9,9,,,,,,,4,0,4,0,0,3,3,36,,,,,,,,,,,,num_5,2.932620899984613,num_5,0.5,1.3,0.4,0.8,15.2822,30.5644,return,3.6455847999895923,,,,,,,,,,,,,,,,,707,23,male,up_down_width,2024-05-22_15h44.00.859,exp1,2023.1.0,59.99415657354465,
,,,,,,,,,,,,,,,,4,8.95,9.65,10.35,11.05,0,0.7,0.1499999999999999,0.55,2.65,10,initial,36.05,323,348,373,398,0,9,9,9,9,0,,,,,,,4,0,4,0,0,4,4,23,,,,,,,,,,,,num_4,1.0141126999515109,num_4,0.45,0.5,0.45,0.6,17.19248,22.9233,return,1.1638110000058077,,,,,,,,,,,,,,,,,707,23,male,up_down_width,2024-05-22_15h44.00.859,exp1,2023.1.0,59.99415657354465,
,,,,,,,,,,,,,,,,5,8.65,9.325,10,10.675,11.35,0.675,0.42500000000000004,0.25,2.95,10,match,36.05,312,336,361,385,409,9,9,9,9,9,,,,,,,4,0,4,0,0,5,5,31,,,,,,,,,,,,num_5,0.9072812999947928,num_5,0.35,0.7,0.35,0.7,13.37193,26.74385,return,0.9662364000105299,,,,,,,,,,,,,,,,,707,23,male,up_down_width,2024-05-22_15h44.00.859,exp1,2023.1.0,59.99415657354465,
,,,,,,,,,,,,,,,,3,9.1,10,10.9,0,0,0.9,0.5,0.4,2.2,10,initial,36.05,328,361,393,0,0,9,9,9,0,0,,,,,,,4,0,4,0,0,6,6,15,,,,,,,,,,,,num_2,0.8124566999613307,num_2,0.35,1.2,0.35,1.2,13.37193,45.8466,return,0.43803049996495247,,,,,,,,,,,,,,,,,707,23,male,up_down_width,2024-05-22_15h44.00.859,exp1,2023.1.0,59.99415657354465,
,,,,,,,,,,,,,,,,3,8.6,10,11.4,0,0,1.4,0.85,0.55,3.35,10,match,36.05,310,361,411,0,0,9,9,9,0,0,,,,,,,4,0,4,0,0,7,7,41,,,,,,,,,,,,num_2,0.74328700004844,num_2,0.4,1.2,0.4,1.2,15.2822,45.8466,return,0.45536830002674833,,,,,,,,,,,,,,,,,707,23,male,up_down_width,2024-05-22_15h44.00.859,exp1,2023.1.0,59.99415657354465,
,,,,,,,,,,,,,,,,3,7.800000000000001,10,12.2,0,0,2.1999999999999997,1.7999999999999998,0.4,4.8,10,match,36.05,281,361,440,0,0,9,9,9,0,0,,,,,,,4,0,4,0,0,8,8,39,,,,,,,,,,,,num_2,0.8709204000188038,num_2,0.55,1.6,0.5,1.8,19.10275,68.76991,return,1.4695098999654874,,,,,,,,,,,,,,,,,707,23,male,up_down_width,2024-05-22_15h44.00.859,exp1,2023.1.0,59.99415657354465,
,,,,,,,,,,,,,,,,3,7.8,10,12.2,0,0,2.2,1.65,0.55,4.95,10,match,36.05,281,361,440,0,0,9,9,9,0,0,,,,,,,4,0,4,0,0,9,9,35,,,,,,,,,,,,num_2,0.7306645000353456,num_2,0.5,0.8,0.5,2.8,19.10275,106.97541,return,3.88242330000503,,,,,,,,,,,,,,,,,707,23,male,up_down_width,2024-05-22_15h44.00.859,exp1,2023.1.0,59.99415657354465,
,,,,,,,,,,,,,,,,4,9.1,9.7,10.3,10.9,0,0.6000000000000001,0.20000000000000004,0.4,2.2,10,match,36.05,328,350,371,393,0,9,9,9,9,0,,,,,,,4,0,4,0,0,10,10,16,,,,,,,,,,,,num_3,0.9435209999792278,num_3,0.55,1,0.4,1.3,15.2822,49.66716,return,2.7246809999924153,,,,,,,,,,,,,,,,,707,23,male,up_down_width,2024-05-22_15h44.00.859,exp1,2023.1.0,59.99415657354465,
,,,,,,,,,,,,,,,,5,8.95,9.475,10,10.525,11.05,0.525,0.125,0.4,2.5,10,match,36.05,323,342,361,379,398,9,9,9,9,9,,,,,,,4,0,4,0,0,11,11,27,,,,,,,,,,,,num_4,0.924718499998562,num_4,0.2,1.2,0.44999999999999996,0.8,17.19248,30.5644,return,3.4442356000072323,,,,,,,,,,,,,,,,,707,23,male,up_down_width,2024-05-22_15h44.00.859,exp1,2023.1.0,59.99415657354465,
,,,,,,,,,,,,,,,,3,7.8,10,12.2,0,0,2.2,1.9500000000000002,0.25,4.65,10,match,36.05,281,361,440,0,0,9,9,9,0,0,,,,,,,4,0,4,0,0,12,12,37,,,,,,,,,,,,num_2,0.911736500042025,num_2,0.5,0.8,0.5,2.1,19.10275,80.23156,return,4.581301199970767,,,,,,,,,,,,,,,,,707,23,male,up_down_width,2024-05-22_15h44.00.859,exp1,2023.1.0,59.99415657354465,
,,,,,,,,,,,,,,,,4,8.9,9.633333333333333,10.366666666666667,11.1,0,0.7333333333333334,0.4833333333333334,0.25,2.45,10,match,36.05,321,347,374,400,0,9,9,9,9,0,,,,,,,4,0,4,0,0,13,13,3,,,,,,,,,,,,num_3,0.8846950000151992,num_3,0.35,0.9,0.35,1.05,13.37193,40.11578,return,1.0877378999721259,,,,,,,,,,,,,,,,,707,23,male,up_down_width,2024-05-22_15h44.00.859,exp1,2023.1.0,59.99415657354465,
,,,,,,,,,,,,,,,,4,9.3,9.766666666666667,10.233333333333333,10.7,0,0.4666666666666667,0.06666666666666665,0.4,1.8,10,match,36.05,335,352,369,386,0,9,9,9,9,0,,,,,,,4,0,4,0,0,14,14,10,,,,,,,,,,,,num_3,1.0620135000208393,num_3,0.45,1.1,0.45,0.7,17.19248,26.74385,return,1.8328782000462525,,,,,,,,,,,,,,,,,707,23,male,up_down_width,2024-05-22_15h44.00.859,exp1,2023.1.0,59.99415657354465,
,,,,,,,,,,,,,,,,5,8.65,9.325,10,10.675,11.35,0.675,0.125,0.55,3.25,10,match,36.05,312,336,361,385,409,9,9,9,9,9,,,,,,,4,0,4,0,0,15,15,29,,,,,,,,,,,,num_4,0.8683121000067331,num_4,0.25,0.3,0.35,0.5,13.37193,19.10275,return,3.3716553000267595,,,,,,,,,,,,,,,,,707,23,male,up_down_width,2024-05-22_15h44.00.859,exp1,2023.1.0,59.99415657354465,
,,,,,,,,,,,,,,,,4,8.35,9.45,10.55,11.65,0,1.1,0.8500000000000001,0.25,3.5500000000000003,10,initial,36.05,301,341,380,420,0,9,9,9,9,0,,,,,,,4,0,4,0,0,16,16,19,,,,,,,,,,,,num_3,0.8448621000279672,num_3,0.2,0.4,0.2,0.75,7.6411,28.65413,return,1.9715302999829873,,,,,,,,,,,,,,,,,707,23,male,up_down_width,2024-05-22_15h44.00.859,exp1,2023.1.0,59.99415657354465,
,,,,,,,,,,,,,,,,5,8.65,9.325,10,10.675,11.35,0.675,0.275,0.4,3.1,10,match,36.05,312,336,361,385,409,9,9,9,9,9,,,,,,,4,0,4,0,0,17,17,33,,,,,,,,,,,,num_4,0.7604124000063166,num_4,0.35,0.9,0.35,0.6,13.37193,22.9233,return,1.3365170999895781,,,,,,,,,,,,,,,,,707,23,male,up_down_width,2024-05-22_15h44.00.859,exp1,2023.1.0,59.99415657354465,
,,,,,,,,,,,,,,,,5,8.6,9.3,10,10.7,11.4,0.7,0.44999999999999996,0.25,3.05,10,initial,36.05,310,335,361,386,411,9,9,9,9,9,,,,,,,4,0,4,0,0,18,18,42,,,,,,,,,,,,num_5,0.8554802000289783,num_5,0.5,0.8,0.4,0.7,15.2822,26.74385,return,2.116293200000655,,,,,,,,,,,,,,,,,707,23,male,up_down_width,2024-05-22_15h44.00.859,exp1,2023.1.0,59.99415657354465,
,,,,,,,,,,,,,,,,4,8.35,9.45,10.55,11.65,0,1.1,0.55,0.55,3.8500000000000005,10,initial,36.05,301,341,380,420,0,9,9,9,9,0,,,,,,,4,0,4,0,0,19,19,17,,,,,,,,,,,,num_3,0.8487652000039816,num_3,0.45,1,0.45,0.9,17.19248,34.38495,return,1.1610264999908395,,,,,,,,,,,,,,,,,707,23,male,up_down_width,2024-05-22_15h44.00.859,exp1,2023.1.0,59.99415657354465,
,,,,,,,,,,,,,,,,4,8.9,9.633333333333333,10.366666666666667,11.1,0,0.7333333333333333,0.18333333333333326,0.55,2.75,10,match,36.05,321,347,374,400,0,9,9,9,9,0,,,,,,,4,0,4,0,0,20,20,1,,,,,,,,,,,,num_3,0.7765887000132352,num_3,0.55,0.6,0.55,0.65,21.01303,24.83358,return,1.1112303999834694,,,,,,,,,,,,,,,,,707,23,male,up_down_width,2024-05-22_15h44.00.859,exp1,2023.1.0,59.99415657354465,
,,,,,,,,,,,,,,,,5,8.95,9.475,10,10.525,11.05,0.525,0.275,0.25,2.35,10,match,36.05,323,342,361,379,398,9,9,9,9,9,,,,,,,4,0,4,0,0,21,21,25,,,,,,,,,,,,num_4,0.8727173000224866,num_4,0.5,1.1,0.5,0.7,19.10275,26.74385,return,1.588033500011079,,,,,,,,,,,,,,,,,707,23,male,up_down_width,2024-05-22_15h44.00.859,exp1,2023.1.0,59.99415657354465,
,,,,,,,,,,,,,,,,5,8.35,9.175,10,10.825,11.65,0.825,0.575,0.25,3.55,10,match,36.05,301,331,361,390,420,9,9,9,9,9,,,,,,,4,0,4,0,0,22,22,20,,,,,,,,,,,,num_5,0.9423846999998204,num_5,0.4,0.8,0.4,0.75,15.2822,28.65413,return,1.0276207000133581,,,,,,,,,,,,,,,,,707,23,male,up_down_width,2024-05-22_15h44.00.859,exp1,2023.1.0,59.99415657354465,
,,,,,,,,,,,,,,,,4,8.825,9.608333333333333,10.391666666666667,11.175,0,0.7833333333333333,0.5333333333333333,0.25,2.6,10,match,36.05,318,346,375,403,0,9,9,9,9,0,,,,,,,4,0,4,0,0,23,23,5,,,,,,,,,,,,num_3,0.8560687999706715,num_3,0.55,1.2,0.55,1.15,21.01303,43.93633,return,1.5202074000262655,,,,,,,,,,,,,,,,,707,23,male,up_down_width,2024-05-22_15h44.00.859,exp1,2023.1.0,59.99415657354465,
,,,,,,,,,,,,,,,,3,9.3,10,10.7,0,0,0.7,0.29999999999999993,0.4,1.8,10,initial,36.05,335,361,386,0,0,9,9,9,0,0,,,,,,,4,0,4,0,0,24,24,9,,,,,,,,,,,,num_2,0.9706507000373676,num_2,0.45,1.0,0.45,1.0,17.19248,38.2055,return,0.5265493999468163,,,,,,,,,,,,,,,,,707,23,male,up_down_width,2024-05-22_15h44.00.859,exp1,2023.1.0,59.99415657354465,
,,,,,,,,,,,,,,,,5,8.6,9.3,10,10.7,11.4,0.7,0.1499999999999999,0.55,3.3499999999999996,10,initial,36.05,310,335,361,386,411,9,9,9,9,9,,,,,,,4,0,4,0,0,25,25,40,,,,,,,,,,,,num_4,0.9061293000122532,num_4,0.5,1.1,0.5,0.7,19.10275,26.74385,return,1.4085010000271723,,,,,,,,,,,,,,,,,707,23,male,up_down_width,2024-05-22_15h44.00.859,exp1,2023.1.0,59.99415657354465,
,,,,,,,,,,,,,,,,5,7.8,8.9,10,11.1,12.2,1.1,0.55,0.55,4.95,10,initial,36.05,281,321,361,400,440,9,9,9,9,9,,,,,,,4,0,4,0,0,26,26,34,,,,,,,,,,,,num_5,0.8834194000228308,num_5,0.45,0.8,0.45,0.9,17.19248,34.38495,return,0.8470274999854155,,,,,,,,,,,,,,,,,707,23,male,up_down_width,2024-05-22_15h44.00.859,exp1,2023.1.0,59.99415657354465,
,,,,,,,,,,,,,,,,4,8.65,9.55,10.45,11.35,0,0.9,0.5,0.4,3.1,10,initial,36.05,312,344,377,409,0,9,9,9,9,0,,,,,,,4,0,4,0,0,27,27,32,,,,,,,,,,,,num_3,0.833003900013864,num_3,0.45,0.9,0.45,1.0,17.19248,38.2055,return,0.7799556999816559,,,,,,,,,,,,,,,,,707,23,male,up_down_width,2024-05-22_15h44.00.859,exp1,2023.1.0,59.99415657354465,
,,,,,,,,,,,,,,,,3,9.1,10,10.9,0,0,0.9,0.65,0.25,2.05,10,initial,36.05,328,361,393,0,0,9,9,9,0,0,,,,,,,4,0,4,0,0,28,28,13,,,,,,,,,,,,num_2,0.7682286000344902,num_2,0.3,1.6,0.3,1.9,11.46165,72.59046,return,0.8753029000363313,,,,,,,,,,,,,,,,,707,23,male,up_down_width,2024-05-22_15h44.00.859,exp1,2023.1.0,59.99415657354465,
,,,,,,,,,,,,,,,,5,7.8,8.9,10,11.1,12.2,1.1,0.7000000000000001,0.4,4.800000000000001,10,initial,36.05,281,321,361,400,440,9,9,9,9,9,,,,,,,4,0,4,0,0,29,29,38,,,,,,,,,,,,num_5,1.173774799972307,num_5,0.45,1.2,0.45,1.25,17.19248,47.75688,return,1.394028199953027,,,,,,,,,,,,,,,,,707,23,male,up_down_width,2024-05-22_15h44.00.859,exp1,2023.1.0,59.99415657354465,
,,,,,,,,,,,,,,,,4,8.65,9.55,10.45,11.35,0,0.9,0.65,0.25,2.95,10,initial,36.05,312,344,377,409,0,9,9,9,9,0,,,,,,,4,0,4,0,0,30,30,30,,,,,,,,,,,,num_2,0.7352069999906234,num_2,0.4,1.6,0.30000000000000004,1.9,11.46165,72.59046,return,1.4816556999576278,,,,,,,,,,,,,,,,,707,23,male,up_down_width,2024-05-22_15h44.00.859,exp1,2023.1.0,59.99415657354465,
,,,,,,,,,,,,,,,,3,8.2,10,11.8,0,0,1.8,1.55,0.25,3.85,10,match,36.05,296,361,425,0,0,9,9,9,0,0,,,,,,,4,0,4,0,0,31,31,49,,,,,,,,,,,,num_2,0.8474026000476442,num_2,0.55,1.6,0.25000000000000006,2.7,9.55138,103.15486,return,3.289103300019633,,,,,,,,,,,,,,,,,707,23,male,up_down_width,2024-05-22_15h44.00.859,exp1,2023.1.0,59.99415657354465,
,,,,,,,,,,,,,,,,3,9.3,10,10.7,0,0,0.7,0.1499999999999999,0.55,1.95,10,initial,36.05,335,361,386,0,0,9,9,9,0,0,,,,,,,4,0,4,0,0,32,32,6,,,,,,,,,,,,num_2,0.8419517999864183,num_2,0.5,1.0,0.5,0.7,19.10275,26.74385,return,1.3516765999956988,,,,,,,,,,,,,,,,,707,23,male,up_down_width,2024-05-22_15h44.00.859,exp1,2023.1.0,59.99415657354465,
,,,,,,,,,,,,,,,,5,8.6,9.3,10,10.7,11.4,0.7,0.29999999999999993,0.4,3.1999999999999997,10,initial,36.05,310,335,361,386,411,9,9,9,9,9,,,,,,,4,0,4,0,0,33,33,44,,,,,,,,,,,,num_5,0.9785101999877952,num_5,0.45,0.6,0.45,0.6,17.19248,22.9233,return,0.9661667000036687,,,,,,,,,,,,,,,,,707,23,male,up_down_width,2024-05-22_15h44.00.859,exp1,2023.1.0,59.99415657354465,
,,,,,,,,,,,,,,,,3,9.3,10,10.7,0,0,0.7,0.44999999999999996,0.25,1.65,10,initial,36.05,335,361,386,0,0,9,9,9,0,0,,,,,,,4,0,4,0,0,34,34,7,,,,,,,,,,,,num_2,0.7910015999805182,num_2,0.4,0.8,0.30000000000000004,1.3,11.46165,49.66716,return,1.875738899980206,,,,,,,,,,,,,,,,,707,23,male,up_down_width,2024-05-22_15h44.00.859,exp1,2023.1.0,59.99415657354465,
,,,,,,,,,,,,,,,,3,8.2,10,11.8,0,0,1.8,1.25,0.55,4.15,10,match,36.05,296,361,425,0,0,9,9,9,0,0,,,,,,,4,0,4,0,0,35,35,47,,,,,,,,,,,,num_2,0.7561131999827921,num_2,0.35,1.2,0.49999999999999994,1.5,19.10275,57.30826,return,2.5612711000139825,,,,,,,,,,,,,,,,,707,23,male,up_down_width,2024-05-22_15h44.00.859,exp1,2023.1.0,59.99415657354465,
,,,,,,,,,,,,,,,,5,8.275,9.1375,10,10.8625,11.725,0.8625,0.6125,0.25,3.7,10,match,36.05,298,329,361,392,423,9,9,9,9,9,,,,,,,4,0,4,0,0,36,36,22,,,,,,,,,,,,num_3,2.03305290004937,num_3,0.5,0.6,0.25000000000000006,1.0,9.55138,38.2055,return,3.210457500012126,,,,,,,,,,,,,,,,,707,23,male,up_down_width,2024-05-22_15h44.00.859,exp1,2023.1.0,59.99415657354465,
,,,,,,,,,,,,,,,,3,8.9,10,11.1,0,0,1.1,0.8500000000000001,0.25,2.45,10,initial,36.05,321,361,400,0,0,9,9,9,0,0,,,,,,,4,0,4,0,0,37,37,2,,,,,,,,,,,,num_2,5.11627659999067,num_2,0.45,0.8,0.4,1.1,15.2822,42.02605,return,4.28237850003643,,,,,,,,,,,,,,,,,707,23,male,up_down_width,2024-05-22_15h44.00.859,exp1,2023.1.0,59.99415657354465,
,,,,,,,,,,,,,,,,4,9.3,9.766666666666667,10.233333333333333,10.7,0,0.4666666666666667,0.21666666666666665,0.25,1.65,10,match,36.05,335,352,369,386,0,9,9,9,9,0,,,,,,,4,0,4,0,0,38,38,8,,,,,,,,,,,,num_3,1.0443186999764293,num_3,0.2,0.6,0.3,0.5,11.46165,19.10275,return,2.9647638999740593,,,,,,,,,,,,,,,,,707,23,male,up_down_width,2024-05-22_15h44.00.859,exp1,2023.1.0,59.99415657354465,
,,,,,,,,,,,,,,,,3,9.1,10,10.9,0,0,0.9,0.35,0.55,2.35,10,initial,36.05,328,361,393,0,0,9,9,9,0,0,,,,,,,4,0,4,0,0,39,39,11,,,,,,,,,,,,num_2,0.9800062000285834,num_2,0.35,1.0,0.44999999999999996,0.7,17.19248,26.74385,return,2.041623700002674,,,,,,,,,,,,,,,,,707,23,male,up_down_width,2024-05-22_15h44.00.859,exp1,2023.1.0,59.99415657354465,
,,,,,,,,,,,,,,,,5,8.2,9.1,10,10.9,11.8,0.9,0.35,0.55,4.15,10,initial,36.05,296,328,361,393,425,9,9,9,9,9,,,,,,,4,0,4,0,0,40,40,46,,,,,,,,,,,,num_5,1.0756905000307597,num_5,0.4,0.9,0.4,0.85,15.2822,32.47468,return,1.0898925999645144,,,,,,,,,,,,,,,,,707,23,male,up_down_width,2024-05-22_15h44.00.859,exp1,2023.1.0,59.99415657354465,
,,,,,,,,,,,,,,,,3,8.2,10,11.8,0,0,1.7999999999999998,1.4,0.4,4,10,match,36.05,296,361,425,0,0,9,9,9,0,0,,,,,,,4,0,4,0,0,41,41,51,,,,,,,,,,,,num_2,0.7711094999685884,num_2,0.2,0.8,0.35,1.0,13.37193,38.2055,return,3.0596496000071056,,,,,,,,,,,,,,,,,707,23,male,up_down_width,2024-05-22_15h44.00.859,exp1,2023.1.0,59.99415657354465,
,,,,,,,,,,,,,,,,5,8.2,9.1,10,10.9,11.8,0.9,0.65,0.25,3.85,10,initial,36.05,296,328,361,393,425,9,9,9,9,9,,,,,,,4,0,4,0,0,42,42,48,,,,,,,,,,,,num_4,0.981620299979113,num_4,0.45,1.2,0.30000000000000004,1.1,11.46165,42.02605,return,2.794828800018877,,,,,,,,,,,,,,,,,707,23,male,up_down_width,2024-05-22_15h44.00.859,exp1,2023.1.0,59.99415657354465,
,,,,,,,,,,,,,,,,3,8.6,10,11.4,0,0,1.4,1.15,0.25,3.05,10,match,36.05,310,361,411,0,0,9,9,9,0,0,,,,,,,4,0,4,0,0,43,43,43,,,,,,,,,,,,num_2,0.7996343999984674,num_2,0.25,0.4,0.25,1.5,9.55138,57.30826,return,2.17360209999606,,,,,,,,,,,,,,,,,707,23,male,up_down_width,2024-05-22_15h44.00.859,exp1,2023.1.0,59.99415657354465,
,,,,,,,,,,,,,,,,3,8.9,10,11.1,0,0,1.1,0.7000000000000001,0.4,2.6000000000000005,10,initial,36.05,321,361,400,0,0,9,9,9,0,0,,,,,,,4,0,4,0,0,44,44,4,,,,,,,,,,,,num_2,0.8691339999786578,num_2,0.5,1.0,0.5,1.5,19.10275,57.30826,return,1.1553462999872863,,,,,,,,,,,,,,,,,707,23,male,up_down_width,2024-05-22_15h44.00.859,exp1,2023.1.0,59.99415657354465,
,,,,,,,,,,,,,,,,3,8.525,10,11.475,0,0,1.475,1.225,0.25,3.2,10,match,36.05,307,361,414,0,0,9,9,9,0,0,,,,,,,4,0,4,0,0,45,45,45,,,,,,,,,,,,num_2,0.6593660999787971,num_2,0.3,1.0,0.3,1.7,11.46165,64.94936,return,1.377829600009136,,,,,,,,,,,,,,,,,707,23,male,up_down_width,2024-05-22_15h44.00.859,exp1,2023.1.0,59.99415657354465,
,,,,,,,,,,,,,,,,3,8.9,10,11.1,0,0,1.1,0.55,0.55,2.75,10,initial,36.05,321,361,400,0,0,9,9,9,0,0,,,,,,,4,0,4,0,0,46,46,0,,,,,,,,,,,,num_2,0.7017690000357106,num_2,0.45,1.2,0.45,1.4,17.19248,53.48771,return,0.6991840999689884,,,,,,,,,,,,,,,,,707,23,male,up_down_width,2024-05-22_15h44.00.859,exp1,2023.1.0,59.99415657354465,
,,,,,,,,,,,,,,,,4,8.95,9.65,10.35,11.05,0,0.7,0.44999999999999996,0.25,2.3499999999999996,10,initial,36.05,323,348,373,398,0,9,9,9,9,0,,,,,,,4,0,4,0,0,47,47,24,,,,,,,,,,,,num_3,0.869960899988655,num_3,0.45,0.6,0.30000000000000004,1.0,11.46165,38.2055,return,2.2855615000007674,,,,,,,,,,,,,,,,,707,23,male,up_down_width,2024-05-22_15h44.00.859,exp1,2023.1.0,59.99415657354465,
,,,,,,,,,,,,,,,,4,9.1,9.7,10.3,10.9,0,0.5999999999999999,0.3499999999999999,0.25,2.05,10,match,36.05,328,350,371,393,0,9,9,9,9,0,,,,,,,4,0,4,0,0,48,48,14,,,,,,,,,,,,num_3,0.9259707000455819,num_3,0.5,0.6,0.30000000000000004,0.85,11.46165,32.47468,return,1.8322307000053115,,,,,,,,,,,,,,,,,707,23,male,up_down_width,2024-05-22_15h44.00.859,exp1,2023.1.0,59.99415657354465,
,,,,,,,,,,,,,,,,4,8.65,9.55,10.45,11.35,0,0.9,0.35,0.55,3.25,10,initial,36.05,312,344,377,409,0,9,9,9,9,0,,,,,,,4,0,4,0,0,49,49,28,,,,,,,,,,,,num_4,0.9997234999900684,num_4,0.3,1.1,0.49999999999999994,0.8,19.10275,30.5644,return,2.011302200029604,,,,,,,,,,,,,,,,,707,23,male,up_down_width,2024-05-22_15h44.00.859,exp1,2023.1.0,59.99415657354465,
,,,,,,,,,,,,,,,,5,8.2,9.1,10,10.9,11.8,0.9,0.5,0.4,4,10,initial,36.05,296,328,361,393,425,9,9,9,9,9,,,,,,,4,0,4,0,0,50,50,50,,,,,,,,,,,,num_5,0.865967100020498,num_5,0.45,0.9,0.45,0.9,17.19248,34.38495,return,0.8280840999796055,,,,,,,,,,,,,,,,,707,23,male,up_down_width,2024-05-22_15h44.00.859,exp1,2023.1.0,59.99415657354465,
,,,,,,,,,,,,,,,,4,8.35,9.45,10.55,11.65,0,1.1,0.7000000000000001,0.4,3.7,10,initial,36.05,301,341,380,420,0,9,9,9,9,0,,,,,,,4,0,4,0,0,51,51,21,,,,,,,,,,,,num_3,0.8152636000304483,num_3,0.5,0.9,0.5,1.0,19.10275,38.2055,return,0.6535452000098303,,,,,,,,,,,,,,,,,707,23,male,up_down_width,2024-05-22_15h44.00.859,exp1,2023.1.0,59.99415657354465,
,,,,,,,,,,,,,,,,,,,,,,,,,,,,,,,,,,,,,,,,,,,,,4,0,4,0,,,,,,,,,,,,,,,,,,,,,,,,,,,,,2192.460789999983,2192.460789999983,2192.460789999983,,,,,,,,,,,,707,23,male,up_down_width,2024-05-22_15h44.00.859,exp1,2023.1.0,59.99415657354465,
,,,,,,,,,,,,,,,,5,8.275,9.1375,10,10.8625,11.725,0.8625,0.6125,0.25,3.7,10,match,36.05,298,329,361,392,423,9,9,9,9,9,,,,,,,5,0,5,0,0,0,0,22,,,,,,,,,,,,num_4,1.3635680999723263,num_4,0.5,0.6,0.35000000000000003,1.1,13.37193,42.02605,return,2.0911751000094227,,,,,,,,,,,,,,,,,707,23,male,up_down_width,2024-05-22_15h44.00.859,exp1,2023.1.0,59.99415657354465,
,,,,,,,,,,,,,,,,4,8.35,9.45,10.55,11.65,0,1.1,0.8500000000000001,0.25,3.5500000000000003,10,initial,36.05,301,341,380,420,0,9,9,9,9,0,,,,,,,5,0,5,0,0,1,1,19,,,,,,,,,,,,num_3,1.0698763999971561,num_3,0.2,0.9,0.2,1.0,7.6411,38.2055,return,0.7667141999700107,,,,,,,,,,,,,,,,,707,23,male,up_down_width,2024-05-22_15h44.00.859,exp1,2023.1.0,59.99415657354465,
,,,,,,,,,,,,,,,,4,8.65,9.55,10.45,11.35,0,0.9,0.5,0.4,3.1,10,initial,36.05,312,344,377,409,0,9,9,9,9,0,,,,,,,5,0,5,0,0,2,2,32,,,,,,,,,,,,num_3,1.5968322000117041,num_3,0.35,0.6,0.35,0.9,13.37193,34.38495,return,1.2393488999805413,,,,,,,,,,,,,,,,,707,23,male,up_down_width,2024-05-22_15h44.00.859,exp1,2023.1.0,59.99415657354465,
,,,,,,,,,,,,,,,,3,9.1,10,10.9,0,0,0.9,0.35,0.55,2.35,10,initial,36.05,328,361,393,0,0,9,9,9,0,0,,,,,,,5,0,5,0,0,3,3,11,,,,,,,,,,,,num_2,0.8877257000422105,num_2,0.45,1.6,0.45,1.8,17.19248,68.76991,return,4.786398500029463,,,,,,,,,,,,,,,,,707,23,male,up_down_width,2024-05-22_15h44.00.859,exp1,2023.1.0,59.99415657354465,
,,,,,,,,,,,,,,,,3,8.9,10,11.1,0,0,1.1,0.7000000000000001,0.4,2.6000000000000005,10,initial,36.05,321,361,400,0,0,9,9,9,0,0,,,,,,,5,0,5,0,0,4,4,4,,,,,,,,,,,,num_2,0.9297603000304662,num_2,0.5,0.8,0.5,2.0,19.10275,76.41101,return,2.6952913000131957,,,,,,,,,,,,,,,,,707,23,male,up_down_width,2024-05-22_15h44.00.859,exp1,2023.1.0,59.99415657354465,
,,,,,,,,,,,,,,,,5,7.8,8.9,10,11.1,12.2,1.1,0.8500000000000001,0.25,4.65,10,initial,36.05,281,321,361,400,440,9,9,9,9,9,,,,,,,5,0,5,0,0,5,5,36,,,,,,,,,,,,num_5,1.320040800026618,num_5,0.35,1.1,0.2,1.25,7.6411,47.75688,return,1.658449299982749,,,,,,,,,,,,,,,,,707,23,male,up_down_width,2024-05-22_15h44.00.859,exp1,2023.1.0,59.99415657354465,
,,,,,,,,,,,,,,,,3,7.8,10,12.2,0,0,2.2,1.9500000000000002,0.25,4.65,10,match,36.05,281,361,440,0,0,9,9,9,0,0,,,,,,,5,0,5,0,0,6,6,37,,,,,,,,,,,,num_2,1.136104500037618,num_2,0.45,1.4,0.25000000000000006,1.9,9.55138,72.59046,return,1.9212349000154063,,,,,,,,,,,,,,,,,707,23,male,up_down_width,2024-05-22_15h44.00.859,exp1,2023.1.0,59.99415657354465,
,,,,,,,,,,,,,,,,3,8.2,10,11.8,0,0,1.8,1.25,0.55,4.15,10,match,36.05,296,361,425,0,0,9,9,9,0,0,,,,,,,5,0,5,0,0,7,7,47,,,,,,,,,,,,num_2,0.9072679000091739,num_2,0.45,1.4,0.45,3.0,17.19248,114.61651,return,3.361742699984461,,,,,,,,,,,,,,,,,707,23,male,up_down_width,2024-05-22_15h44.00.859,exp1,2023.1.0,59.99415657354465,
,,,,,,,,,,,,,,,,4,8.65,9.55,10.45,11.35,0,0.9,0.65,0.25,2.95,10,initial,36.05,312,344,377,409,0,9,9,9,9,0,,,,,,,5,0,5,0,0,8,8,30,,,,,,,,,,,,num_2,0.9681987999938428,num_2,0.35,0.8,0.25,2.0,9.55138,76.41101,return,4.351828199985903,,,,,,,,,,,,,,,,,707,23,male,up_down_width,2024-05-22_15h44.00.859,exp1,2023.1.0,59.99415657354465,
,,,,,,,,,,,,,,,,4,8.9,9.633333333333333,10.366666666666667,11.1,0,0.7333333333333333,0.18333333333333326,0.55,2.75,10,match,36.05,321,347,374,400,0,9,9,9,9,0,,,,,,,5,0,5,0,0,9,9,1,,,,,,,,,,,,num_3,1.487503000011202,num_3,0.45,0.5,0.45,0.85,17.19248,32.47468,return,2.0350219000247307,,,,,,,,,,,,,,,,,707,23,male,up_down_width,2024-05-22_15h44.00.859,exp1,2023.1.0,59.99415657354465,
,,,,,,,,,,,,,,,,5,8.2,9.1,10,10.9,11.8,0.9,0.5,0.4,4,10,initial,36.05,296,328,361,393,425,9,9,9,9,9,,,,,,,5,0,5,0,0,10,10,50,,,,,,,,,,,,num_4,1.1181263999897055,num_4,0.45,1.2,0.45,1.0,17.19248,38.2055,return,4.135319699998945,,,,,,,,,,,,,,,,,707,23,male,up_down_width,2024-05-22_15h44.00.859,exp1,2023.1.0,59.99415657354465,
,,,,,,,,,,,,,,,,5,8.65,9.325,10,10.675,11.35,0.675,0.42500000000000004,0.25,2.95,10,match,36.05,312,336,361,385,409,9,9,9,9,9,,,,,,,5,0,5,0,0,11,11,31,,,,,,,,,,,,num_5,1.505786599998828,num_5,0.3,1.3,0.3,0.8,11.46165,30.5644,return,2.659275999991223,,,,,,,,,,,,,,,,,707,23,male,up_down_width,2024-05-22_15h44.00.859,exp1,2023.1.0,59.99415657354465,
,,,,,,,,,,,,,,,,3,9.1,10,10.9,0,0,0.9,0.5,0.4,2.2,10,initial,36.05,328,361,393,0,0,9,9,9,0,0,,,,,,,5,0,5,0,0,12,12,15,,,,,,,,,,,,num_2,0.8008313999744132,num_2,0.55,0.6,0.55,1.4,21.01303,53.48771,return,1.9955493000452407,,,,,,,,,,,,,,,,,707,23,male,up_down_width,2024-05-22_15h44.00.859,exp1,2023.1.0,59.99415657354465,
