amount_p,posx1_p,posx2_p,posx3_p,posx4_p,posx5_p,center_to_center_p,edge_to_edge_p,w_p,stim_lengt_p,eccentricity_p,line1_p,line2_p,line3_p,line4_p,line5_p,amount,posx1,posx2,posx3,posx4,posx5,center_to_center,edge_to_edge,w,stim_length,eccentricity,trial_type,deg_to_pix_index,posx1_in_pix,posx2_in_pix,posx3_in_pix,posx4_in_pix,posx5_in_pix,line1,line2,line3,line4,line5,posx,setsize_cobdi,trials.thisRepN,trials.thisTrialN,trials.thisN,trials.thisIndex,blocks.thisRepN,blocks.thisTrialN,blocks.thisN,blocks.thisIndex,loop.thisRepN,loop.thisTrialN,loop.thisN,loop.thisIndex,first.thisRepN,first.thisTrialN,first.thisN,first.thisIndex,second.thisRepN,second.thisTrialN,second.thisN,second.thisIndex,key_resp_3.started,key_resp_3.keys,key_resp_3.rt,key_resp.keys,key_resp.rt,response,starting_width_deg,starting_space_deg,response_width_degree,response_spacing_degree,response_width_pixel,response_spacing_pixel,next_5.keys,next_5.rt,key_resp_4.keys,key_resp_4.rt,text_3.started,text_4.started,key_resp_2.started,text_2.started,key_resp_2.keys,key_resp_2.rt,adjusting.started,next.keys,next.rt,text_control2.started,key_resp.started,key_resp.corr,text_bye.started,text_bye.stopped,participant,age,gender,resp_group,date,expName,psychopyVersion,frameRate,
,,,,,,,,,,,,,,,,,,,,,,,,,,,,,,,,,,,,,,,,,,,,,,,,,,,,,,,,,,,,,232.7215882000164,c,125.50150840001879,,,,,,,,,,,,,,,,,,,,,,,,,,,,708,23,male,left_right_width,2024-05-23_12h45.23.640,exp1,2023.1.0,60.00085200461607,
3,8.2,10,11.8,0,0,1.7999999999999998,1.4,0.4,4,10,9,9,9,0,0,,,,,,,,,,,,,,,,,,,,,,,,,,0,0,0,2,,,,,,,,,,,,,,,,,,,,num_3,3.850703499978408,num_3,0.35,0.6,0.25,0.6,9.55138,22.9233,return,9.76899010001216,,,,,,,,,,,,,,,,,708,23,male,left_right_width,2024-05-23_12h45.23.640,exp1,2023.1.0,60.00085200461607,
4,9.5,9.833333333333334,10.166666666666666,10.5,0,0.33333333333333337,0.23333333333333336,0.1,1.1,10,9,9,9,9,0,,,,,,,,,,,,,,,,,,,,,,,,,,0,1,1,3,,,,,,,,,,,,,,,,,,,,num_4,2.826228699996136,num_4,0.5,1.1,0.20000000000000007,0.7,7.6411,26.74385,return,5.628561899997294,,,,,,,,,,,,,,,,,708,23,male,left_right_width,2024-05-23_12h45.23.640,exp1,2023.1.0,60.00085200461607,
5,9.25,9.625,10,10.375,10.75,0.375,0.125,0.25,1.75,10,9,9,9,9,9,,,,,,,,,,,,,,,,,,,,,,,,,,0,2,2,6,,,,,,,,,,,,,,,,,,,,num_4,2.9474909999989904,num_4,0.2,0.3,0.15000000000000002,0.4,5.73083,15.2822,return,7.080748600012157,,,,,,,,,,,,,,,,,708,23,male,left_right_width,2024-05-23_12h45.23.640,exp1,2023.1.0,60.00085200461607,
5,8.6,9.3,10,10.7,11.4,0.7,0.29999999999999993,0.4,3.1999999999999997,10,9,9,9,9,9,,,,,,,,,,,,,,,,,,,,,,,,,,0,3,3,7,,,,,,,,,,,,,,,,,,,,num_5,1.8440186000079848,num_5,0.2,0.6,0.25,0.6,9.55138,22.9233,return,2.1694275999907404,,,,,,,,,,,,,,,,,708,23,male,left_right_width,2024-05-23_12h45.23.640,exp1,2023.1.0,60.00085200461607,
4,9.25,9.75,10.25,10.75,0,0.5,0.25,0.25,1.75,10,9,9,9,9,0,,,,,,,,,,,,,,,,,,,,,,,,,,0,4,4,4,,,,,,,,,,,,,,,,,,,,num_4,3.338440699968487,num_4,0.2,0.5,0.25,0.5,9.55138,19.10275,return,1.4879116999800317,,,,,,,,,,,,,,,,,708,23,male,left_right_width,2024-05-23_12h45.23.640,exp1,2023.1.0,60.00085200461607,
3,9,10,11,0,0,1,0.9,0.1,2.1,10,9,9,9,0,0,,,,,,,,,,,,,,,,,,,,,,,,,,0,5,5,1,,,,,,,,,,,,,,,,,,,,num_4,2.071984499983955,num_4,0.5,1.1,6.938893903907228e-17,1.0,0.0,38.2055,return,4.305603599990718,,,,,,,,,,,,,,,,,708,23,male,left_right_width,2024-05-23_12h45.23.640,exp1,2023.1.0,60.00085200461607,
3,9.5,10,10.5,0,0,0.5,0.4,0.1,1.1,10,9,9,9,0,0,,,,,,,,,,,,,,,,,,,,,,,,,,0,6,6,0,,,,,,,,,,,,,,,,,,,,num_3,1.6100302999839187,num_3,0.4,1.1,0.10000000000000007,1.0,3.82055,38.2055,return,3.8447394999675453,,,,,,,,,,,,,,,,,708,23,male,left_right_width,2024-05-23_12h45.23.640,exp1,2023.1.0,60.00085200461607,
5,9,9.5,10,10.5,11,0.5,0.09999999999999998,0.4,2.4,10,9,9,9,9,9,,,,,,,,,,,,,,,,,,,,,,,,,,0,7,7,8,,,,,,,,,,,,,,,,,,,,num_4,1.8347094999626279,num_4,0.45,0.9,0.55,0.9,21.01303,34.38495,return,3.819751500035636,,,,,,,,,,,,,,,,,708,23,male,left_right_width,2024-05-23_12h45.23.640,exp1,2023.1.0,60.00085200461607,
4,8.65,9.55,10.45,11.35,0,0.9,0.5,0.4,3.1,10,9,9,9,9,0,,,,,,,,,,,,,,,,,,,,,,,,,,0,8,8,5,,,,,,,,,,,,,,,,,,,,num_4,2.639340900001116,num_4,0.55,1.2,0.55,0.9,21.01303,34.38495,return,1.9878371999948286,,,,,,,,,,,,,,,,,708,23,male,left_right_width,2024-05-23_12h45.23.640,exp1,2023.1.0,60.00085200461607,
,,,,,,,,,,,,,,,,,,,,,,,,,,,,,,,,,,,,,,,,,,,,,,,,,,,,,,,,,,,,,,,,,,,,,,,,,,,c,24.467050299979746,,,,,,,,,,,,,,,708,23,male,left_right_width,2024-05-23_12h45.23.640,exp1,2023.1.0,60.00085200461607,
,,,,,,,,,,,,,,,,3,9.3,10,10.7,0,0,0.7,0.1499999999999999,0.55,1.95,10,initial,36.05,335,361,386,0,0,9,9,9,0,0,,,,,,,0,0,0,0,0,0,0,6,,,,,,,,,,,,num_3,1.7994157999637537,num_3,0.35,0.4,0.35,0.45,13.37193,17.19248,return,1.448705399991013,,,,,,,,,,,,,,,,,708,23,male,left_right_width,2024-05-23_12h45.23.640,exp1,2023.1.0,60.00085200461607,
,,,,,,,,,,,,,,,,3,8.6,10,11.4,0,0,1.4,0.85,0.55,3.35,10,match,36.05,310,361,411,0,0,9,9,9,0,0,,,,,,,0,0,0,0,0,1,1,41,,,,,,,,,,,,num_3,2.4121049999957904,num_3,0.4,0.7,0.45,0.75,17.19248,28.65413,return,42.93455679999897,,,,,,,,,,,,,,,,,708,23,male,left_right_width,2024-05-23_12h45.23.640,exp1,2023.1.0,60.00085200461607,
,,,,,,,,,,,,,,,,5,7.8,8.9,10,11.1,12.2,1.1,0.55,0.55,4.95,10,initial,36.05,281,321,361,400,440,9,9,9,9,9,,,,,,,0,0,0,0,0,2,2,34,,,,,,,,,,,,num_5,1.1926314000156708,num_5,0.2,0.4,0.25,0.65,9.55138,24.83358,return,2.99592360004317,,,,,,,,,,,,,,,,,708,23,male,left_right_width,2024-05-23_12h45.23.640,exp1,2023.1.0,60.00085200461607,
,,,,,,,,,,,,,,,,5,7.8,8.9,10,11.1,12.2,1.1,0.8500000000000001,0.25,4.65,10,initial,36.05,281,321,361,400,440,9,9,9,9,9,,,,,,,0,0,0,0,0,3,3,36,,,,,,,,,,,,num_4,0.9569901999784634,num_4,0.2,1.0,0.2,1.0,7.6411,38.2055,return,0.48175140004605055,,,,,,,,,,,,,,,,,708,23,male,left_right_width,2024-05-23_12h45.23.640,exp1,2023.1.0,60.00085200461607,
,,,,,,,,,,,,,,,,5,8.65,9.325,10,10.675,11.35,0.675,0.275,0.4,3.1,10,match,36.05,312,336,361,385,409,9,9,9,9,9,,,,,,,0,0,0,0,0,4,4,33,,,,,,,,,,,,num_5,1.8033469999791123,num_5,0.5,1.0,0.5,1.0,19.10275,38.2055,return,0.3836284000426531,,,,,,,,,,,,,,,,,708,23,male,left_right_width,2024-05-23_12h45.23.640,exp1,2023.1.0,60.00085200461607,
,,,,,,,,,,,,,,,,3,8.9,10,11.1,0,0,1.1,0.8500000000000001,0.25,2.45,10,initial,36.05,321,361,400,0,0,9,9,9,0,0,,,,,,,0,0,0,0,0,5,5,2,,,,,,,,,,,,num_3,1.244726200005971,num_3,0.35,1,0.25,1.1,9.55138,42.02605,return,2.2330311000114307,,,,,,,,,,,,,,,,,708,23,male,left_right_width,2024-05-23_12h45.23.640,exp1,2023.1.0,60.00085200461607,
,,,,,,,,,,,,,,,,4,9.1,9.7,10.3,10.9,0,0.6,0.04999999999999997,0.55,2.35,10,match,36.05,328,350,371,393,0,9,9,9,9,0,,,,,,,0,0,0,0,0,6,6,12,,,,,,,,,,,,num_2,1.8732464000349864,num_2,0.2,1.4,0.6,1.4,22.9233,53.48771,return,4.0158175000105985,,,,,,,,,,,,,,,,,708,23,male,left_right_width,2024-05-23_12h45.23.640,exp1,2023.1.0,60.00085200461607,
,,,,,,,,,,,,,,,,3,7.800000000000001,10,12.2,0,0,2.1999999999999997,1.7999999999999998,0.4,4.8,10,match,36.05,281,361,440,0,0,9,9,9,0,0,,,,,,,0,0,0,0,0,7,7,39,,,,,,,,,,,,num_3,1.2756125999731012,num_3,0.5,1.2,0.5,1.35,19.10275,51.57743,return,1.4779865000164136,,,,,,,,,,,,,,,,,708,23,male,left_right_width,2024-05-23_12h45.23.640,exp1,2023.1.0,60.00085200461607,
,,,,,,,,,,,,,,,,3,9.1,10,10.9,0,0,0.9,0.35,0.55,2.35,10,initial,36.05,328,361,393,0,0,9,9,9,0,0,,,,,,,0,0,0,0,0,8,8,11,,,,,,,,,,,,num_3,1.8620852999738418,num_3,0.4,1.1,0.4,1.1,15.2822,42.02605,return,0.6617561000166461,,,,,,,,,,,,,,,,,708,23,male,left_right_width,2024-05-23_12h45.23.640,exp1,2023.1.0,60.00085200461607,
,,,,,,,,,,,,,,,,4,8.95,9.65,10.35,11.05,0,0.7,0.1499999999999999,0.55,2.65,10,initial,36.05,323,348,373,398,0,9,9,9,9,0,,,,,,,0,0,0,0,0,9,9,23,,,,,,,,,,,,num_4,1.9591932999901474,num_4,0.25,0.9,0.39999999999999997,0.9,15.2822,34.38495,return,2.5617129000020213,,,,,,,,,,,,,,,,,708,23,male,left_right_width,2024-05-23_12h45.23.640,exp1,2023.1.0,60.00085200461607,
,,,,,,,,,,,,,,,,4,8.825,9.608333333333333,10.391666666666667,11.175,0,0.7833333333333333,0.5333333333333333,0.25,2.6,10,match,36.05,318,346,375,403,0,9,9,9,9,0,,,,,,,0,0,0,0,0,10,10,5,,,,,,,,,,,,num_4,1.410178399994038,num_4,0.55,0.9,0.55,0.9,21.01303,34.38495,return,0.43444499996257946,,,,,,,,,,,,,,,,,708,23,male,left_right_width,2024-05-23_12h45.23.640,exp1,2023.1.0,60.00085200461607,
,,,,,,,,,,,,,,,,5,8.35,9.175,10,10.825,11.65,0.8250000000000001,0.275,0.55,3.85,10,match,36.05,301,331,361,390,420,9,9,9,9,9,,,,,,,0,0,0,0,0,11,11,18,,,,,,,,,,,,num_6,1.4348057000315748,num_6,0.55,1.3,0.55,1.3,21.01303,49.66716,return,0.5393006000085734,,,,,,,,,,,,,,,,,708,23,male,left_right_width,2024-05-23_12h45.23.640,exp1,2023.1.0,60.00085200461607,
,,,,,,,,,,,,,,,,3,8.2,10,11.8,0,0,1.8,1.55,0.25,3.85,10,match,36.05,296,361,425,0,0,9,9,9,0,0,,,,,,,0,0,0,0,0,12,12,49,,,,,,,,,,,,num_3,0.9883364000124857,num_3,0.25,0.3,0.25,0.7,9.55138,26.74385,return,4.549192899954505,,,,,,,,,,,,,,,,,708,23,male,left_right_width,2024-05-23_12h45.23.640,exp1,2023.1.0,60.00085200461607,
,,,,,,,,,,,,,,,,4,8.35,9.45,10.55,11.65,0,1.1,0.55,0.55,3.8500000000000005,10,initial,36.05,301,341,380,420,0,9,9,9,9,0,,,,,,,0,0,0,0,0,13,13,17,,,,,,,,,,,,num_4,2.191759600013029,num_4,0.55,1.0,0.55,1.0,21.01303,38.2055,return,0.3554814000381157,,,,,,,,,,,,,,,,,708,23,male,left_right_width,2024-05-23_12h45.23.640,exp1,2023.1.0,60.00085200461607,
,,,,,,,,,,,,,,,,4,9.3,9.766666666666667,10.233333333333333,10.7,0,0.4666666666666667,0.06666666666666665,0.4,1.8,10,match,36.05,335,352,369,386,0,9,9,9,9,0,,,,,,,0,0,0,0,0,14,14,10,,,,,,,,,,,,num_4,0.8656245999736711,num_4,0.55,0.8,0.55,0.6,21.01303,22.9233,return,1.2575198999838904,,,,,,,,,,,,,,,,,708,23,male,left_right_width,2024-05-23_12h45.23.640,exp1,2023.1.0,60.00085200461607,
,,,,,,,,,,,,,,,,4,9.1,9.7,10.3,10.9,0,0.6000000000000001,0.20000000000000004,0.4,2.2,10,match,36.05,328,350,371,393,0,9,9,9,9,0,,,,,,,0,0,0,0,0,15,15,16,,,,,,,,,,,,num_4,1.0166054000146687,num_4,0.55,1.0,0.55,0.8,21.01303,30.5644,return,0.974667500006035,,,,,,,,,,,,,,,,,708,23,male,left_right_width,2024-05-23_12h45.23.640,exp1,2023.1.0,60.00085200461607,
,,,,,,,,,,,,,,,,5,8.2,9.1,10,10.9,11.8,0.9,0.5,0.4,4,10,initial,36.05,296,328,361,393,425,9,9,9,9,9,,,,,,,0,0,0,0,0,16,16,50,,,,,,,,,,,,num_4,0.8915634999866597,num_4,0.4,1.1,0.4,1.1,15.2822,42.02605,return,0.08699030004208907,,,,,,,,,,,,,,,,,708,23,male,left_right_width,2024-05-23_12h45.23.640,exp1,2023.1.0,60.00085200461607,
,,,,,,,,,,,,,,,,3,8.6,10,11.4,0,0,1.4,1.15,0.25,3.05,10,match,36.05,310,361,411,0,0,9,9,9,0,0,,,,,,,0,0,0,0,0,17,17,43,,,,,,,,,,,,num_2,0.7352462999988347,num_2,0.3,1.0,0.3,0.9,11.46165,34.38495,return,1.100701300019864,,,,,,,,,,,,,,,,,708,23,male,left_right_width,2024-05-23_12h45.23.640,exp1,2023.1.0,60.00085200461607,
,,,,,,,,,,,,,,,,3,8.2,10,11.8,0,0,1.7999999999999998,1.4,0.4,4,10,match,36.05,296,361,425,0,0,9,9,9,0,0,,,,,,,0,0,0,0,0,18,18,51,,,,,,,,,,,,num_3,0.7606979999691248,num_3,0.3,1.2,0.3,1.2,11.46165,45.8466,return,0.5011473000049591,,,,,,,,,,,,,,,,,708,23,male,left_right_width,2024-05-23_12h45.23.640,exp1,2023.1.0,60.00085200461607,
,,,,,,,,,,,,,,,,4,8.95,9.65,10.35,11.05,0,0.7,0.29999999999999993,0.4,2.5,10,initial,36.05,323,348,373,398,0,9,9,9,9,0,,,,,,,0,0,0,0,0,19,19,26,,,,,,,,,,,,num_4,0.8762295000487939,num_4,0.35,0.9,0.35,0.9,13.37193,34.38495,return,0.26268200000049546,,,,,,,,,,,,,,,,,708,23,male,left_right_width,2024-05-23_12h45.23.640,exp1,2023.1.0,60.00085200461607,
,,,,,,,,,,,,,,,,4,8.95,9.65,10.35,11.05,0,0.7,0.44999999999999996,0.25,2.3499999999999996,10,initial,36.05,323,348,373,398,0,9,9,9,9,0,,,,,,,0,0,0,0,0,20,20,24,,,,,,,,,,,,num_4,0.7948130000149831,num_4,0.2,0.7,0.2,0.7,7.6411,26.74385,return,0.2122477000229992,,,,,,,,,,,,,,,,,708,23,male,left_right_width,2024-05-23_12h45.23.640,exp1,2023.1.0,60.00085200461607,
,,,,,,,,,,,,,,,,5,8.65,9.325,10,10.675,11.35,0.675,0.125,0.55,3.25,10,match,36.05,312,336,361,385,409,9,9,9,9,9,,,,,,,0,0,0,0,0,21,21,29,,,,,,,,,,,,num_6,1.1173984000342898,num_6,0.3,0.6,0.3,0.5,11.46165,19.10275,return,1.1472196000395343,,,,,,,,,,,,,,,,,708,23,male,left_right_width,2024-05-23_12h45.23.640,exp1,2023.1.0,60.00085200461607,
,,,,,,,,,,,,,,,,4,8.35,9.45,10.55,11.65,0,1.1,0.8500000000000001,0.25,3.5500000000000003,10,initial,36.05,301,341,380,420,0,9,9,9,9,0,,,,,,,0,0,0,0,0,22,22,19,,,,,,,,,,,,num_4,0.8695946999941953,num_4,0.45,0.9,0.25000000000000006,1.0,9.55138,38.2055,return,2.1420764999929816,,,,,,,,,,,,,,,,,708,23,male,left_right_width,2024-05-23_12h45.23.640,exp1,2023.1.0,60.00085200461607,
,,,,,,,,,,,,,,,,5,8.95,9.475,10,10.525,11.05,0.525,0.125,0.4,2.5,10,match,36.05,323,342,361,379,398,9,9,9,9,9,,,,,,,0,0,0,0,0,23,23,27,,,,,,,,,,,,num_5,0.8685987000353634,num_5,0.5,0.6,0.5,0.6,19.10275,22.9233,return,0.0974798000534065,,,,,,,,,,,,,,,,,708,23,male,left_right_width,2024-05-23_12h45.23.640,exp1,2023.1.0,60.00085200461607,
,,,,,,,,,,,,,,,,4,9.1,9.7,10.3,10.9,0,0.5999999999999999,0.3499999999999999,0.25,2.05,10,match,36.05,328,350,371,393,0,9,9,9,9,0,,,,,,,0,0,0,0,0,24,24,14,,,,,,,,,,,,num_4,0.5801695000263862,num_4,0.4,1.1,0.4,1.1,15.2822,42.02605,return,0.1344329999992624,,,,,,,,,,,,,,,,,708,23,male,left_right_width,2024-05-23_12h45.23.640,exp1,2023.1.0,60.00085200461607,
,,,,,,,,,,,,,,,,4,8.35,9.45,10.55,11.65,0,1.1,0.7000000000000001,0.4,3.7,10,initial,36.05,301,341,380,420,0,9,9,9,9,0,,,,,,,0,0,0,0,0,25,25,21,,,,,,,,,,,,num_4,0.44632149999961257,num_4,0.45,1.3,0.45,1.3,17.19248,49.66716,return,0.09076619998086244,,,,,,,,,,,,,,,,,708,23,male,left_right_width,2024-05-23_12h45.23.640,exp1,2023.1.0,60.00085200461607,
,,,,,,,,,,,,,,,,3,8.2,10,11.8,0,0,1.8,1.25,0.55,4.15,10,match,36.05,296,361,425,0,0,9,9,9,0,0,,,,,,,0,0,0,0,0,26,26,47,,,,,,,,,,,,num_3,0.7460246999980882,num_3,0.4,1.2,0.4,1.2,15.2822,45.8466,return,0.1667347999755293,,,,,,,,,,,,,,,,,708,23,male,left_right_width,2024-05-23_12h45.23.640,exp1,2023.1.0,60.00085200461607,
,,,,,,,,,,,,,,,,3,8.9,10,11.1,0,0,1.1,0.7000000000000001,0.4,2.6000000000000005,10,initial,36.05,321,361,400,0,0,9,9,9,0,0,,,,,,,0,0,0,0,0,27,27,4,,,,,,,,,,,,num_3,0.24218719999771565,num_3,0.3,0.6,0.3,0.6,11.46165,22.9233,return,0.07100700004957616,,,,,,,,,,,,,,,,,708,23,male,left_right_width,2024-05-23_12h45.23.640,exp1,2023.1.0,60.00085200461607,
,,,,,,,,,,,,,,,,5,8.35,9.175,10,10.825,11.65,0.825,0.575,0.25,3.55,10,match,36.05,301,331,361,390,420,9,9,9,9,9,,,,,,,0,0,0,0,0,28,28,20,,,,,,,,,,,,num_5,0.8164984000031836,num_5,0.2,1.3,0.2,1.3,7.6411,49.66716,return,0.10909270000411198,,,,,,,,,,,,,,,,,708,23,male,left_right_width,2024-05-23_12h45.23.640,exp1,2023.1.0,60.00085200461607,
,,,,,,,,,,,,,,,,5,8.6,9.3,10,10.7,11.4,0.7,0.1499999999999999,0.55,3.3499999999999996,10,initial,36.05,310,335,361,386,411,9,9,9,9,9,,,,,,,0,0,0,0,0,29,29,40,,,,,,,,,,,,num_4,0.5580593000049703,num_4,0.45,0.7,0.45,0.7,17.19248,26.74385,return,0.13202799996361136,,,,,,,,,,,,,,,,,708,23,male,left_right_width,2024-05-23_12h45.23.640,exp1,2023.1.0,60.00085200461607,
,,,,,,,,,,,,,,,,5,8.6,9.3,10,10.7,11.4,0.7,0.29999999999999993,0.4,3.1999999999999997,10,initial,36.05,310,335,361,386,411,9,9,9,9,9,,,,,,,0,0,0,0,0,30,30,44,,,,,,,,,,,,num_4,0.32285130000673234,num_4,0.2,0.4,0.2,0.4,7.6411,15.2822,return,0.20735720003722236,,,,,,,,,,,,,,,,,708,23,male,left_right_width,2024-05-23_12h45.23.640,exp1,2023.1.0,60.00085200461607,
,,,,,,,,,,,,,,,,3,9.3,10,10.7,0,0,0.7,0.29999999999999993,0.4,1.8,10,initial,36.05,335,361,386,0,0,9,9,9,0,0,,,,,,,0,0,0,0,0,31,31,9,,,,,,,,,,,,num_2,0.3901688000187278,num_2,0.45,0.8,0.45,0.8,17.19248,30.5644,return,0.08234119997359812,,,,,,,,,,,,,,,,,708,23,male,left_right_width,2024-05-23_12h45.23.640,exp1,2023.1.0,60.00085200461607,
,,,,,,,,,,,,,,,,4,8.9,9.633333333333333,10.366666666666667,11.1,0,0.7333333333333334,0.4833333333333334,0.25,2.45,10,match,36.05,321,347,374,400,0,9,9,9,9,0,,,,,,,0,0,0,0,0,32,32,3,,,,,,,,,,,,num_3,0.3476115000084974,num_3,0.4,0.6,0.4,0.6,15.2822,22.9233,return,0.411249199998565,,,,,,,,,,,,,,,,,708,23,male,left_right_width,2024-05-23_12h45.23.640,exp1,2023.1.0,60.00085200461607,
,,,,,,,,,,,,,,,,3,7.8,10,12.2,0,0,2.2,1.9500000000000002,0.25,4.65,10,match,36.05,281,361,440,0,0,9,9,9,0,0,,,,,,,0,0,0,0,0,33,33,37,,,,,,,,,,,,num_3,0.4615871000569314,num_3,0.45,0.8,0.45,0.8,17.19248,30.5644,return,0.10042760003125295,,,,,,,,,,,,,,,,,708,23,male,left_right_width,2024-05-23_12h45.23.640,exp1,2023.1.0,60.00085200461607,
,,,,,,,,,,,,,,,,3,9.1,10,10.9,0,0,0.9,0.65,0.25,2.05,10,initial,36.05,328,361,393,0,0,9,9,9,0,0,,,,,,,0,0,0,0,0,34,34,13,,,,,,,,,,,,num_3,0.27899670001352206,num_3,0.3,1.2,0.3,1.2,11.46165,45.8466,return,0.24698340002214536,,,,,,,,,,,,,,,,,708,23,male,left_right_width,2024-05-23_12h45.23.640,exp1,2023.1.0,60.00085200461607,
,,,,,,,,,,,,,,,,3,8.525,10,11.475,0,0,1.475,1.225,0.25,3.2,10,match,36.05,307,361,414,0,0,9,9,9,0,0,,,,,,,0,0,0,0,0,35,35,45,,,,,,,,,,,,num_3,0.3109464000444859,num_3,0.5,0.8,0.5,0.8,19.10275,30.5644,return,0.24734220001846552,,,,,,,,,,,,,,,,,708,23,male,left_right_width,2024-05-23_12h45.23.640,exp1,2023.1.0,60.00085200461607,
,,,,,,,,,,,,,,,,5,8.6,9.3,10,10.7,11.4,0.7,0.44999999999999996,0.25,3.05,10,initial,36.05,310,335,361,386,411,9,9,9,9,9,,,,,,,0,0,0,0,0,36,36,42,,,,,,,,,,,,num_4,0.516278900031466,num_4,0.2,0.3,0.2,0.3,7.6411,11.46165,return,0.15246800001477823,,,,,,,,,,,,,,,,,708,23,male,left_right_width,2024-05-23_12h45.23.640,exp1,2023.1.0,60.00085200461607,
,,,,,,,,,,,,,,,,3,9.3,10,10.7,0,0,0.7,0.44999999999999996,0.25,1.65,10,initial,36.05,335,361,386,0,0,9,9,9,0,0,,,,,,,0,0,0,0,0,37,37,7,,,,,,,,,,,,num_3,0.29343830002471805,num_3,0.5,0.7,0.5,0.7,19.10275,26.74385,return,0.19934630003990605,,,,,,,,,,,,,,,,,708,23,male,left_right_width,2024-05-23_12h45.23.640,exp1,2023.1.0,60.00085200461607,
,,,,,,,,,,,,,,,,5,7.8,8.9,10,11.1,12.2,1.1,0.7000000000000001,0.4,4.800000000000001,10,initial,36.05,281,321,361,400,440,9,9,9,9,9,,,,,,,0,0,0,0,0,38,38,38,,,,,,,,,,,,num_5,0.8893731000134721,num_5,0.2,1.0,0.2,1.0,7.6411,38.2055,return,0.16061340004671365,,,,,,,,,,,,,,,,,708,23,male,left_right_width,2024-05-23_12h45.23.640,exp1,2023.1.0,60.00085200461607,
,,,,,,,,,,,,,,,,5,8.65,9.325,10,10.675,11.35,0.675,0.42500000000000004,0.25,2.95,10,match,36.05,312,336,361,385,409,9,9,9,9,9,,,,,,,0,0,0,0,0,39,39,31,,,,,,,,,,,,num_6,0.7531085999798961,num_6,0.5,0.6,0.5,0.6,19.10275,22.9233,return,0.1236784000066109,,,,,,,,,,,,,,,,,708,23,male,left_right_width,2024-05-23_12h45.23.640,exp1,2023.1.0,60.00085200461607,
,,,,,,,,,,,,,,,,4,8.9,9.633333333333333,10.366666666666667,11.1,0,0.7333333333333333,0.18333333333333326,0.55,2.75,10,match,36.05,321,347,374,400,0,9,9,9,9,0,,,,,,,0,0,0,0,0,40,40,1,,,,,,,,,,,,num_5,0.9826030000112951,num_5,0.5,0.9,0.5,0.9,19.10275,34.38495,return,0.15476200002012774,,,,,,,,,,,,,,,,,708,23,male,left_right_width,2024-05-23_12h45.23.640,exp1,2023.1.0,60.00085200461607,
,,,,,,,,,,,,,,,,3,8.9,10,11.1,0,0,1.1,0.55,0.55,2.75,10,initial,36.05,321,361,400,0,0,9,9,9,0,0,,,,,,,0,0,0,0,0,41,41,0,,,,,,,,,,,,num_5,0.1366109999944456,num_5,0.5,1.0,0.5,1.0,19.10275,38.2055,return,0.14641859999392182,,,,,,,,,,,,,,,,,708,23,male,left_right_width,2024-05-23_12h45.23.640,exp1,2023.1.0,60.00085200461607,
,,,,,,,,,,,,,,,,5,8.2,9.1,10,10.9,11.8,0.9,0.35,0.55,4.15,10,initial,36.05,296,328,361,393,425,9,9,9,9,9,,,,,,,0,0,0,0,0,42,42,46,,,,,,,,,,,,num_4,1.1737771999905817,num_4,0.55,0.9,0.55,0.9,21.01303,34.38495,return,0.2579700000351295,,,,,,,,,,,,,,,,,708,23,male,left_right_width,2024-05-23_12h45.23.640,exp1,2023.1.0,60.00085200461607,
,,,,,,,,,,,,,,,,4,8.65,9.55,10.45,11.35,0,0.9,0.65,0.25,2.95,10,initial,36.05,312,344,377,409,0,9,9,9,9,0,,,,,,,0,0,0,0,0,43,43,30,,,,,,,,,,,,num_4,0.28014089999487624,num_4,0.45,0.5,0.45,0.5,17.19248,19.10275,return,0.18745729996589944,,,,,,,,,,,,,,,,,708,23,male,left_right_width,2024-05-23_12h45.23.640,exp1,2023.1.0,60.00085200461607,
,,,,,,,,,,,,,,,,5,8.275,9.1375,10,10.8625,11.725,0.8625,0.6125,0.25,3.7,10,match,36.05,298,329,361,392,423,9,9,9,9,9,,,,,,,0,0,0,0,0,44,44,22,,,,,,,,,,,,num_5,0.6947831999859773,num_5,0.35,1.0,0.35,1.0,13.37193,38.2055,return,0.16202990000601858,,,,,,,,,,,,,,,,,708,23,male,left_right_width,2024-05-23_12h45.23.640,exp1,2023.1.0,60.00085200461607,
,,,,,,,,,,,,,,,,4,8.65,9.55,10.45,11.35,0,0.9,0.35,0.55,3.25,10,initial,36.05,312,344,377,409,0,9,9,9,9,0,,,,,,,0,0,0,0,0,45,45,28,,,,,,,,,,,,num_5,0.25095990003319457,num_5,0.25,0.8,0.25,0.8,9.55138,30.5644,return,0.17034609999973327,,,,,,,,,,,,,,,,,708,23,male,left_right_width,2024-05-23_12h45.23.640,exp1,2023.1.0,60.00085200461607,
,,,,,,,,,,,,,,,,3,7.8,10,12.2,0,0,2.2,1.65,0.55,4.95,10,match,36.05,281,361,440,0,0,9,9,9,0,0,,,,,,,0,0,0,0,0,46,46,35,,,,,,,,,,,,num_3,0.9778612999944016,num_3,0.35,0.5,0.35,0.5,13.37193,19.10275,return,0.16482370003359392,,,,,,,,,,,,,,,,,708,23,male,left_right_width,2024-05-23_12h45.23.640,exp1,2023.1.0,60.00085200461607,
,,,,,,,,,,,,,,,,3,9.1,10,10.9,0,0,0.9,0.5,0.4,2.2,10,initial,36.05,328,361,393,0,0,9,9,9,0,0,,,,,,,0,0,0,0,0,47,47,15,,,,,,,,,,,,num_3,1.393498899997212,num_3,0.55,1.1,0.55,1.1,21.01303,42.02605,return,0.11727570003131405,,,,,,,,,,,,,,,,,708,23,male,left_right_width,2024-05-23_12h45.23.640,exp1,2023.1.0,60.00085200461607,
,,,,,,,,,,,,,,,,4,9.3,9.766666666666667,10.233333333333333,10.7,0,0.4666666666666667,0.21666666666666665,0.25,1.65,10,match,36.05,335,352,369,386,0,9,9,9,9,0,,,,,,,0,0,0,0,0,48,48,8,,,,,,,,,,,,num_4,0.8486224000225775,num_4,0.35,0.4,0.35,0.4,13.37193,15.2822,return,0.1092645000317134,,,,,,,,,,,,,,,,,708,23,male,left_right_width,2024-05-23_12h45.23.640,exp1,2023.1.0,60.00085200461607,
,,,,,,,,,,,,,,,,4,8.65,9.55,10.45,11.35,0,0.9,0.5,0.4,3.1,10,initial,36.05,312,344,377,409,0,9,9,9,9,0,,,,,,,0,0,0,0,0,49,49,32,,,,,,,,,,,,num_4,1.499725200003013,num_4,0.3,0.6,0.3,0.6,11.46165,22.9233,return,0.20199819997651502,,,,,,,,,,,,,,,,,708,23,male,left_right_width,2024-05-23_12h45.23.640,exp1,2023.1.0,60.00085200461607,
,,,,,,,,,,,,,,,,5,8.95,9.475,10,10.525,11.05,0.525,0.275,0.25,2.35,10,match,36.05,323,342,361,379,398,9,9,9,9,9,,,,,,,0,0,0,0,0,50,50,25,,,,,,,,,,,,num_5,1.712670299981255,num_5,0.25,0.4,0.25,0.5,9.55138,19.10275,return,1.6905666000093333,,,,,,,,,,,,,,,,,708,23,male,left_right_width,2024-05-23_12h45.23.640,exp1,2023.1.0,60.00085200461607,
,,,,,,,,,,,,,,,,5,8.2,9.1,10,10.9,11.8,0.9,0.65,0.25,3.85,10,initial,36.05,296,328,361,393,425,9,9,9,9,9,,,,,,,0,0,0,0,0,51,51,48,,,,,,,,,,,,num_4,0.8786294999881648,num_4,0.55,1.1,0.55,1.1,21.01303,42.02605,return,0.12131539999973029,,,,,,,,,,,,,,,,,708,23,male,left_right_width,2024-05-23_12h45.23.640,exp1,2023.1.0,60.00085200461607,
,,,,,,,,,,,,,,,,,,,,,,,,,,,,,,,,,,,,,,,,,,,,,0,0,0,0,,,,,,,,,,,,,,,,,,,,,,,,,,,,,680.1389433000004,680.1389433000004,680.1389433000004,,,,,,,,,,,,708,23,male,left_right_width,2024-05-23_12h45.23.640,exp1,2023.1.0,60.00085200461607,
,,,,,,,,,,,,,,,,5,8.35,9.175,10,10.825,11.65,0.8250000000000001,0.275,0.55,3.85,10,match,36.05,301,331,361,390,420,9,9,9,9,9,,,,,,,1,0,1,0,0,0,0,18,,,,,,,,,,,,num_5,1.0099213000503369,num_5,0.2,0.9,0.2,0.9,7.6411,34.38495,return,1.7473794000106864,,,,,,,,,,,,,,,,,708,23,male,left_right_width,2024-05-23_12h45.23.640,exp1,2023.1.0,60.00085200461607,
,,,,,,,,,,,,,,,,3,8.2,10,11.8,0,0,1.8,1.25,0.55,4.15,10,match,36.05,296,361,425,0,0,9,9,9,0,0,,,,,,,1,0,1,0,0,1,1,47,,,,,,,,,,,,num_2,1.0889687000308186,num_2,0.3,1.6,0.3,1.7,11.46165,64.94936,return,1.0068685000296682,,,,,,,,,,,,,,,,,708,23,male,left_right_width,2024-05-23_12h45.23.640,exp1,2023.1.0,60.00085200461607,
,,,,,,,,,,,,,,,,5,7.8,8.9,10,11.1,12.2,1.1,0.7000000000000001,0.4,4.800000000000001,10,initial,36.05,281,321,361,400,440,9,9,9,9,9,,,,,,,1,0,1,0,0,2,2,38,,,,,,,,,,,,num_5,1.3748100000084378,num_5,0.5,1.3,0.5,1.3,19.10275,49.66716,return,0.24220169999171048,,,,,,,,,,,,,,,,,708,23,male,left_right_width,2024-05-23_12h45.23.640,exp1,2023.1.0,60.00085200461607,
,,,,,,,,,,,,,,,,4,8.95,9.65,10.35,11.05,0,0.7,0.29999999999999993,0.4,2.5,10,initial,36.05,323,348,373,398,0,9,9,9,9,0,,,,,,,1,0,1,0,0,3,3,26,,,,,,,,,,,,num_4,0.6395197000238113,num_4,0.25,1.0,0.25,1.0,9.55138,38.2055,return,0.18053620000137016,,,,,,,,,,,,,,,,,708,23,male,left_right_width,2024-05-23_12h45.23.640,exp1,2023.1.0,60.00085200461607,
,,,,,,,,,,,,,,,,3,8.2,10,11.8,0,0,1.7999999999999998,1.4,0.4,4,10,match,36.05,296,361,425,0,0,9,9,9,0,0,,,,,,,1,0,1,0,0,4,4,51,,,,,,,,,,,,num_3,0.682532100006938,num_3,0.25,0.5,0.3,0.9,11.46165,34.38495,return,3.0065367000061087,,,,,,,,,,,,,,,,,708,23,male,left_right_width,2024-05-23_12h45.23.640,exp1,2023.1.0,60.00085200461607,
,,,,,,,,,,,,,,,,4,8.95,9.65,10.35,11.05,0,0.7,0.44999999999999996,0.25,2.3499999999999996,10,initial,36.05,323,348,373,398,0,9,9,9,9,0,,,,,,,1,0,1,0,0,5,5,24,,,,,,,,,,,,num_4,0.7603511000052094,num_4,0.35,0.6,0.35,0.6,13.37193,22.9233,return,0.24886260001221672,,,,,,,,,,,,,,,,,708,23,male,left_right_width,2024-05-23_12h45.23.640,exp1,2023.1.0,60.00085200461607,
,,,,,,,,,,,,,,,,3,9.1,10,10.9,0,0,0.9,0.5,0.4,2.2,10,initial,36.05,328,361,393,0,0,9,9,9,0,0,,,,,,,1,0,1,0,0,6,6,15,,,,,,,,,,,,num_3,2.8265904000145383,num_3,0.55,0.9,0.55,0.9,21.01303,34.38495,return,0.2177873000036925,,,,,,,,,,,,,,,,,708,23,male,left_right_width,2024-05-23_12h45.23.640,exp1,2023.1.0,60.00085200461607,
,,,,,,,,,,,,,,,,4,9.3,9.766666666666667,10.233333333333333,10.7,0,0.4666666666666667,0.21666666666666665,0.25,1.65,10,match,36.05,335,352,369,386,0,9,9,9,9,0,,,,,,,1,0,1,0,0,7,7,8,,,,,,,,,,,,num_4,0.6969337000045925,num_4,0.25,0.9,0.25,0.9,9.55138,34.38495,return,0.17164640000555664,,,,,,,,,,,,,,,,,708,23,male,left_right_width,2024-05-23_12h45.23.640,exp1,2023.1.0,60.00085200461607,
,,,,,,,,,,,,,,,,5,7.8,8.9,10,11.1,12.2,1.1,0.55,0.55,4.95,10,initial,36.05,281,321,361,400,440,9,9,9,9,9,,,,,,,1,0,1,0,0,8,8,34,,,,,,,,,,,,num_4,0.5939764999784529,num_4,0.35,0.5,0.35,0.5,13.37193,19.10275,return,0.17599680001148954,,,,,,,,,,,,,,,,,708,23,male,left_right_width,2024-05-23_12h45.23.640,exp1,2023.1.0,60.00085200461607,
,,,,,,,,,,,,,,,,3,9.1,10,10.9,0,0,0.9,0.35,0.55,2.35,10,initial,36.05,328,361,393,0,0,9,9,9,0,0,,,,,,,1,0,1,0,0,9,9,11,,,,,,,,,,,,num_3,0.6074186000041664,num_3,0.2,0.9,0.2,0.9,7.6411,34.38495,return,0.19291089999023825,,,,,,,,,,,,,,,,,708,23,male,left_right_width,2024-05-23_12h45.23.640,exp1,2023.1.0,60.00085200461607,
,,,,,,,,,,,,,,,,4,8.65,9.55,10.45,11.35,0,0.9,0.65,0.25,2.95,10,initial,36.05,312,344,377,409,0,9,9,9,9,0,,,,,,,1,0,1,0,0,10,10,30,,,,,,,,,,,,num_4,0.6992613999755122,num_4,0.55,0.7,0.15000000000000008,1.1,5.73083,42.02605,return,4.730789900000673,,,,,,,,,,,,,,,,,708,23,male,left_right_width,2024-05-23_12h45.23.640,exp1,2023.1.0,60.00085200461607,
,,,,,,,,,,,,,,,,5,8.65,9.325,10,10.675,11.35,0.675,0.125,0.55,3.25,10,match,36.05,312,336,361,385,409,9,9,9,9,9,,,,,,,1,0,1,0,0,11,11,29,,,,,,,,,,,,num_5,0.749931700003799,num_5,0.25,0.5,0.44999999999999996,0.6,17.19248,22.9233,return,1.7754214000306092,,,,,,,,,,,,,,,,,708,23,male,left_right_width,2024-05-23_12h45.23.640,exp1,2023.1.0,60.00085200461607,
,,,,,,,,,,,,,,,,5,8.95,9.475,10,10.525,11.05,0.525,0.275,0.25,2.35,10,match,36.05,323,342,361,379,398,9,9,9,9,9,,,,,,,1,0,1,0,0,12,12,25,,,,,,,,,,,,num_5,0.8417977999779396,num_5,0.25,0.7,0.25,0.7,9.55138,26.74385,return,0.34286959999008104,,,,,,,,,,,,,,,,,708,23,male,left_right_width,2024-05-23_12h45.23.640,exp1,2023.1.0,60.00085200461607,
,,,,,,,,,,,,,,,,3,8.6,10,11.4,0,0,1.4,1.15,0.25,3.05,10,match,36.05,310,361,411,0,0,9,9,9,0,0,,,,,,,1,0,1,0,0,13,13,43,,,,,,,,,,,,num_2,1.1697756000212394,num_2,0.45,0.6,0.45,0.6,17.19248,22.9233,return,0.15573940001195297,,,,,,,,,,,,,,,,,708,23,male,left_right_width,2024-05-23_12h45.23.640,exp1,2023.1.0,60.00085200461607,
,,,,,,,,,,,,,,,,4,8.65,9.55,10.45,11.35,0,0.9,0.5,0.4,3.1,10,initial,36.05,312,344,377,409,0,9,9,9,9,0,,,,,,,1,0,1,0,0,14,14,32,,,,,,,,,,,,num_4,0.7076274999999441,num_4,0.4,1.3,0.4,1.3,15.2822,49.66716,return,0.14826159999938682,,,,,,,,,,,,,,,,,708,23,male,left_right_width,2024-05-23_12h45.23.640,exp1,2023.1.0,60.00085200461607,
,,,,,,,,,,,,,,,,3,9.1,10,10.9,0,0,0.9,0.65,0.25,2.05,10,initial,36.05,328,361,393,0,0,9,9,9,0,0,,,,,,,1,0,1,0,0,15,15,13,,,,,,,,,,,,num_3,0.6408908999874257,num_3,0.4,1,0.4,1,15.2822,38.2055,return,0.2879255000152625,,,,,,,,,,,,,,,,,708,23,male,left_right_width,2024-05-23_12h45.23.640,exp1,2023.1.0,60.00085200461607,
,,,,,,,,,,,,,,,,5,7.8,8.9,10,11.1,12.2,1.1,0.8500000000000001,0.25,4.65,10,initial,36.05,281,321,361,400,440,9,9,9,9,9,,,,,,,1,0,1,0,0,16,16,36,,,,,,,,,,,,num_5,0.7008292000391521,num_5,0.25,0.9,0.25,0.9,9.55138,34.38495,return,0.14121770003112033,,,,,,,,,,,,,,,,,708,23,male,left_right_width,2024-05-23_12h45.23.640,exp1,2023.1.0,60.00085200461607,
,,,,,,,,,,,,,,,,4,8.9,9.633333333333333,10.366666666666667,11.1,0,0.7333333333333334,0.4833333333333334,0.25,2.45,10,match,36.05,321,347,374,400,0,9,9,9,9,0,,,,,,,1,0,1,0,0,17,17,3,,,,,,,,,,,,num_4,0.6741939999628812,num_4,0.35,0.6,0.35,0.6,13.37193,22.9233,return,0.1181541999685578,,,,,,,,,,,,,,,,,708,23,male,left_right_width,2024-05-23_12h45.23.640,exp1,2023.1.0,60.00085200461607,
,,,,,,,,,,,,,,,,4,8.95,9.65,10.35,11.05,0,0.7,0.1499999999999999,0.55,2.65,10,initial,36.05,323,348,373,398,0,9,9,9,9,0,,,,,,,1,0,1,0,0,18,18,23,,,,,,,,,,,,num_4,0.48461530002532527,num_4,0.45,0.6,0.45,0.6,17.19248,22.9233,return,0.13830079999752343,,,,,,,,,,,,,,,,,708,23,male,left_right_width,2024-05-23_12h45.23.640,exp1,2023.1.0,60.00085200461607,
,,,,,,,,,,,,,,,,5,8.6,9.3,10,10.7,11.4,0.7,0.1499999999999999,0.55,3.3499999999999996,10,initial,36.05,310,335,361,386,411,9,9,9,9,9,,,,,,,1,0,1,0,0,19,19,40,,,,,,,,,,,,num_5,0.82288949994836,num_5,0.5,0.7,0.5,0.7,19.10275,26.74385,return,0.690842000010889,,,,,,,,,,,,,,,,,708,23,male,left_right_width,2024-05-23_12h45.23.640,exp1,2023.1.0,60.00085200461607,
,,,,,,,,,,,,,,,,3,7.8,10,12.2,0,0,2.2,1.9500000000000002,0.25,4.65,10,match,36.05,281,361,440,0,0,9,9,9,0,0,,,,,,,1,0,1,0,0,20,20,37,,,,,,,,,,,,num_2,0.989062600012403,num_2,0.45,0.8,0.45,0.7,17.19248,26.74385,return,1.044160399993416,,,,,,,,,,,,,,,,,708,23,male,left_right_width,2024-05-23_12h45.23.640,exp1,2023.1.0,60.00085200461607,
,,,,,,,,,,,,,,,,4,8.825,9.608333333333333,10.391666666666667,11.175,0,0.7833333333333333,0.5333333333333333,0.25,2.6,10,match,36.05,318,346,375,403,0,9,9,9,9,0,,,,,,,1,0,1,0,0,21,21,5,,,,,,,,,,,,num_4,0.8114175000227988,num_4,0.2,0.5,0.2,0.5,7.6411,19.10275,return,0.4574494999833405,,,,,,,,,,,,,,,,,708,23,male,left_right_width,2024-05-23_12h45.23.640,exp1,2023.1.0,60.00085200461607,
,,,,,,,,,,,,,,,,5,8.2,9.1,10,10.9,11.8,0.9,0.35,0.55,4.15,10,initial,36.05,296,328,361,393,425,9,9,9,9,9,,,,,,,1,0,1,0,0,22,22,46,,,,,,,,,,,,num_5,0.7678545999806374,num_5,0.3,0.4,0.35,0.4,13.37193,15.2822,return,0.49546109995571896,,,,,,,,,,,,,,,,,708,23,male,left_right_width,2024-05-23_12h45.23.640,exp1,2023.1.0,60.00085200461607,
,,,,,,,,,,,,,,,,5,8.65,9.325,10,10.675,11.35,0.675,0.275,0.4,3.1,10,match,36.05,312,336,361,385,409,9,9,9,9,9,,,,,,,1,0,1,0,0,23,23,33,,,,,,,,,,,,num_5,0.8140897999983281,num_5,0.35,0.4,0.10000000000000002,0.35,3.82055,13.37193,return,1.5315050999633968,,,,,,,,,,,,,,,,,708,23,male,left_right_width,2024-05-23_12h45.23.640,exp1,2023.1.0,60.00085200461607,
,,,,,,,,,,,,,,,,3,8.2,10,11.8,0,0,1.8,1.55,0.25,3.85,10,match,36.05,296,361,425,0,0,9,9,9,0,0,,,,,,,1,0,1,0,0,24,24,49,,,,,,,,,,,,num_2,0.9993106999900192,num_2,0.2,1.4,0.2,1.4,7.6411,53.48771,return,0.13889020000351593,,,,,,,,,,,,,,,,,708,23,male,left_right_width,2024-05-23_12h45.23.640,exp1,2023.1.0,60.00085200461607,
,,,,,,,,,,,,,,,,5,8.6,9.3,10,10.7,11.4,0.7,0.44999999999999996,0.25,3.05,10,initial,36.05,310,335,361,386,411,9,9,9,9,9,,,,,,,1,0,1,0,0,25,25,42,,,,,,,,,,,,num_5,0.6030068999971263,num_5,0.55,1.2,0.55,1.2,21.01303,45.8466,return,0.09466750000137836,,,,,,,,,,,,,,,,,708,23,male,left_right_width,2024-05-23_12h45.23.640,exp1,2023.1.0,60.00085200461607,
,,,,,,,,,,,,,,,,3,8.9,10,11.1,0,0,1.1,0.8500000000000001,0.25,2.45,10,initial,36.05,321,361,400,0,0,9,9,9,0,0,,,,,,,1,0,1,0,0,26,26,2,,,,,,,,,,,,num_3,0.7950388000463136,num_3,0.2,0.3,0.2,0.3,7.6411,11.46165,return,0.12183740001637489,,,,,,,,,,,,,,,,,708,23,male,left_right_width,2024-05-23_12h45.23.640,exp1,2023.1.0,60.00085200461607,
,,,,,,,,,,,,,,,,5,8.2,9.1,10,10.9,11.8,0.9,0.65,0.25,3.85,10,initial,36.05,296,328,361,393,425,9,9,9,9,9,,,,,,,1,0,1,0,0,27,27,48,,,,,,,,,,,,num_4,0.8623553999932483,num_4,0.45,1.2,0.45,1.2,17.19248,45.8466,return,0.11721749999560416,,,,,,,,,,,,,,,,,708,23,male,left_right_width,2024-05-23_12h45.23.640,exp1,2023.1.0,60.00085200461607,
,,,,,,,,,,,,,,,,3,8.9,10,11.1,0,0,1.1,0.55,0.55,2.75,10,initial,36.05,321,361,400,0,0,9,9,9,0,0,,,,,,,1,0,1,0,0,28,28,0,,,,,,,,,,,,num_3,0.0935936999740079,num_3,0.5,0.6,0.5,0.6,19.10275,22.9233,return,0.10406729998067021,,,,,,,,,,,,,,,,,708,23,male,left_right_width,2024-05-23_12h45.23.640,exp1,2023.1.0,60.00085200461607,
,,,,,,,,,,,,,,,,4,9.1,9.7,10.3,10.9,0,0.6,0.04999999999999997,0.55,2.35,10,match,36.05,328,350,371,393,0,9,9,9,9,0,,,,,,,1,0,1,0,0,29,29,12,,,,,,,,,,,,num_4,5.745039400004316,num_4,0.3,0.7,0.3,0.7,11.46165,26.74385,return,0.8022773999837227,,,,,,,,,,,,,,,,,708,23,male,left_right_width,2024-05-23_12h45.23.640,exp1,2023.1.0,60.00085200461607,
,,,,,,,,,,,,,,,,5,8.65,9.325,10,10.675,11.35,0.675,0.42500000000000004,0.25,2.95,10,match,36.05,312,336,361,385,409,9,9,9,9,9,,,,,,,1,0,1,0,0,30,30,31,,,,,,,,,,,,num_4,0.6887534000561573,num_4,0.35,1.3,0.35,1.3,13.37193,49.66716,return,0.18065190000925213,,,,,,,,,,,,,,,,,708,23,male,left_right_width,2024-05-23_12h45.23.640,exp1,2023.1.0,60.00085200461607,
,,,,,,,,,,,,,,,,4,9.1,9.7,10.3,10.9,0,0.5999999999999999,0.3499999999999999,0.25,2.05,10,match,36.05,328,350,371,393,0,9,9,9,9,0,,,,,,,1,0,1,0,0,31,31,14,,,,,,,,,,,,num_3,0.2611441999906674,num_3,0.25,1.2,0.25,1.2,9.55138,45.8466,return,0.21770249999826774,,,,,,,,,,,,,,,,,708,23,male,left_right_width,2024-05-23_12h45.23.640,exp1,2023.1.0,60.00085200461607,
,,,,,,,,,,,,,,,,4,9.1,9.7,10.3,10.9,0,0.6000000000000001,0.20000000000000004,0.4,2.2,10,match,36.05,328,350,371,393,0,9,9,9,9,0,,,,,,,1,0,1,0,0,32,32,16,,,,,,,,,,,,num_5,0.4351664999849163,num_5,0.35,1.1,0.35,1.1,13.37193,42.02605,return,0.17039739998290315,,,,,,,,,,,,,,,,,708,23,male,left_right_width,2024-05-23_12h45.23.640,exp1,2023.1.0,60.00085200461607,
,,,,,,,,,,,,,,,,5,8.95,9.475,10,10.525,11.05,0.525,0.125,0.4,2.5,10,match,36.05,323,342,361,379,398,9,9,9,9,9,,,,,,,1,0,1,0,0,33,33,27,,,,,,,,,,,,num_5,0.6051461999886669,num_5,0.55,0.6,0.55,0.6,21.01303,22.9233,return,0.10615059995325282,,,,,,,,,,,,,,,,,708,23,male,left_right_width,2024-05-23_12h45.23.640,exp1,2023.1.0,60.00085200461607,
,,,,,,,,,,,,,,,,3,8.6,10,11.4,0,0,1.4,0.85,0.55,3.35,10,match,36.05,310,361,411,0,0,9,9,9,0,0,,,,,,,1,0,1,0,0,34,34,41,,,,,,,,,,,,num_3,1.0203879000036977,num_3,0.4,1.3,0.4,1.3,15.2822,49.66716,return,0.226200399978552,,,,,,,,,,,,,,,,,708,23,male,left_right_width,2024-05-23_12h45.23.640,exp1,2023.1.0,60.00085200461607,
,,,,,,,,,,,,,,,,4,9.3,9.766666666666667,10.233333333333333,10.7,0,0.4666666666666667,0.06666666666666665,0.4,1.8,10,match,36.05,335,352,369,386,0,9,9,9,9,0,,,,,,,1,0,1,0,0,35,35,10,,,,,,,,,,,,num_3,0.3467248000088148,num_3,0.4,0.7,0.4,0.7,15.2822,26.74385,return,0.20031760004349053,,,,,,,,,,,,,,,,,708,23,male,left_right_width,2024-05-23_12h45.23.640,exp1,2023.1.0,60.00085200461607,
,,,,,,,,,,,,,,,,4,8.35,9.45,10.55,11.65,0,1.1,0.55,0.55,3.8500000000000005,10,initial,36.05,301,341,380,420,0,9,9,9,9,0,,,,,,,1,0,1,0,0,36,36,17,,,,,,,,,,,,num_4,0.7051382000208832,num_4,0.5,1.2,0.5,1.2,19.10275,45.8466,return,0.0822638000245206,,,,,,,,,,,,,,,,,708,23,male,left_right_width,2024-05-23_12h45.23.640,exp1,2023.1.0,60.00085200461607,
,,,,,,,,,,,,,,,,4,8.65,9.55,10.45,11.35,0,0.9,0.35,0.55,3.25,10,initial,36.05,312,344,377,409,0,9,9,9,9,0,,,,,,,1,0,1,0,0,37,37,28,,,,,,,,,,,,num_4,0.5055055000120774,num_4,0.45,1.1,0.45,1.1,17.19248,42.02605,return,0.08042139996541664,,,,,,,,,,,,,,,,,708,23,male,left_right_width,2024-05-23_12h45.23.640,exp1,2023.1.0,60.00085200461607,
,,,,,,,,,,,,,,,,3,8.9,10,11.1,0,0,1.1,0.7000000000000001,0.4,2.6000000000000005,10,initial,36.05,321,361,400,0,0,9,9,9,0,0,,,,,,,1,0,1,0,0,38,38,4,,,,,,,,,,,,num_3,0.365863699989859,num_3,0.2,0.3,0.2,0.3,7.6411,11.46165,return,0.18857700005173683,,,,,,,,,,,,,,,,,708,23,male,left_right_width,2024-05-23_12h45.23.640,exp1,2023.1.0,60.00085200461607,
,,,,,,,,,,,,,,,,5,8.2,9.1,10,10.9,11.8,0.9,0.5,0.4,4,10,initial,36.05,296,328,361,393,425,9,9,9,9,9,,,,,,,1,0,1,0,0,39,39,50,,,,,,,,,,,,num_5,0.5065632999758236,num_5,0.4,1.2,0.4,1.2,15.2822,45.8466,return,0.14600599999539554,,,,,,,,,,,,,,,,,708,23,male,left_right_width,2024-05-23_12h45.23.640,exp1,2023.1.0,60.00085200461607,
,,,,,,,,,,,,,,,,5,8.35,9.175,10,10.825,11.65,0.825,0.575,0.25,3.55,10,match,36.05,301,331,361,390,420,9,9,9,9,9,,,,,,,1,0,1,0,0,40,40,20,,,,,,,,,,,,num_5,0.4722846000222489,num_5,0.4,0.7,0.4,0.7,15.2822,26.74385,return,0.1160634999978356,,,,,,,,,,,,,,,,,708,23,male,left_right_width,2024-05-23_12h45.23.640,exp1,2023.1.0,60.00085200461607,
,,,,,,,,,,,,,,,,3,9.3,10,10.7,0,0,0.7,0.44999999999999996,0.25,1.65,10,initial,36.05,335,361,386,0,0,9,9,9,0,0,,,,,,,1,0,1,0,0,41,41,7,,,,,,,,,,,,num_3,0.5615847000153735,num_3,0.35,0.7,0.35,0.55,13.37193,21.01303,return,0.729781300004106,,,,,,,,,,,,,,,,,708,23,male,left_right_width,2024-05-23_12h45.23.640,exp1,2023.1.0,60.00085200461607,
,,,,,,,,,,,,,,,,3,8.525,10,11.475,0,0,1.475,1.225,0.25,3.2,10,match,36.05,307,361,414,0,0,9,9,9,0,0,,,,,,,1,0,1,0,0,42,42,45,,,,,,,,,,,,num_3,0.5326533999759704,num_3,0.2,1.3,0.2,1.3,7.6411,49.66716,return,0.1561435000039637,,,,,,,,,,,,,,,,,708,23,male,left_right_width,2024-05-23_12h45.23.640,exp1,2023.1.0,60.00085200461607,
,,,,,,,,,,,,,,,,4,8.9,9.633333333333333,10.366666666666667,11.1,0,0.7333333333333333,0.18333333333333326,0.55,2.75,10,match,36.05,321,347,374,400,0,9,9,9,9,0,,,,,,,1,0,1,0,0,43,43,1,,,,,,,,,,,,num_4,0.9181337999762036,num_4,0.5,0.9,0.5,0.9,19.10275,34.38495,return,0.11149700003443286,,,,,,,,,,,,,,,,,708,23,male,left_right_width,2024-05-23_12h45.23.640,exp1,2023.1.0,60.00085200461607,
,,,,,,,,,,,,,,,,4,8.35,9.45,10.55,11.65,0,1.1,0.7000000000000001,0.4,3.7,10,initial,36.05,301,341,380,420,0,9,9,9,9,0,,,,,,,1,0,1,0,0,44,44,21,,,,,,,,,,,,num_2,0.47772189998067915,num_2,0.4,1.4,0.4,1.4,15.2822,53.48771,return,0.1648457000264898,,,,,,,,,,,,,,,,,708,23,male,left_right_width,2024-05-23_12h45.23.640,exp1,2023.1.0,60.00085200461607,
,,,,,,,,,,,,,,,,4,8.35,9.45,10.55,11.65,0,1.1,0.8500000000000001,0.25,3.5500000000000003,10,initial,36.05,301,341,380,420,0,9,9,9,9,0,,,,,,,1,0,1,0,0,45,45,19,,,,,,,,,,,,num_4,0.4440750000067055,num_4,0.25,0.5,0.25,0.5,9.55138,19.10275,return,0.08499780000420287,,,,,,,,,,,,,,,,,708,23,male,left_right_width,2024-05-23_12h45.23.640,exp1,2023.1.0,60.00085200461607,
,,,,,,,,,,,,,,,,3,9.3,10,10.7,0,0,0.7,0.1499999999999999,0.55,1.95,10,initial,36.05,335,361,386,0,0,9,9,9,0,0,,,,,,,1,0,1,0,0,46,46,6,,,,,,,,,,,,num_3,0.4173984000226483,num_3,0.25,0.8,0.25,0.8,9.55138,30.5644,return,0.09402509999927133,,,,,,,,,,,,,,,,,708,23,male,left_right_width,2024-05-23_12h45.23.640,exp1,2023.1.0,60.00085200461607,
,,,,,,,,,,,,,,,,3,7.800000000000001,10,12.2,0,0,2.1999999999999997,1.7999999999999998,0.4,4.8,10,match,36.05,281,361,440,0,0,9,9,9,0,0,,,,,,,1,0,1,0,0,47,47,39,,,,,,,,,,,,num_3,0.23450229997979477,num_3,0.4,0.8,0.4,0.8,15.2822,30.5644,return,0.11176060000434518,,,,,,,,,,,,,,,,,708,23,male,left_right_width,2024-05-23_12h45.23.640,exp1,2023.1.0,60.00085200461607,
,,,,,,,,,,,,,,,,5,8.6,9.3,10,10.7,11.4,0.7,0.29999999999999993,0.4,3.1999999999999997,10,initial,36.05,310,335,361,386,411,9,9,9,9,9,,,,,,,1,0,1,0,0,48,48,44,,,,,,,,,,,,num_5,0.724088600021787,num_5,0.2,0.4,0.2,0.4,7.6411,15.2822,return,0.114351500000339,,,,,,,,,,,,,,,,,708,23,male,left_right_width,2024-05-23_12h45.23.640,exp1,2023.1.0,60.00085200461607,
,,,,,,,,,,,,,,,,5,8.275,9.1375,10,10.8625,11.725,0.8625,0.6125,0.25,3.7,10,match,36.05,298,329,361,392,423,9,9,9,9,9,,,,,,,1,0,1,0,0,49,49,22,,,,,,,,,,,,num_5,0.632679000031203,num_5,0.4,1.1,0.25000000000000006,0.9,9.55138,34.38495,return,3.610773899999913,,,,,,,,,,,,,,,,,708,23,male,left_right_width,2024-05-23_12h45.23.640,exp1,2023.1.0,60.00085200461607,
,,,,,,,,,,,,,,,,3,7.8,10,12.2,0,0,2.2,1.65,0.55,4.95,10,match,36.05,281,361,440,0,0,9,9,9,0,0,,,,,,,1,0,1,0,0,50,50,35,,,,,,,,,,,,num_3,0.46524250000948086,num_3,0.3,0.8,0.3,0.8,11.46165,30.5644,return,0.09273529995698482,,,,,,,,,,,,,,,,,708,23,male,left_right_width,2024-05-23_12h45.23.640,exp1,2023.1.0,60.00085200461607,
,,,,,,,,,,,,,,,,3,9.3,10,10.7,0,0,0.7,0.29999999999999993,0.4,1.8,10,initial,36.05,335,361,386,0,0,9,9,9,0,0,,,,,,,1,0,1,0,0,51,51,9,,,,,,,,,,,,num_3,0.3709120000130497,num_3,0.35,0.7,0.35,0.7,13.37193,26.74385,return,0.11452669999562204,,,,,,,,,,,,,,,,,708,23,male,left_right_width,2024-05-23_12h45.23.640,exp1,2023.1.0,60.00085200461607,
,,,,,,,,,,,,,,,,,,,,,,,,,,,,,,,,,,,,,,,,,,,,,1,0,1,0,,,,,,,,,,,,,,,,,,,,,,,,,,,,,879.505860699981,879.505860699981,879.505860699981,,,,,,,,,,,,708,23,male,left_right_width,2024-05-23_12h45.23.640,exp1,2023.1.0,60.00085200461607,
,,,,,,,,,,,,,,,,4,8.825,9.608333333333333,10.391666666666667,11.175,0,0.7833333333333333,0.5333333333333333,0.25,2.6,10,match,36.05,318,346,375,403,0,9,9,9,9,0,,,,,,,2,0,2,0,0,0,0,5,,,,,,,,,,,,num_4,0.8006813999963924,num_4,0.35,1.2,0.35,1.2,13.37193,45.8466,return,0.1229410000378266,,,,,,,,,,,,,,,,,708,23,male,left_right_width,2024-05-23_12h45.23.640,exp1,2023.1.0,60.00085200461607,
,,,,,,,,,,,,,,,,3,7.800000000000001,10,12.2,0,0,2.1999999999999997,1.7999999999999998,0.4,4.8,10,match,36.05,281,361,440,0,0,9,9,9,0,0,,,,,,,2,0,2,0,0,1,1,39,,,,,,,,,,,,num_3,0.7110974999959581,num_3,0.45,0.7,0.45,0.7,17.19248,26.74385,return,0.1510503999888897,,,,,,,,,,,,,,,,,708,23,male,left_right_width,2024-05-23_12h45.23.640,exp1,2023.1.0,60.00085200461607,
,,,,,,,,,,,,,,,,4,8.9,9.633333333333333,10.366666666666667,11.1,0,0.7333333333333333,0.18333333333333326,0.55,2.75,10,match,36.05,321,347,374,400,0,9,9,9,9,0,,,,,,,2,0,2,0,0,2,2,1,,,,,,,,,,,,num_4,0.6787302000448108,num_4,0.5,0.9,0.5,0.9,19.10275,34.38495,return,0.11865459999535233,,,,,,,,,,,,,,,,,708,23,male,left_right_width,2024-05-23_12h45.23.640,exp1,2023.1.0,60.00085200461607,
,,,,,,,,,,,,,,,,3,7.8,10,12.2,0,0,2.2,1.65,0.55,4.95,10,match,36.05,281,361,440,0,0,9,9,9,0,0,,,,,,,2,0,2,0,0,3,3,35,,,,,,,,,,,,num_3,0.49337999999988824,num_3,0.2,1.2,0.2,1.2,7.6411,45.8466,return,0.13600429997313768,,,,,,,,,,,,,,,,,708,23,male,left_right_width,2024-05-23_12h45.23.640,exp1,2023.1.0,60.00085200461607,
,,,,,,,,,,,,,,,,5,8.2,9.1,10,10.9,11.8,0.9,0.5,0.4,4,10,initial,36.05,296,328,361,393,425,9,9,9,9,9,,,,,,,2,0,2,0,0,4,4,50,,,,,,,,,,,,num_5,0.6674269000068307,num_5,0.45,1.1,0.45,1.1,17.19248,42.02605,return,0.13879729999462143,,,,,,,,,,,,,,,,,708,23,male,left_right_width,2024-05-23_12h45.23.640,exp1,2023.1.0,60.00085200461607,
,,,,,,,,,,,,,,,,5,8.65,9.325,10,10.675,11.35,0.675,0.125,0.55,3.25,10,match,36.05,312,336,361,385,409,9,9,9,9,9,,,,,,,2,0,2,0,0,5,5,29,,,,,,,,,,,,num_5,0.46595240000169724,num_5,0.4,0.5,0.4,0.5,15.2822,19.10275,return,0.1708471000310965,,,,,,,,,,,,,,,,,708,23,male,left_right_width,2024-05-23_12h45.23.640,exp1,2023.1.0,60.00085200461607,
,,,,,,,,,,,,,,,,5,8.95,9.475,10,10.525,11.05,0.525,0.275,0.25,2.35,10,match,36.05,323,342,361,379,398,9,9,9,9,9,,,,,,,2,0,2,0,0,6,6,25,,,,,,,,,,,,num_5,0.7247318000299856,num_5,0.2,1.3,0.2,1.3,7.6411,49.66716,return,0.08557979995384812,,,,,,,,,,,,,,,,,708,23,male,left_right_width,2024-05-23_12h45.23.640,exp1,2023.1.0,60.00085200461607,
,,,,,,,,,,,,,,,,5,7.8,8.9,10,11.1,12.2,1.1,0.8500000000000001,0.25,4.65,10,initial,36.05,281,321,361,400,440,9,9,9,9,9,,,,,,,2,0,2,0,0,7,7,36,,,,,,,,,,,,num_5,0.4679908999823965,num_5,0.2,0.9,0.2,0.9,7.6411,34.38495,return,0.08121249999385327,,,,,,,,,,,,,,,,,708,23,male,left_right_width,2024-05-23_12h45.23.640,exp1,2023.1.0,60.00085200461607,
,,,,,,,,,,,,,,,,5,8.6,9.3,10,10.7,11.4,0.7,0.44999999999999996,0.25,3.05,10,initial,36.05,310,335,361,386,411,9,9,9,9,9,,,,,,,2,0,2,0,0,8,8,42,,,,,,,,,,,,num_5,0.24960439995629713,num_5,0.3,0.7,0.3,0.7,11.46165,26.74385,return,0.1108646999928169,,,,,,,,,,,,,,,,,708,23,male,left_right_width,2024-05-23_12h45.23.640,exp1,2023.1.0,60.00085200461607,
,,,,,,,,,,,,,,,,4,9.1,9.7,10.3,10.9,0,0.6000000000000001,0.20000000000000004,0.4,2.2,10,match,36.05,328,350,371,393,0,9,9,9,9,0,,,,,,,2,0,2,0,0,9,9,16,,,,,,,,,,,,num_4,0.6154485000297427,num_4,0.25,0.4,0.25,0.4,9.55138,15.2822,return,0.07538639998529106,,,,,,,,,,,,,,,,,708,23,male,left_right_width,2024-05-23_12h45.23.640,exp1,2023.1.0,60.00085200461607,
,,,,,,,,,,,,,,,,5,7.8,8.9,10,11.1,12.2,1.1,0.7000000000000001,0.4,4.800000000000001,10,initial,36.05,281,321,361,400,440,9,9,9,9,9,,,,,,,2,0,2,0,0,10,10,38,,,,,,,,,,,,num_5,0.46608879999257624,num_5,0.25,1.3,0.25,1.3,9.55138,49.66716,return,0.07686799997463822,,,,,,,,,,,,,,,,,708,23,male,left_right_width,2024-05-23_12h45.23.640,exp1,2023.1.0,60.00085200461607,
,,,,,,,,,,,,,,,,3,9.1,10,10.9,0,0,0.9,0.5,0.4,2.2,10,initial,36.05,328,361,393,0,0,9,9,9,0,0,,,,,,,2,0,2,0,0,11,11,15,,,,,,,,,,,,num_3,0.7723810000461526,num_3,0.45,0.6,0.4,0.55,15.2822,21.01303,return,1.9874972000252455,,,,,,,,,,,,,,,,,708,23,male,left_right_width,2024-05-23_12h45.23.640,exp1,2023.1.0,60.00085200461607,
,,,,,,,,,,,,,,,,3,9.3,10,10.7,0,0,0.7,0.1499999999999999,0.55,1.95,10,initial,36.05,335,361,386,0,0,9,9,9,0,0,,,,,,,2,0,2,0,0,12,12,6,,,,,,,,,,,,num_3,0.7012282999930903,num_3,0.4,1,0.55,0.75,21.01303,28.65413,return,3.7881454000016674,,,,,,,,,,,,,,,,,708,23,male,left_right_width,2024-05-23_12h45.23.640,exp1,2023.1.0,60.00085200461607,
,,,,,,,,,,,,,,,,4,9.3,9.766666666666667,10.233333333333333,10.7,0,0.4666666666666667,0.06666666666666665,0.4,1.8,10,match,36.05,335,352,369,386,0,9,9,9,9,0,,,,,,,2,0,2,0,0,13,13,10,,,,,,,,,,,,num_3,0.7826293000252917,num_3,0.35,0.4,0.35,0.4,13.37193,15.2822,return,0.31370529998093843,,,,,,,,,,,,,,,,,708,23,male,left_right_width,2024-05-23_12h45.23.640,exp1,2023.1.0,60.00085200461607,
,,,,,,,,,,,,,,,,3,8.6,10,11.4,0,0,1.4,1.15,0.25,3.05,10,match,36.05,310,361,411,0,0,9,9,9,0,0,,,,,,,2,0,2,0,0,14,14,43,,,,,,,,,,,,num_3,0.8188431999878958,num_3,0.2,0.5,0.3,0.8,11.46165,30.5644,return,3.360678800032474,,,,,,,,,,,,,,,,,708,23,male,left_right_width,2024-05-23_12h45.23.640,exp1,2023.1.0,60.00085200461607,
,,,,,,,,,,,,,,,,3,8.9,10,11.1,0,0,1.1,0.8500000000000001,0.25,2.45,10,initial,36.05,321,361,400,0,0,9,9,9,0,0,,,,,,,2,0,2,0,0,15,15,2,,,,,,,,,,,,num_3,0.6384513999801129,num_3,0.55,1,0.20000000000000007,1,7.6411,38.2055,return,2.5438534999848343,,,,,,,,,,,,,,,,,708,23,male,left_right_width,2024-05-23_12h45.23.640,exp1,2023.1.0,60.00085200461607,
,,,,,,,,,,,,,,,,3,8.2,10,11.8,0,0,1.7999999999999998,1.4,0.4,4,10,match,36.05,296,361,425,0,0,9,9,9,0,0,,,,,,,2,0,2,0,0,16,16,51,,,,,,,,,,,,num_3,0.5161311000119895,num_3,0.3,0.8,0.3,0.8,11.46165,30.5644,return,0.09522329998435453,,,,,,,,,,,,,,,,,708,23,male,left_right_width,2024-05-23_12h45.23.640,exp1,2023.1.0,60.00085200461607,
,,,,,,,,,,,,,,,,3,8.2,10,11.8,0,0,1.8,1.25,0.55,4.15,10,match,36.05,296,361,425,0,0,9,9,9,0,0,,,,,,,2,0,2,0,0,17,17,47,,,,,,,,,,,,num_3,0.2549200000357814,num_3,0.45,0.9,0.45,0.9,17.19248,34.38495,return,0.12973889999557287,,,,,,,,,,,,,,,,,708,23,male,left_right_width,2024-05-23_12h45.23.640,exp1,2023.1.0,60.00085200461607,
,,,,,,,,,,,,,,,,3,8.9,10,11.1,0,0,1.1,0.7000000000000001,0.4,2.6000000000000005,10,initial,36.05,321,361,400,0,0,9,9,9,0,0,,,,,,,2,0,2,0,0,18,18,4,,,,,,,,,,,,num_3,0.1512800000491552,num_3,0.2,0.6,0.2,0.6,7.6411,22.9233,return,0.19171700003789738,,,,,,,,,,,,,,,,,708,23,male,left_right_width,2024-05-23_12h45.23.640,exp1,2023.1.0,60.00085200461607,
,,,,,,,,,,,,,,,,3,7.8,10,12.2,0,0,2.2,1.9500000000000002,0.25,4.65,10,match,36.05,281,361,440,0,0,9,9,9,0,0,,,,,,,2,0,2,0,0,19,19,37,,,,,,,,,,,,num_3,0.1922023999504745,num_3,0.45,1.2,0.45,1.2,17.19248,45.8466,return,0.151651700027287,,,,,,,,,,,,,,,,,708,23,male,left_right_width,2024-05-23_12h45.23.640,exp1,2023.1.0,60.00085200461607,
,,,,,,,,,,,,,,,,5,8.2,9.1,10,10.9,11.8,0.9,0.35,0.55,4.15,10,initial,36.05,296,328,361,393,425,9,9,9,9,9,,,,,,,2,0,2,0,0,20,20,46,,,,,,,,,,,,num_3,2.5807322000036947,num_3,0.35,0.4,0.35,0.4,13.37193,15.2822,return,0.3138483000220731,,,,,,,,,,,,,,,,,708,23,male,left_right_width,2024-05-23_12h45.23.640,exp1,2023.1.0,60.00085200461607,
,,,,,,,,,,,,,,,,3,9.3,10,10.7,0,0,0.7,0.29999999999999993,0.4,1.8,10,initial,36.05,335,361,386,0,0,9,9,9,0,0,,,,,,,2,0,2,0,0,21,21,9,,,,,,,,,,,,num_3,0.4347048999625258,num_3,0.3,1.1,0.2,0.55,7.6411,21.01303,return,4.651760000037029,,,,,,,,,,,,,,,,,708,23,male,left_right_width,2024-05-23_12h45.23.640,exp1,2023.1.0,60.00085200461607,
,,,,,,,,,,,,,,,,4,8.95,9.65,10.35,11.05,0,0.7,0.1499999999999999,0.55,2.65,10,initial,36.05,323,348,373,398,0,9,9,9,9,0,,,,,,,2,0,2,0,0,22,22,23,,,,,,,,,,,,num_4,0.7328914999961853,num_4,0.25,1.0,0.25,1.0,9.55138,38.2055,return,0.22015629999805242,,,,,,,,,,,,,,,,,708,23,male,left_right_width,2024-05-23_12h45.23.640,exp1,2023.1.0,60.00085200461607,
,,,,,,,,,,,,,,,,4,9.1,9.7,10.3,10.9,0,0.6,0.04999999999999997,0.55,2.35,10,match,36.05,328,350,371,393,0,9,9,9,9,0,,,,,,,2,0,2,0,0,23,23,12,,,,,,,,,,,,num_4,0.7134247000212781,num_4,0.3,1.0,0.3,1.0,11.46165,38.2055,return,0.18231180001748726,,,,,,,,,,,,,,,,,708,23,male,left_right_width,2024-05-23_12h45.23.640,exp1,2023.1.0,60.00085200461607,
,,,,,,,,,,,,,,,,3,8.9,10,11.1,0,0,1.1,0.55,0.55,2.75,10,initial,36.05,321,361,400,0,0,9,9,9,0,0,,,,,,,2,0,2,0,0,24,24,0,,,,,,,,,,,,num_3,0.3562363000237383,num_3,0.4,1,0.4,1,15.2822,38.2055,return,0.14239579997956753,,,,,,,,,,,,,,,,,708,23,male,left_right_width,2024-05-23_12h45.23.640,exp1,2023.1.0,60.00085200461607,
,,,,,,,,,,,,,,,,4,8.35,9.45,10.55,11.65,0,1.1,0.55,0.55,3.8500000000000005,10,initial,36.05,301,341,380,420,0,9,9,9,9,0,,,,,,,2,0,2,0,0,25,25,17,,,,,,,,,,,,num_4,0.6324818999855779,num_4,0.55,1.1,0.55,1.1,21.01303,42.02605,return,0.22292969998670742,,,,,,,,,,,,,,,,,708,23,male,left_right_width,2024-05-23_12h45.23.640,exp1,2023.1.0,60.00085200461607,
,,,,,,,,,,,,,,,,4,8.9,9.633333333333333,10.366666666666667,11.1,0,0.7333333333333334,0.4833333333333334,0.25,2.45,10,match,36.05,321,347,374,400,0,9,9,9,9,0,,,,,,,2,0,2,0,0,26,26,3,,,,,,,,,,,,num_3,0.2590214999509044,num_3,0.3,0.9,0.3,0.9,11.46165,34.38495,return,0.4690256000030786,,,,,,,,,,,,,,,,,708,23,male,left_right_width,2024-05-23_12h45.23.640,exp1,2023.1.0,60.00085200461607,
,,,,,,,,,,,,,,,,4,8.65,9.55,10.45,11.35,0,0.9,0.35,0.55,3.25,10,initial,36.05,312,344,377,409,0,9,9,9,9,0,,,,,,,2,0,2,0,0,27,27,28,,,,,,,,,,,,num_4,0.33290079998550937,num_4,0.55,1.0,0.55,1.0,21.01303,38.2055,return,0.17241980001563206,,,,,,,,,,,,,,,,,708,23,male,left_right_width,2024-05-23_12h45.23.640,exp1,2023.1.0,60.00085200461607,
,,,,,,,,,,,,,,,,5,7.8,8.9,10,11.1,12.2,1.1,0.55,0.55,4.95,10,initial,36.05,281,321,361,400,440,9,9,9,9,9,,,,,,,2,0,2,0,0,28,28,34,,,,,,,,,,,,num_4,0.36416459997417405,num_4,0.2,0.4,0.35,0.6,13.37193,22.9233,return,3.8640153000014834,,,,,,,,,,,,,,,,,708,23,male,left_right_width,2024-05-23_12h45.23.640,exp1,2023.1.0,60.00085200461607,
,,,,,,,,,,,,,,,,4,8.95,9.65,10.35,11.05,0,0.7,0.44999999999999996,0.25,2.3499999999999996,10,initial,36.05,323,348,373,398,0,9,9,9,9,0,,,,,,,2,0,2,0,0,29,29,24,,,,,,,,,,,,num_4,0.4751908999751322,num_4,0.4,0.7,0.4,0.7,15.2822,26.74385,return,0.20942799997283146,,,,,,,,,,,,,,,,,708,23,male,left_right_width,2024-05-23_12h45.23.640,exp1,2023.1.0,60.00085200461607,
,,,,,,,,,,,,,,,,5,8.65,9.325,10,10.675,11.35,0.675,0.42500000000000004,0.25,2.95,10,match,36.05,312,336,361,385,409,9,9,9,9,9,,,,,,,2,0,2,0,0,30,30,31,,,,,,,,,,,,num_4,0.26779070001794025,num_4,0.3,1.3,0.3,1.3,11.46165,49.66716,return,0.17537790001370013,,,,,,,,,,,,,,,,,708,23,male,left_right_width,2024-05-23_12h45.23.640,exp1,2023.1.0,60.00085200461607,
,,,,,,,,,,,,,,,,5,8.6,9.3,10,10.7,11.4,0.7,0.29999999999999993,0.4,3.1999999999999997,10,initial,36.05,310,335,361,386,411,9,9,9,9,9,,,,,,,2,0,2,0,0,31,31,44,,,,,,,,,,,,num_5,0.9453545000287704,num_5,0.35,1.1,0.35,0.8,13.37193,30.5644,return,1.4971078000380658,,,,,,,,,,,,,,,,,708,23,male,left_right_width,2024-05-23_12h45.23.640,exp1,2023.1.0,60.00085200461607,
,,,,,,,,,,,,,,,,3,8.2,10,11.8,0,0,1.8,1.55,0.25,3.85,10,match,36.05,296,361,425,0,0,9,9,9,0,0,,,,,,,2,0,2,0,0,32,32,49,,,,,,,,,,,,num_3,0.6247617999906652,num_3,0.5,1.3,0.5,1.3,19.10275,49.66716,return,0.11842470004921779,,,,,,,,,,,,,,,,,708,23,male,left_right_width,2024-05-23_12h45.23.640,exp1,2023.1.0,60.00085200461607,
,,,,,,,,,,,,,,,,4,9.3,9.766666666666667,10.233333333333333,10.7,0,0.4666666666666667,0.21666666666666665,0.25,1.65,10,match,36.05,335,352,369,386,0,9,9,9,9,0,,,,,,,2,0,2,0,0,33,33,8,,,,,,,,,,,,num_3,0.475768500007689,num_3,0.2,0.4,0.2,0.4,7.6411,15.2822,return,0.15070850000483915,,,,,,,,,,,,,,,,,708,23,male,left_right_width,2024-05-23_12h45.23.640,exp1,2023.1.0,60.00085200461607,
,,,,,,,,,,,,,,,,4,8.35,9.45,10.55,11.65,0,1.1,0.7000000000000001,0.4,3.7,10,initial,36.05,301,341,380,420,0,9,9,9,9,0,,,,,,,2,0,2,0,0,34,34,21,,,,,,,,,,,,num_3,0.28045409999322146,num_3,0.5,1.2,0.5,1.2,19.10275,45.8466,return,0.2843560000183061,,,,,,,,,,,,,,,,,708,23,male,left_right_width,2024-05-23_12h45.23.640,exp1,2023.1.0,60.00085200461607,
,,,,,,,,,,,,,,,,4,8.35,9.45,10.55,11.65,0,1.1,0.8500000000000001,0.25,3.5500000000000003,10,initial,36.05,301,341,380,420,0,9,9,9,9,0,,,,,,,2,0,2,0,0,35,35,19,,,,,,,,,,,,num_4,0.34708139998838305,num_4,0.25,1.2,0.25,1.2,9.55138,45.8466,return,0.1330234999768436,,,,,,,,,,,,,,,,,708,23,male,left_right_width,2024-05-23_12h45.23.640,exp1,2023.1.0,60.00085200461607,
,,,,,,,,,,,,,,,,5,8.35,9.175,10,10.825,11.65,0.825,0.575,0.25,3.55,10,match,36.05,301,331,361,390,420,9,9,9,9,9,,,,,,,2,0,2,0,0,36,36,20,,,,,,,,,,,,num_4,0.26598680001916364,num_4,0.45,1.2,0.45,1.2,17.19248,45.8466,return,0.16926960001001135,,,,,,,,,,,,,,,,,708,23,male,left_right_width,2024-05-23_12h45.23.640,exp1,2023.1.0,60.00085200461607,
,,,,,,,,,,,,,,,,4,8.95,9.65,10.35,11.05,0,0.7,0.29999999999999993,0.4,2.5,10,initial,36.05,323,348,373,398,0,9,9,9,9,0,,,,,,,2,0,2,0,0,37,37,26,,,,,,,,,,,,num_3,0.16418000002158806,num_3,0.25,1.1,0.25,1.1,9.55138,42.02605,return,0.2192610000493005,,,,,,,,,,,,,,,,,708,23,male,left_right_width,2024-05-23_12h45.23.640,exp1,2023.1.0,60.00085200461607,
,,,,,,,,,,,,,,,,4,9.1,9.7,10.3,10.9,0,0.5999999999999999,0.3499999999999999,0.25,2.05,10,match,36.05,328,350,371,393,0,9,9,9,9,0,,,,,,,2,0,2,0,0,38,38,14,,,,,,,,,,,,num_4,0.2777067999704741,num_4,0.45,0.7,0.45,0.7,17.19248,26.74385,return,0.182903700042516,,,,,,,,,,,,,,,,,708,23,male,left_right_width,2024-05-23_12h45.23.640,exp1,2023.1.0,60.00085200461607,
,,,,,,,,,,,,,,,,3,8.6,10,11.4,0,0,1.4,0.85,0.55,3.35,10,match,36.05,310,361,411,0,0,9,9,9,0,0,,,,,,,2,0,2,0,0,39,39,41,,,,,,,,,,,,num_4,0.15266550000524148,num_4,0.5,1.2,0.5,1.2,19.10275,45.8466,return,0.12988090002909303,,,,,,,,,,,,,,,,,708,23,male,left_right_width,2024-05-23_12h45.23.640,exp1,2023.1.0,60.00085200461607,
,,,,,,,,,,,,,,,,5,8.95,9.475,10,10.525,11.05,0.525,0.125,0.4,2.5,10,match,36.05,323,342,361,379,398,9,9,9,9,9,,,,,,,2,0,2,0,0,40,40,27,,,,,,,,,,,,num_3,0.1159643999999389,num_3,0.25,0.9,0.25,0.9,9.55138,34.38495,return,0.21834850002778694,,,,,,,,,,,,,,,,,708,23,male,left_right_width,2024-05-23_12h45.23.640,exp1,2023.1.0,60.00085200461607,
,,,,,,,,,,,,,,,,5,8.6,9.3,10,10.7,11.4,0.7,0.1499999999999999,0.55,3.3499999999999996,10,initial,36.05,310,335,361,386,411,9,9,9,9,9,,,,,,,2,0,2,0,0,41,41,40,,,,,,,,,,,,num_5,0.6858269000076689,num_5,0.35,1.1,0.35,1.1,13.37193,42.02605,return,0.13010280003072694,,,,,,,,,,,,,,,,,708,23,male,left_right_width,2024-05-23_12h45.23.640,exp1,2023.1.0,60.00085200461607,
,,,,,,,,,,,,,,,,3,9.1,10,10.9,0,0,0.9,0.35,0.55,2.35,10,initial,36.05,328,361,393,0,0,9,9,9,0,0,,,,,,,2,0,2,0,0,42,42,11,,,,,,,,,,,,num_3,0.5326665000175126,num_3,0.2,0.3,0.2,0.3,7.6411,11.46165,return,0.12371330003952608,,,,,,,,,,,,,,,,,708,23,male,left_right_width,2024-05-23_12h45.23.640,exp1,2023.1.0,60.00085200461607,
,,,,,,,,,,,,,,,,3,8.525,10,11.475,0,0,1.475,1.225,0.25,3.2,10,match,36.05,307,361,414,0,0,9,9,9,0,0,,,,,,,2,0,2,0,0,43,43,45,,,,,,,,,,,,num_3,0.5435106999939308,num_3,0.35,0.5,0.39999999999999997,0.5,15.2822,19.10275,return,0.5464308999944478,,,,,,,,,,,,,,,,,708,23,male,left_right_width,2024-05-23_12h45.23.640,exp1,2023.1.0,60.00085200461607,
,,,,,,,,,,,,,,,,4,8.65,9.55,10.45,11.35,0,0.9,0.5,0.4,3.1,10,initial,36.05,312,344,377,409,0,9,9,9,9,0,,,,,,,2,0,2,0,0,44,44,32,,,,,,,,,,,,num_4,0.6608998000156134,num_4,0.45,1.3,0.45,1.3,17.19248,49.66716,return,0.13621150003746152,,,,,,,,,,,,,,,,,708,23,male,left_right_width,2024-05-23_12h45.23.640,exp1,2023.1.0,60.00085200461607,
,,,,,,,,,,,,,,,,5,8.275,9.1375,10,10.8625,11.725,0.8625,0.6125,0.25,3.7,10,match,36.05,298,329,361,392,423,9,9,9,9,9,,,,,,,2,0,2,0,0,45,45,22,,,,,,,,,,,,num_5,1.0250654999981634,num_5,0.45,0.5,6.938893903907228e-17,0.55,0.0,21.01303,return,7.351615399995353,,,,,,,,,,,,,,,,,708,23,male,left_right_width,2024-05-23_12h45.23.640,exp1,2023.1.0,60.00085200461607,
,,,,,,,,,,,,,,,,4,8.65,9.55,10.45,11.35,0,0.9,0.65,0.25,2.95,10,initial,36.05,312,344,377,409,0,9,9,9,9,0,,,,,,,2,0,2,0,0,46,46,30,,,,,,,,,,,,num_4,0.6495970000396483,num_4,0.4,1.0,0.4,1.0,15.2822,38.2055,return,0.09157539997249842,,,,,,,,,,,,,,,,,708,23,male,left_right_width,2024-05-23_12h45.23.640,exp1,2023.1.0,60.00085200461607,
,,,,,,,,,,,,,,,,5,8.65,9.325,10,10.675,11.35,0.675,0.275,0.4,3.1,10,match,36.05,312,336,361,385,409,9,9,9,9,9,,,,,,,2,0,2,0,0,47,47,33,,,,,,,,,,,,num_4,0.8449103999882936,num_4,0.4,0.5,0.4,0.5,15.2822,19.10275,return,0.1222068999777548,,,,,,,,,,,,,,,,,708,23,male,left_right_width,2024-05-23_12h45.23.640,exp1,2023.1.0,60.00085200461607,
,,,,,,,,,,,,,,,,5,8.2,9.1,10,10.9,11.8,0.9,0.65,0.25,3.85,10,initial,36.05,296,328,361,393,425,9,9,9,9,9,,,,,,,2,0,2,0,0,48,48,48,,,,,,,,,,,,num_4,0.6206544000306167,num_4,0.25,0.9,0.25,0.8,9.55138,30.5644,return,0.7666552999871783,,,,,,,,,,,,,,,,,708,23,male,left_right_width,2024-05-23_12h45.23.640,exp1,2023.1.0,60.00085200461607,
,,,,,,,,,,,,,,,,5,8.35,9.175,10,10.825,11.65,0.8250000000000001,0.275,0.55,3.85,10,match,36.05,301,331,361,390,420,9,9,9,9,9,,,,,,,2,0,2,0,0,49,49,18,,,,,,,,,,,,num_4,0.5700937999645248,num_4,0.35,1.0,0.39999999999999997,1.0,15.2822,38.2055,return,0.23304910003207624,,,,,,,,,,,,,,,,,708,23,male,left_right_width,2024-05-23_12h45.23.640,exp1,2023.1.0,60.00085200461607,
,,,,,,,,,,,,,,,,3,9.1,10,10.9,0,0,0.9,0.65,0.25,2.05,10,initial,36.05,328,361,393,0,0,9,9,9,0,0,,,,,,,2,0,2,0,0,50,50,13,,,,,,,,,,,,num_4,1.0077212000032887,num_4,0.25,0.6,0.25,0.6,9.55138,22.9233,return,0.08115909999469295,,,,,,,,,,,,,,,,,708,23,male,left_right_width,2024-05-23_12h45.23.640,exp1,2023.1.0,60.00085200461607,
,,,,,,,,,,,,,,,,3,9.3,10,10.7,0,0,0.7,0.44999999999999996,0.25,1.65,10,initial,36.05,335,361,386,0,0,9,9,9,0,0,,,,,,,2,0,2,0,0,51,51,7,,,,,,,,,,,,num_4,0.19153040001401678,num_4,0.35,0.7,0.35,0.7,13.37193,26.74385,return,0.19441539997933432,,,,,,,,,,,,,,,,,708,23,male,left_right_width,2024-05-23_12h45.23.640,exp1,2023.1.0,60.00085200461607,
,,,,,,,,,,,,,,,,,,,,,,,,,,,,,,,,,,,,,,,,,,,,,2,0,2,0,,,,,,,,,,,,,,,,,,,,,,,,,,,,,1038.2724441000028,1038.2724441000028,1038.2724441000028,,,,,,,,,,,,708,23,male,left_right_width,2024-05-23_12h45.23.640,exp1,2023.1.0,60.00085200461607,
,,,,,,,,,,,,,,,,4,9.1,9.7,10.3,10.9,0,0.6000000000000001,0.20000000000000004,0.4,2.2,10,match,36.05,328,350,371,393,0,9,9,9,9,0,,,,,,,3,0,3,0,0,0,0,16,,,,,,,,,,,,num_4,0.999402999994345,num_4,0.25,0.6,0.25,0.6,9.55138,22.9233,return,0.09034659998724237,,,,,,,,,,,,,,,,,708,23,male,left_right_width,2024-05-23_12h45.23.640,exp1,2023.1.0,60.00085200461607,
,,,,,,,,,,,,,,,,5,8.65,9.325,10,10.675,11.35,0.675,0.42500000000000004,0.25,2.95,10,match,36.05,312,336,361,385,409,9,9,9,9,9,,,,,,,3,0,3,0,0,1,1,31,,,,,,,,,,,,num_5,0.7186716999858618,num_5,0.35,0.8,0.35,0.8,13.37193,30.5644,return,0.09203319996595383,,,,,,,,,,,,,,,,,708,23,male,left_right_width,2024-05-23_12h45.23.640,exp1,2023.1.0,60.00085200461607,
,,,,,,,,,,,,,,,,5,8.35,9.175,10,10.825,11.65,0.825,0.575,0.25,3.55,10,match,36.05,301,331,361,390,420,9,9,9,9,9,,,,,,,3,0,3,0,0,2,2,20,,,,,,,,,,,,num_5,0.5159861000138335,num_5,0.3,0.8,0.3,0.8,11.46165,30.5644,return,0.1393203999614343,,,,,,,,,,,,,,,,,708,23,male,left_right_width,2024-05-23_12h45.23.640,exp1,2023.1.0,60.00085200461607,
,,,,,,,,,,,,,,,,4,9.1,9.7,10.3,10.9,0,0.6,0.04999999999999997,0.55,2.35,10,match,36.05,328,350,371,393,0,9,9,9,9,0,,,,,,,3,0,3,0,0,3,3,12,,,,,,,,,,,,num_4,0.6992752999649383,num_4,0.2,0.9,0.5499999999999999,0.7,21.01303,26.74385,return,2.9028057999676093,,,,,,,,,,,,,,,,,708,23,male,left_right_width,2024-05-23_12h45.23.640,exp1,2023.1.0,60.00085200461607,
,,,,,,,,,,,,,,,,3,8.6,10,11.4,0,0,1.4,1.15,0.25,3.05,10,match,36.05,310,361,411,0,0,9,9,9,0,0,,,,,,,3,0,3,0,0,4,4,43,,,,,,,,,,,,num_3,0.8021356999524869,num_3,0.45,1.3,0.15000000000000008,1.25,5.73083,47.75688,return,3.4996603000327013,,,,,,,,,,,,,,,,,708,23,male,left_right_width,2024-05-23_12h45.23.640,exp1,2023.1.0,60.00085200461607,
,,,,,,,,,,,,,,,,4,8.95,9.65,10.35,11.05,0,0.7,0.1499999999999999,0.55,2.65,10,initial,36.05,323,348,373,398,0,9,9,9,9,0,,,,,,,3,0,3,0,0,5,5,23,,,,,,,,,,,,num_4,0.8304145999718457,num_4,0.4,0.6,0.6500000000000001,0.8,24.83358,30.5644,return,2.2838398999883793,,,,,,,,,,,,,,,,,708,23,male,left_right_width,2024-05-23_12h45.23.640,exp1,2023.1.0,60.00085200461607,
,,,,,,,,,,,,,,,,4,8.825,9.608333333333333,10.391666666666667,11.175,0,0.7833333333333333,0.5333333333333333,0.25,2.6,10,match,36.05,318,346,375,403,0,9,9,9,9,0,,,,,,,3,0,3,0,0,6,6,5,,,,,,,,,,,,num_4,0.7244607000029646,num_4,0.3,1.1,0.3,0.9,11.46165,34.38495,return,0.6937737000407651,,,,,,,,,,,,,,,,,708,23,male,left_right_width,2024-05-23_12h45.23.640,exp1,2023.1.0,60.00085200461607,
,,,,,,,,,,,,,,,,5,8.2,9.1,10,10.9,11.8,0.9,0.35,0.55,4.15,10,initial,36.05,296,328,361,393,425,9,9,9,9,9,,,,,,,3,0,3,0,0,7,7,46,,,,,,,,,,,,num_5,0.8707490000524558,num_5,0.3,1.0,0.6,1.1,22.9233,42.02605,return,1.9031168000074103,,,,,,,,,,,,,,,,,708,23,male,left_right_width,2024-05-23_12h45.23.640,exp1,2023.1.0,60.00085200461607,
,,,,,,,,,,,,,,,,4,8.35,9.45,10.55,11.65,0,1.1,0.8500000000000001,0.25,3.5500000000000003,10,initial,36.05,301,341,380,420,0,9,9,9,9,0,,,,,,,3,0,3,0,0,8,8,19,,,,,,,,,,,,num_4,1.0217510999646038,num_4,0.25,0.4,0.25,0.4,9.55138,15.2822,return,0.1129996000090614,,,,,,,,,,,,,,,,,708,23,male,left_right_width,2024-05-23_12h45.23.640,exp1,2023.1.0,60.00085200461607,
,,,,,,,,,,,,,,,,3,9.1,10,10.9,0,0,0.9,0.35,0.55,2.35,10,initial,36.05,328,361,393,0,0,9,9,9,0,0,,,,,,,3,0,3,0,0,9,9,11,,,,,,,,,,,,num_3,0.7444455000222661,num_3,0.3,0.9,0.3,0.9,11.46165,34.38495,return,0.24616919999243692,,,,,,,,,,,,,,,,,708,23,male,left_right_width,2024-05-23_12h45.23.640,exp1,2023.1.0,60.00085200461607,
,,,,,,,,,,,,,,,,3,8.525,10,11.475,0,0,1.475,1.225,0.25,3.2,10,match,36.05,307,361,414,0,0,9,9,9,0,0,,,,,,,3,0,3,0,0,10,10,45,,,,,,,,,,,,num_3,0.455260900023859,num_3,0.3,0.9,0.3,0.9,11.46165,34.38495,return,0.08281140000326559,,,,,,,,,,,,,,,,,708,23,male,left_right_width,2024-05-23_12h45.23.640,exp1,2023.1.0,60.00085200461607,
,,,,,,,,,,,,,,,,4,9.3,9.766666666666667,10.233333333333333,10.7,0,0.4666666666666667,0.21666666666666665,0.25,1.65,10,match,36.05,335,352,369,386,0,9,9,9,9,0,,,,,,,3,0,3,0,0,11,11,8,,,,,,,,,,,,num_4,0.29036389995599166,num_4,0.3,0.9,0.3,0.9,11.46165,34.38495,return,0.11393229995155707,,,,,,,,,,,,,,,,,708,23,male,left_right_width,2024-05-23_12h45.23.640,exp1,2023.1.0,60.00085200461607,
,,,,,,,,,,,,,,,,3,7.8,10,12.2,0,0,2.2,1.65,0.55,4.95,10,match,36.05,281,361,440,0,0,9,9,9,0,0,,,,,,,3,0,3,0,0,12,12,35,,,,,,,,,,,,num_3,0.47383680002531037,num_3,0.35,0.4,0.44999999999999996,0.95,17.19248,36.29523,return,3.440109900024254,,,,,,,,,,,,,,,,,708,23,male,left_right_width,2024-05-23_12h45.23.640,exp1,2023.1.0,60.00085200461607,
,,,,,,,,,,,,,,,,5,7.8,8.9,10,11.1,12.2,1.1,0.8500000000000001,0.25,4.65,10,initial,36.05,281,321,361,400,440,9,9,9,9,9,,,,,,,3,0,3,0,0,13,13,36,,,,,,,,,,,,num_5,0.7934897000086494,num_5,0.35,0.6,0.2,0.65,7.6411,24.83358,return,2.756221399991773,,,,,,,,,,,,,,,,,708,23,male,left_right_width,2024-05-23_12h45.23.640,exp1,2023.1.0,60.00085200461607,
,,,,,,,,,,,,,,,,4,8.35,9.45,10.55,11.65,0,1.1,0.55,0.55,3.8500000000000005,10,initial,36.05,301,341,380,420,0,9,9,9,9,0,,,,,,,3,0,3,0,0,14,14,17,,,,,,,,,,,,num_4,0.7315617999993265,num_4,0.35,0.6,0.35,0.6,13.37193,22.9233,return,0.08747139998013154,,,,,,,,,,,,,,,,,708,23,male,left_right_width,2024-05-23_12h45.23.640,exp1,2023.1.0,60.00085200461607,
,,,,,,,,,,,,,,,,5,8.6,9.3,10,10.7,11.4,0.7,0.1499999999999999,0.55,3.3499999999999996,10,initial,36.05,310,335,361,386,411,9,9,9,9,9,,,,,,,3,0,3,0,0,15,15,40,,,,,,,,,,,,num_4,0.5858818999840878,num_4,0.3,1.0,0.3,1.0,11.46165,38.2055,return,0.0917889000265859,,,,,,,,,,,,,,,,,708,23,male,left_right_width,2024-05-23_12h45.23.640,exp1,2023.1.0,60.00085200461607,
,,,,,,,,,,,,,,,,4,8.9,9.633333333333333,10.366666666666667,11.1,0,0.7333333333333334,0.4833333333333334,0.25,2.45,10,match,36.05,321,347,374,400,0,9,9,9,9,0,,,,,,,3,0,3,0,0,16,16,3,,,,,,,,,,,,num_4,0.38970629998948425,num_4,0.4,0.8,0.4,0.8,15.2822,30.5644,return,0.0999304000288248,,,,,,,,,,,,,,,,,708,23,male,left_right_width,2024-05-23_12h45.23.640,exp1,2023.1.0,60.00085200461607,
,,,,,,,,,,,,,,,,4,8.95,9.65,10.35,11.05,0,0.7,0.44999999999999996,0.25,2.3499999999999996,10,initial,36.05,323,348,373,398,0,9,9,9,9,0,,,,,,,3,0,3,0,0,17,17,24,,,,,,,,,,,,num_4,0.5463882000185549,num_4,0.25,0.8,0.25,0.8,9.55138,30.5644,return,0.10527100000763312,,,,,,,,,,,,,,,,,708,23,male,left_right_width,2024-05-23_12h45.23.640,exp1,2023.1.0,60.00085200461607,
,,,,,,,,,,,,,,,,4,8.65,9.55,10.45,11.35,0,0.9,0.65,0.25,2.95,10,initial,36.05,312,344,377,409,0,9,9,9,9,0,,,,,,,3,0,3,0,0,18,18,30,,,,,,,,,,,,num_4,0.34086820000084117,num_4,0.3,1.0,0.3,1.0,11.46165,38.2055,return,0.09633539995411411,,,,,,,,,,,,,,,,,708,23,male,left_right_width,2024-05-23_12h45.23.640,exp1,2023.1.0,60.00085200461607,
,,,,,,,,,,,,,,,,5,8.35,9.175,10,10.825,11.65,0.8250000000000001,0.275,0.55,3.85,10,match,36.05,301,331,361,390,420,9,9,9,9,9,,,,,,,3,0,3,0,0,19,19,18,,,,,,,,,,,,num_4,0.5698654999723658,num_4,0.3,0.7,0.3,0.7,11.46165,26.74385,return,0.07815849996404722,,,,,,,,,,,,,,,,,708,23,male,left_right_width,2024-05-23_12h45.23.640,exp1,2023.1.0,60.00085200461607,
,,,,,,,,,,,,,,,,5,8.275,9.1375,10,10.8625,11.725,0.8625,0.6125,0.25,3.7,10,match,36.05,298,329,361,392,423,9,9,9,9,9,,,,,,,3,0,3,0,0,20,20,22,,,,,,,,,,,,num_5,0.4727813000208698,num_5,0.35,1.2,0.35,1.2,13.37193,45.8466,return,0.16209380002692342,,,,,,,,,,,,,,,,,708,23,male,left_right_width,2024-05-23_12h45.23.640,exp1,2023.1.0,60.00085200461607,
,,,,,,,,,,,,,,,,4,8.35,9.45,10.55,11.65,0,1.1,0.7000000000000001,0.4,3.7,10,initial,36.05,301,341,380,420,0,9,9,9,9,0,,,,,,,3,0,3,0,0,21,21,21,,,,,,,,,,,,num_5,0.22939289995701984,num_5,0.5,0.8,0.5,0.8,19.10275,30.5644,return,0.1381301999790594,,,,,,,,,,,,,,,,,708,23,male,left_right_width,2024-05-23_12h45.23.640,exp1,2023.1.0,60.00085200461607,
,,,,,,,,,,,,,,,,4,8.9,9.633333333333333,10.366666666666667,11.1,0,0.7333333333333333,0.18333333333333326,0.55,2.75,10,match,36.05,321,347,374,400,0,9,9,9,9,0,,,,,,,3,0,3,0,0,22,22,1,,,,,,,,,,,,num_4,0.26254809997044504,num_4,0.45,1.2,0.45,1.2,17.19248,45.8466,return,0.1187641000142321,,,,,,,,,,,,,,,,,708,23,male,left_right_width,2024-05-23_12h45.23.640,exp1,2023.1.0,60.00085200461607,
,,,,,,,,,,,,,,,,5,8.65,9.325,10,10.675,11.35,0.675,0.125,0.55,3.25,10,match,36.05,312,336,361,385,409,9,9,9,9,9,,,,,,,3,0,3,0,0,23,23,29,,,,,,,,,,,,num_5,0.5758636000100523,num_5,0.2,0.6,0.2,0.6,7.6411,22.9233,return,0.09634519997052848,,,,,,,,,,,,,,,,,708,23,male,left_right_width,2024-05-23_12h45.23.640,exp1,2023.1.0,60.00085200461607,
,,,,,,,,,,,,,,,,5,7.8,8.9,10,11.1,12.2,1.1,0.55,0.55,4.95,10,initial,36.05,281,321,361,400,440,9,9,9,9,9,,,,,,,3,0,3,0,0,24,24,34,,,,,,,,,,,,num_5,0.5604151000152342,num_5,0.45,0.5,0.45,0.5,17.19248,19.10275,return,0.11398590001044795,,,,,,,,,,,,,,,,,708,23,male,left_right_width,2024-05-23_12h45.23.640,exp1,2023.1.0,60.00085200461607,
,,,,,,,,,,,,,,,,5,8.95,9.475,10,10.525,11.05,0.525,0.125,0.4,2.5,10,match,36.05,323,342,361,379,398,9,9,9,9,9,,,,,,,3,0,3,0,0,25,25,27,,,,,,,,,,,,num_4,0.601387300004717,num_4,0.5,1.3,0.5,1.3,19.10275,49.66716,return,0.17664680001325905,,,,,,,,,,,,,,,,,708,23,male,left_right_width,2024-05-23_12h45.23.640,exp1,2023.1.0,60.00085200461607,
,,,,,,,,,,,,,,,,3,9.1,10,10.9,0,0,0.9,0.65,0.25,2.05,10,initial,36.05,328,361,393,0,0,9,9,9,0,0,,,,,,,3,0,3,0,0,26,26,13,,,,,,,,,,,,num_3,1.014015400025528,num_3,0.2,0.8,0.2,0.8,7.6411,30.5644,return,0.1689502999652177,,,,,,,,,,,,,,,,,708,23,male,left_right_width,2024-05-23_12h45.23.640,exp1,2023.1.0,60.00085200461607,
,,,,,,,,,,,,,,,,3,9.1,10,10.9,0,0,0.9,0.5,0.4,2.2,10,initial,36.05,328,361,393,0,0,9,9,9,0,0,,,,,,,3,0,3,0,0,27,27,15,,,,,,,,,,,,num_3,0.7620715000084601,num_3,0.4,1.3,0.4,1.3,15.2822,49.66716,return,0.1330854000407271,,,,,,,,,,,,,,,,,708,23,male,left_right_width,2024-05-23_12h45.23.640,exp1,2023.1.0,60.00085200461607,
,,,,,,,,,,,,,,,,3,8.2,10,11.8,0,0,1.7999999999999998,1.4,0.4,4,10,match,36.05,296,361,425,0,0,9,9,9,0,0,,,,,,,3,0,3,0,0,28,28,51,,,,,,,,,,,,num_3,0.4722619000240229,num_3,0.25,1.3,0.25,1.3,9.55138,49.66716,return,0.09366650000447407,,,,,,,,,,,,,,,,,708,23,male,left_right_width,2024-05-23_12h45.23.640,exp1,2023.1.0,60.00085200461607,
,,,,,,,,,,,,,,,,5,8.95,9.475,10,10.525,11.05,0.525,0.275,0.25,2.35,10,match,36.05,323,342,361,379,398,9,9,9,9,9,,,,,,,3,0,3,0,0,29,29,25,,,,,,,,,,,,num_5,0.7130707000032999,num_5,0.3,0.4,0.3,0.4,11.46165,15.2822,return,0.10383719997480512,,,,,,,,,,,,,,,,,708,23,male,left_right_width,2024-05-23_12h45.23.640,exp1,2023.1.0,60.00085200461607,
,,,,,,,,,,,,,,,,3,8.9,10,11.1,0,0,1.1,0.7000000000000001,0.4,2.6000000000000005,10,initial,36.05,321,361,400,0,0,9,9,9,0,0,,,,,,,3,0,3,0,0,30,30,4,,,,,,,,,,,,num_4,1.0601139000500552,num_4,0.2,1.0,0.2,1.0,7.6411,38.2055,return,0.10425830003805459,,,,,,,,,,,,,,,,,708,23,male,left_right_width,2024-05-23_12h45.23.640,exp1,2023.1.0,60.00085200461607,
,,,,,,,,,,,,,,,,4,8.65,9.55,10.45,11.35,0,0.9,0.5,0.4,3.1,10,initial,36.05,312,344,377,409,0,9,9,9,9,0,,,,,,,3,0,3,0,0,31,31,32,,,,,,,,,,,,num_4,1.4416183999856003,num_4,0.3,0.6,0.3,0.6,11.46165,22.9233,return,0.10378549998858944,,,,,,,,,,,,,,,,,708,23,male,left_right_width,2024-05-23_12h45.23.640,exp1,2023.1.0,60.00085200461607,
,,,,,,,,,,,,,,,,3,8.9,10,11.1,0,0,1.1,0.55,0.55,2.75,10,initial,36.05,321,361,400,0,0,9,9,9,0,0,,,,,,,3,0,3,0,0,32,32,0,,,,,,,,,,,,num_3,0.26211499999044463,num_3,0.45,0.5,0.45,0.5,17.19248,19.10275,return,0.13420490000862628,,,,,,,,,,,,,,,,,708,23,male,left_right_width,2024-05-23_12h45.23.640,exp1,2023.1.0,60.00085200461607,
,,,,,,,,,,,,,,,,3,9.3,10,10.7,0,0,0.7,0.29999999999999993,0.4,1.8,10,initial,36.05,335,361,386,0,0,9,9,9,0,0,,,,,,,3,0,3,0,0,33,33,9,,,,,,,,,,,,num_3,0.34440050000557676,num_3,0.55,1.3,0.55,1.3,21.01303,49.66716,return,0.1007571000372991,,,,,,,,,,,,,,,,,708,23,male,left_right_width,2024-05-23_12h45.23.640,exp1,2023.1.0,60.00085200461607,
,,,,,,,,,,,,,,,,3,7.800000000000001,10,12.2,0,0,2.1999999999999997,1.7999999999999998,0.4,4.8,10,match,36.05,281,361,440,0,0,9,9,9,0,0,,,,,,,3,0,3,0,0,34,34,39,,,,,,,,,,,,num_3,0.315913200029172,num_3,0.45,0.6,0.45,0.6,17.19248,22.9233,return,0.11085040000034496,,,,,,,,,,,,,,,,,708,23,male,left_right_width,2024-05-23_12h45.23.640,exp1,2023.1.0,60.00085200461607,
,,,,,,,,,,,,,,,,5,8.2,9.1,10,10.9,11.8,0.9,0.65,0.25,3.85,10,initial,36.05,296,328,361,393,425,9,9,9,9,9,,,,,,,3,0,3,0,0,35,35,48,,,,,,,,,,,,num_4,0.7154582000221126,num_4,0.3,0.3,0.39999999999999986,1.3,15.2822,49.66716,return,9.965847800020128,,,,,,,,,,,,,,,,,708,23,male,left_right_width,2024-05-23_12h45.23.640,exp1,2023.1.0,60.00085200461607,
,,,,,,,,,,,,,,,,5,8.2,9.1,10,10.9,11.8,0.9,0.5,0.4,4,10,initial,36.05,296,328,361,393,425,9,9,9,9,9,,,,,,,3,0,3,0,0,36,36,50,,,,,,,,,,,,num_4,0.751757699996233,num_4,0.5,1.0,0.5,1.0,19.10275,38.2055,return,0.07914040004834533,,,,,,,,,,,,,,,,,708,23,male,left_right_width,2024-05-23_12h45.23.640,exp1,2023.1.0,60.00085200461607,
,,,,,,,,,,,,,,,,4,8.65,9.55,10.45,11.35,0,0.9,0.35,0.55,3.25,10,initial,36.05,312,344,377,409,0,9,9,9,9,0,,,,,,,3,0,3,0,0,37,37,28,,,,,,,,,,,,num_4,0.7271304999594577,num_4,0.55,0.8,0.55,0.8,21.01303,30.5644,return,0.11386050004512072,,,,,,,,,,,,,,,,,708,23,male,left_right_width,2024-05-23_12h45.23.640,exp1,2023.1.0,60.00085200461607,
,,,,,,,,,,,,,,,,4,9.1,9.7,10.3,10.9,0,0.5999999999999999,0.3499999999999999,0.25,2.05,10,match,36.05,328,350,371,393,0,9,9,9,9,0,,,,,,,3,0,3,0,0,38,38,14,,,,,,,,,,,,num_4,0.794128300040029,num_4,0.25,0.3,0.2,0.8,7.6411,30.5644,return,2.938497799972538,,,,,,,,,,,,,,,,,708,23,male,left_right_width,2024-05-23_12h45.23.640,exp1,2023.1.0,60.00085200461607,
,,,,,,,,,,,,,,,,5,8.6,9.3,10,10.7,11.4,0.7,0.44999999999999996,0.25,3.05,10,initial,36.05,310,335,361,386,411,9,9,9,9,9,,,,,,,3,0,3,0,0,39,39,42,,,,,,,,,,,,num_5,0.853514600021299,num_5,0.25,1.1,0.25,1.1,9.55138,42.02605,return,0.5776948000420816,,,,,,,,,,,,,,,,,708,23,male,left_right_width,2024-05-23_12h45.23.640,exp1,2023.1.0,60.00085200461607,
,,,,,,,,,,,,,,,,3,8.6,10,11.4,0,0,1.4,0.85,0.55,3.35,10,match,36.05,310,361,411,0,0,9,9,9,0,0,,,,,,,3,0,3,0,0,40,40,41,,,,,,,,,,,,num_3,0.516054300009273,num_3,0.35,0.5,0.44999999999999996,0.85,17.19248,32.47468,return,1.8871609999914654,,,,,,,,,,,,,,,,,708,23,male,left_right_width,2024-05-23_12h45.23.640,exp1,2023.1.0,60.00085200461607,
,,,,,,,,,,,,,,,,5,8.65,9.325,10,10.675,11.35,0.675,0.275,0.4,3.1,10,match,36.05,312,336,361,385,409,9,9,9,9,9,,,,,,,3,0,3,0,0,41,41,33,,,,,,,,,,,,num_5,0.748247999988962,num_5,0.45,1.0,0.45,1.0,17.19248,38.2055,return,0.17315690004033968,,,,,,,,,,,,,,,,,708,23,male,left_right_width,2024-05-23_12h45.23.640,exp1,2023.1.0,60.00085200461607,
,,,,,,,,,,,,,,,,3,9.3,10,10.7,0,0,0.7,0.1499999999999999,0.55,1.95,10,initial,36.05,335,361,386,0,0,9,9,9,0,0,,,,,,,3,0,3,0,0,42,42,6,,,,,,,,,,,,num_3,0.6394043000182137,num_3,0.2,0.3,0.2,0.3,7.6411,11.46165,return,0.2602597000077367,,,,,,,,,,,,,,,,,708,23,male,left_right_width,2024-05-23_12h45.23.640,exp1,2023.1.0,60.00085200461607,
,,,,,,,,,,,,,,,,5,7.8,8.9,10,11.1,12.2,1.1,0.7000000000000001,0.4,4.800000000000001,10,initial,36.05,281,321,361,400,440,9,9,9,9,9,,,,,,,3,0,3,0,0,43,43,38,,,,,,,,,,,,num_4,0.6154884000425227,num_4,0.35,0.5,0.35,0.5,13.37193,19.10275,return,0.2704541000421159,,,,,,,,,,,,,,,,,708,23,male,left_right_width,2024-05-23_12h45.23.640,exp1,2023.1.0,60.00085200461607,
,,,,,,,,,,,,,,,,4,8.95,9.65,10.35,11.05,0,0.7,0.29999999999999993,0.4,2.5,10,initial,36.05,323,348,373,398,0,9,9,9,9,0,,,,,,,3,0,3,0,0,44,44,26,,,,,,,,,,,,num_4,0.5597936999984086,num_4,0.5,0.7,0.5,0.7,19.10275,26.74385,return,0.13608369999565184,,,,,,,,,,,,,,,,,708,23,male,left_right_width,2024-05-23_12h45.23.640,exp1,2023.1.0,60.00085200461607,
,,,,,,,,,,,,,,,,3,9.3,10,10.7,0,0,0.7,0.44999999999999996,0.25,1.65,10,initial,36.05,335,361,386,0,0,9,9,9,0,0,,,,,,,3,0,3,0,0,45,45,7,,,,,,,,,,,,num_3,0.5023188999621198,num_3,0.4,0.6,0.4,0.6,15.2822,22.9233,return,0.11383039999054745,,,,,,,,,,,,,,,,,708,23,male,left_right_width,2024-05-23_12h45.23.640,exp1,2023.1.0,60.00085200461607,
,,,,,,,,,,,,,,,,3,8.2,10,11.8,0,0,1.8,1.55,0.25,3.85,10,match,36.05,296,361,425,0,0,9,9,9,0,0,,,,,,,3,0,3,0,0,46,46,49,,,,,,,,,,,,num_3,0.5417648999718949,num_3,0.2,1.3,0.25,1.3,9.55138,49.66716,return,0.8880871000001207,,,,,,,,,,,,,,,,,708,23,male,left_right_width,2024-05-23_12h45.23.640,exp1,2023.1.0,60.00085200461607,
,,,,,,,,,,,,,,,,4,9.3,9.766666666666667,10.233333333333333,10.7,0,0.4666666666666667,0.06666666666666665,0.4,1.8,10,match,36.05,335,352,369,386,0,9,9,9,9,0,,,,,,,3,0,3,0,0,47,47,10,,,,,,,,,,,,num_4,0.6636871000519022,num_4,0.25,1.3,0.25,1.3,9.55138,49.66716,return,0.18015239998931065,,,,,,,,,,,,,,,,,708,23,male,left_right_width,2024-05-23_12h45.23.640,exp1,2023.1.0,60.00085200461607,
,,,,,,,,,,,,,,,,3,7.8,10,12.2,0,0,2.2,1.9500000000000002,0.25,4.65,10,match,36.05,281,361,440,0,0,9,9,9,0,0,,,,,,,3,0,3,0,0,48,48,37,,,,,,,,,,,,num_3,0.4974233999964781,num_3,0.45,1.2,0.15000000000000008,1.35,5.73083,51.57743,return,3.0671416000113823,,,,,,,,,,,,,,,,,708,23,male,left_right_width,2024-05-23_12h45.23.640,exp1,2023.1.0,60.00085200461607,
,,,,,,,,,,,,,,,,5,8.6,9.3,10,10.7,11.4,0.7,0.29999999999999993,0.4,3.1999999999999997,10,initial,36.05,310,335,361,386,411,9,9,9,9,9,,,,,,,3,0,3,0,0,49,49,44,,,,,,,,,,,,num_5,0.7549861999577843,num_5,0.3,1.3,0.25,1.4,9.55138,53.48771,return,0.25539569999091327,,,,,,,,,,,,,,,,,708,23,male,left_right_width,2024-05-23_12h45.23.640,exp1,2023.1.0,60.00085200461607,
,,,,,,,,,,,,,,,,3,8.9,10,11.1,0,0,1.1,0.8500000000000001,0.25,2.45,10,initial,36.05,321,361,400,0,0,9,9,9,0,0,,,,,,,3,0,3,0,0,50,50,2,,,,,,,,,,,,num_3,0.4106632000184618,num_3,0.55,1.1,0.55,1.1,21.01303,42.02605,return,0.18148670002119616,,,,,,,,,,,,,,,,,708,23,male,left_right_width,2024-05-23_12h45.23.640,exp1,2023.1.0,60.00085200461607,
,,,,,,,,,,,,,,,,3,8.2,10,11.8,0,0,1.8,1.25,0.55,4.15,10,match,36.05,296,361,425,0,0,9,9,9,0,0,,,,,,,3,0,3,0,0,51,51,47,,,,,,,,,,,,num_3,0.38302890001796186,num_3,0.35,0.8,0.35,0.8,13.37193,30.5644,return,0.15857809997396544,,,,,,,,,,,,,,,,,708,23,male,left_right_width,2024-05-23_12h45.23.640,exp1,2023.1.0,60.00085200461607,
,,,,,,,,,,,,,,,,,,,,,,,,,,,,,,,,,,,,,,,,,,,,,3,0,3,0,,,,,,,,,,,,,,,,,,,,,,,,,,,,,1206.4558637000155,1206.4558637000155,1206.4558637000155,,,,,,,,,,,,708,23,male,left_right_width,2024-05-23_12h45.23.640,exp1,2023.1.0,60.00085200461607,
,,,,,,,,,,,,,,,,4,8.35,9.45,10.55,11.65,0,1.1,0.7000000000000001,0.4,3.7,10,initial,36.05,301,341,380,420,0,9,9,9,9,0,,,,,,,4,0,4,0,0,0,0,21,,,,,,,,,,,,num_4,1.1361571999732405,num_4,0.5,1.1,0.5,1.1,19.10275,42.02605,return,0.3776252000243403,,,,,,,,,,,,,,,,,708,23,male,left_right_width,2024-05-23_12h45.23.640,exp1,2023.1.0,60.00085200461607,
,,,,,,,,,,,,,,,,3,8.9,10,11.1,0,0,1.1,0.8500000000000001,0.25,2.45,10,initial,36.05,321,361,400,0,0,9,9,9,0,0,,,,,,,4,0,4,0,0,1,1,2,,,,,,,,,,,,num_3,0.6076770999934524,num_3,0.25,0.5,0.25,0.5,9.55138,19.10275,return,0.18303809995995834,,,,,,,,,,,,,,,,,708,23,male,left_right_width,2024-05-23_12h45.23.640,exp1,2023.1.0,60.00085200461607,
,,,,,,,,,,,,,,,,4,8.35,9.45,10.55,11.65,0,1.1,0.55,0.55,3.8500000000000005,10,initial,36.05,301,341,380,420,0,9,9,9,9,0,,,,,,,4,0,4,0,0,2,2,17,,,,,,,,,,,,num_4,0.3701365999877453,num_4,0.35,0.8,0.35,0.8,13.37193,30.5644,return,0.11246909998590127,,,,,,,,,,,,,,,,,708,23,male,left_right_width,2024-05-23_12h45.23.640,exp1,2023.1.0,60.00085200461607,
,,,,,,,,,,,,,,,,3,8.525,10,11.475,0,0,1.475,1.225,0.25,3.2,10,match,36.05,307,361,414,0,0,9,9,9,0,0,,,,,,,4,0,4,0,0,3,3,45,,,,,,,,,,,,num_3,0.3917344999499619,num_3,0.35,0.7,0.35,0.7,13.37193,26.74385,return,0.10185799997998402,,,,,,,,,,,,,,,,,708,23,male,left_right_width,2024-05-23_12h45.23.640,exp1,2023.1.0,60.00085200461607,
,,,,,,,,,,,,,,,,5,8.275,9.1375,10,10.8625,11.725,0.8625,0.6125,0.25,3.7,10,match,36.05,298,329,361,392,423,9,9,9,9,9,,,,,,,4,0,4,0,0,4,4,22,,,,,,,,,,,,num_5,0.7258341000415385,num_5,0.55,1.3,0.55,1.3,21.01303,49.66716,return,0.1008045999915339,,,,,,,,,,,,,,,,,708,23,male,left_right_width,2024-05-23_12h45.23.640,exp1,2023.1.0,60.00085200461607,
,,,,,,,,,,,,,,,,3,8.9,10,11.1,0,0,1.1,0.55,0.55,2.75,10,initial,36.05,321,361,400,0,0,9,9,9,0,0,,,,,,,4,0,4,0,0,5,5,0,,,,,,,,,,,,num_3,0.3325545000261627,num_3,0.55,0.8,0.55,0.8,21.01303,30.5644,return,0.10539459995925426,,,,,,,,,,,,,,,,,708,23,male,left_right_width,2024-05-23_12h45.23.640,exp1,2023.1.0,60.00085200461607,
,,,,,,,,,,,,,,,,5,7.8,8.9,10,11.1,12.2,1.1,0.8500000000000001,0.25,4.65,10,initial,36.05,281,321,361,400,440,9,9,9,9,9,,,,,,,4,0,4,0,0,6,6,36,,,,,,,,,,,,num_5,0.5455547000165097,num_5,0.25,0.4,0.25,0.4,9.55138,15.2822,return,0.15504019998479635,,,,,,,,,,,,,,,,,708,23,male,left_right_width,2024-05-23_12h45.23.640,exp1,2023.1.0,60.00085200461607,
,,,,,,,,,,,,,,,,5,8.35,9.175,10,10.825,11.65,0.825,0.575,0.25,3.55,10,match,36.05,301,331,361,390,420,9,9,9,9,9,,,,,,,4,0,4,0,0,7,7,20,,,,,,,,,,,,num_5,0.289380100031849,num_5,0.3,1.2,0.3,1.2,11.46165,45.8466,return,0.19378339999821037,,,,,,,,,,,,,,,,,708,23,male,left_right_width,2024-05-23_12h45.23.640,exp1,2023.1.0,60.00085200461607,
,,,,,,,,,,,,,,,,4,8.95,9.65,10.35,11.05,0,0.7,0.1499999999999999,0.55,2.65,10,initial,36.05,323,348,373,398,0,9,9,9,9,0,,,,,,,4,0,4,0,0,8,8,23,,,,,,,,,,,,num_4,0.47871689999010414,num_4,0.5,0.8,0.5,0.8,19.10275,30.5644,return,0.1348310000030324,,,,,,,,,,,,,,,,,708,23,male,left_right_width,2024-05-23_12h45.23.640,exp1,2023.1.0,60.00085200461607,
,,,,,,,,,,,,,,,,4,8.95,9.65,10.35,11.05,0,0.7,0.44999999999999996,0.25,2.3499999999999996,10,initial,36.05,323,348,373,398,0,9,9,9,9,0,,,,,,,4,0,4,0,0,9,9,24,,,,,,,,,,,,num_4,0.5677611000137404,num_4,0.25,0.3,0.25,0.3,9.55138,11.46165,return,0.0902566000004299,,,,,,,,,,,,,,,,,708,23,male,left_right_width,2024-05-23_12h45.23.640,exp1,2023.1.0,60.00085200461607,
,,,,,,,,,,,,,,,,4,8.35,9.45,10.55,11.65,0,1.1,0.8500000000000001,0.25,3.5500000000000003,10,initial,36.05,301,341,380,420,0,9,9,9,9,0,,,,,,,4,0,4,0,0,10,10,19,,,,,,,,,,,,num_5,0.9178572000237182,num_5,0.25,1.2,0.25,1.2,9.55138,45.8466,return,0.12672980001661927,,,,,,,,,,,,,,,,,708,23,male,left_right_width,2024-05-23_12h45.23.640,exp1,2023.1.0,60.00085200461607,
,,,,,,,,,,,,,,,,4,8.9,9.633333333333333,10.366666666666667,11.1,0,0.7333333333333333,0.18333333333333326,0.55,2.75,10,match,36.05,321,347,374,400,0,9,9,9,9,0,,,,,,,4,0,4,0,0,11,11,1,,,,,,,,,,,,num_4,0.7112108999863267,num_4,0.5,1.1,0.5,1.1,19.10275,42.02605,return,0.0845913999946788,,,,,,,,,,,,,,,,,708,23,male,left_right_width,2024-05-23_12h45.23.640,exp1,2023.1.0,60.00085200461607,
,,,,,,,,,,,,,,,,5,8.2,9.1,10,10.9,11.8,0.9,0.65,0.25,3.85,10,initial,36.05,296,328,361,393,425,9,9,9,9,9,,,,,,,4,0,4,0,0,12,12,48,,,,,,,,,,,,num_4,0.984834700007923,num_4,0.55,0.6,-0.09999999999999994,1.2,-3.82055,45.8466,return,4.908623200026341,,,,,,,,,,,,,,,,,708,23,male,left_right_width,2024-05-23_12h45.23.640,exp1,2023.1.0,60.00085200461607,
,,,,,,,,,,,,,,,,4,8.65,9.55,10.45,11.35,0,0.9,0.65,0.25,2.95,10,initial,36.05,312,344,377,409,0,9,9,9,9,0,,,,,,,4,0,4,0,0,13,13,30,,,,,,,,,,,,num_4,0.5815271000028588,num_4,0.25,0.4,0.25,0.4,9.55138,15.2822,return,0.11772700003348291,,,,,,,,,,,,,,,,,708,23,male,left_right_width,2024-05-23_12h45.23.640,exp1,2023.1.0,60.00085200461607,
,,,,,,,,,,,,,,,,5,8.95,9.475,10,10.525,11.05,0.525,0.125,0.4,2.5,10,match,36.05,323,342,361,379,398,9,9,9,9,9,,,,,,,4,0,4,0,0,14,14,27,,,,,,,,,,,,num_4,0.40416809997987,num_4,0.4,1.1,0.4,1.1,15.2822,42.02605,return,0.09665239998139441,,,,,,,,,,,,,,,,,708,23,male,left_right_width,2024-05-23_12h45.23.640,exp1,2023.1.0,60.00085200461607,
,,,,,,,,,,,,,,,,5,8.2,9.1,10,10.9,11.8,0.9,0.5,0.4,4,10,initial,36.05,296,328,361,393,425,9,9,9,9,9,,,,,,,4,0,4,0,0,15,15,50,,,,,,,,,,,,num_5,0.5849570999853313,num_5,0.25,0.7,0.25,0.7,9.55138,26.74385,return,0.1291872999863699,,,,,,,,,,,,,,,,,708,23,male,left_right_width,2024-05-23_12h45.23.640,exp1,2023.1.0,60.00085200461607,
,,,,,,,,,,,,,,,,3,8.9,10,11.1,0,0,1.1,0.7000000000000001,0.4,2.6000000000000005,10,initial,36.05,321,361,400,0,0,9,9,9,0,0,,,,,,,4,0,4,0,0,16,16,4,,,,,,,,,,,,num_3,0.680766399949789,num_3,0.3,1.3,0.3,1.3,11.46165,49.66716,return,0.0889960000058636,,,,,,,,,,,,,,,,,708,23,male,left_right_width,2024-05-23_12h45.23.640,exp1,2023.1.0,60.00085200461607,
,,,,,,,,,,,,,,,,5,8.35,9.175,10,10.825,11.65,0.8250000000000001,0.275,0.55,3.85,10,match,36.05,301,331,361,390,420,9,9,9,9,9,,,,,,,4,0,4,0,0,17,17,18,,,,,,,,,,,,num_5,0.5695441999705508,num_5,0.55,1.2,0.55,1.2,21.01303,45.8466,return,0.14082269999198616,,,,,,,,,,,,,,,,,708,23,male,left_right_width,2024-05-23_12h45.23.640,exp1,2023.1.0,60.00085200461607,
,,,,,,,,,,,,,,,,3,9.3,10,10.7,0,0,0.7,0.44999999999999996,0.25,1.65,10,initial,36.05,335,361,386,0,0,9,9,9,0,0,,,,,,,4,0,4,0,0,18,18,7,,,,,,,,,,,,num_3,0.41593050002120435,num_3,0.5,0.6,0.5,0.6,19.10275,22.9233,return,0.08900370000628754,,,,,,,,,,,,,,,,,708,23,male,left_right_width,2024-05-23_12h45.23.640,exp1,2023.1.0,60.00085200461607,
,,,,,,,,,,,,,,,,3,8.6,10,11.4,0,0,1.4,0.85,0.55,3.35,10,match,36.05,310,361,411,0,0,9,9,9,0,0,,,,,,,4,0,4,0,0,19,19,41,,,,,,,,,,,,num_3,0.3434720999794081,num_3,0.55,0.7,0.55,0.7,21.01303,26.74385,return,0.10253609996289015,,,,,,,,,,,,,,,,,708,23,male,left_right_width,2024-05-23_12h45.23.640,exp1,2023.1.0,60.00085200461607,
,,,,,,,,,,,,,,,,5,7.8,8.9,10,11.1,12.2,1.1,0.7000000000000001,0.4,4.800000000000001,10,initial,36.05,281,321,361,400,440,9,9,9,9,9,,,,,,,4,0,4,0,0,20,20,38,,,,,,,,,,,,num_5,0.6530247000046074,num_5,0.35,0.6,0.35,0.6,13.37193,22.9233,return,0.11054119997425005,,,,,,,,,,,,,,,,,708,23,male,left_right_width,2024-05-23_12h45.23.640,exp1,2023.1.0,60.00085200461607,
,,,,,,,,,,,,,,,,3,9.3,10,10.7,0,0,0.7,0.1499999999999999,0.55,1.95,10,initial,36.05,335,361,386,0,0,9,9,9,0,0,,,,,,,4,0,4,0,0,21,21,6,,,,,,,,,,,,num_3,0.5648970999754965,num_3,0.35,1.1,0.35,1.1,13.37193,42.02605,return,0.08820709999417886,,,,,,,,,,,,,,,,,708,23,male,left_right_width,2024-05-23_12h45.23.640,exp1,2023.1.0,60.00085200461607,
,,,,,,,,,,,,,,,,5,8.6,9.3,10,10.7,11.4,0.7,0.44999999999999996,0.25,3.05,10,initial,36.05,310,335,361,386,411,9,9,9,9,9,,,,,,,4,0,4,0,0,22,22,42,,,,,,,,,,,,num_5,0.4982331999926828,num_5,0.25,1.3,0.25,1.3,9.55138,49.66716,return,0.10755329998210073,,,,,,,,,,,,,,,,,708,23,male,left_right_width,2024-05-23_12h45.23.640,exp1,2023.1.0,60.00085200461607,
,,,,,,,,,,,,,,,,5,8.6,9.3,10,10.7,11.4,0.7,0.29999999999999993,0.4,3.1999999999999997,10,initial,36.05,310,335,361,386,411,9,9,9,9,9,,,,,,,4,0,4,0,0,23,23,44,,,,,,,,,,,,num_5,0.49317380000138655,num_5,0.45,0.7,0.45,0.7,17.19248,26.74385,return,0.19956610002554953,,,,,,,,,,,,,,,,,708,23,male,left_right_width,2024-05-23_12h45.23.640,exp1,2023.1.0,60.00085200461607,
,,,,,,,,,,,,,,,,4,9.3,9.766666666666667,10.233333333333333,10.7,0,0.4666666666666667,0.06666666666666665,0.4,1.8,10,match,36.05,335,352,369,386,0,9,9,9,9,0,,,,,,,4,0,4,0,0,24,24,10,,,,,,,,,,,,num_4,0.7007308999891393,num_4,0.3,1.3,0.3,1.3,11.46165,49.66716,return,0.07564729999285191,,,,,,,,,,,,,,,,,708,23,male,left_right_width,2024-05-23_12h45.23.640,exp1,2023.1.0,60.00085200461607,
,,,,,,,,,,,,,,,,3,9.1,10,10.9,0,0,0.9,0.5,0.4,2.2,10,initial,36.05,328,361,393,0,0,9,9,9,0,0,,,,,,,4,0,4,0,0,25,25,15,,,,,,,,,,,,num_3,0.3840288000064902,num_3,0.5,0.8,0.5,0.8,19.10275,30.5644,return,0.058264800056349486,,,,,,,,,,,,,,,,,708,23,male,left_right_width,2024-05-23_12h45.23.640,exp1,2023.1.0,60.00085200461607,
,,,,,,,,,,,,,,,,4,8.95,9.65,10.35,11.05,0,0.7,0.29999999999999993,0.4,2.5,10,initial,36.05,323,348,373,398,0,9,9,9,9,0,,,,,,,4,0,4,0,0,26,26,26,,,,,,,,,,,,num_4,0.7900993999792263,num_4,0.55,1.0,0.55,1.0,21.01303,38.2055,return,0.11787430004915223,,,,,,,,,,,,,,,,,708,23,male,left_right_width,2024-05-23_12h45.23.640,exp1,2023.1.0,60.00085200461607,
,,,,,,,,,,,,,,,,4,9.1,9.7,10.3,10.9,0,0.6,0.04999999999999997,0.55,2.35,10,match,36.05,328,350,371,393,0,9,9,9,9,0,,,,,,,4,0,4,0,0,27,27,12,,,,,,,,,,,,num_4,0.6157556000398472,num_4,0.2,0.6,0.2,0.6,7.6411,22.9233,return,0.08868939999956638,,,,,,,,,,,,,,,,,708,23,male,left_right_width,2024-05-23_12h45.23.640,exp1,2023.1.0,60.00085200461607,
,,,,,,,,,,,,,,,,3,8.2,10,11.8,0,0,1.8,1.55,0.25,3.85,10,match,36.05,296,361,425,0,0,9,9,9,0,0,,,,,,,4,0,4,0,0,28,28,49,,,,,,,,,,,,num_3,0.40802730002906173,num_3,0.2,0.4,0.2,0.4,7.6411,15.2822,return,0.11301380000077188,,,,,,,,,,,,,,,,,708,23,male,left_right_width,2024-05-23_12h45.23.640,exp1,2023.1.0,60.00085200461607,
,,,,,,,,,,,,,,,,5,7.8,8.9,10,11.1,12.2,1.1,0.55,0.55,4.95,10,initial,36.05,281,321,361,400,440,9,9,9,9,9,,,,,,,4,0,4,0,0,29,29,34,,,,,,,,,,,,num_5,0.5275967000052333,num_5,0.4,1.2,0.4,1.2,15.2822,45.8466,return,0.09087299997918308,,,,,,,,,,,,,,,,,708,23,male,left_right_width,2024-05-23_12h45.23.640,exp1,2023.1.0,60.00085200461607,
,,,,,,,,,,,,,,,,5,8.65,9.325,10,10.675,11.35,0.675,0.125,0.55,3.25,10,match,36.05,312,336,361,385,409,9,9,9,9,9,,,,,,,4,0,4,0,0,30,30,29,,,,,,,,,,,,num_5,0.4601610999670811,num_5,0.5,0.6,0.5,0.6,19.10275,22.9233,return,0.08977500000037253,,,,,,,,,,,,,,,,,708,23,male,left_right_width,2024-05-23_12h45.23.640,exp1,2023.1.0,60.00085200461607,
,,,,,,,,,,,,,,,,5,8.95,9.475,10,10.525,11.05,0.525,0.275,0.25,2.35,10,match,36.05,323,342,361,379,398,9,9,9,9,9,,,,,,,4,0,4,0,0,31,31,25,,,,,,,,,,,,num_5,0.21108969999477267,num_5,0.5,0.9,0.5,0.9,19.10275,34.38495,return,0.10072839999338612,,,,,,,,,,,,,,,,,708,23,male,left_right_width,2024-05-23_12h45.23.640,exp1,2023.1.0,60.00085200461607,
,,,,,,,,,,,,,,,,4,8.9,9.633333333333333,10.366666666666667,11.1,0,0.7333333333333334,0.4833333333333334,0.25,2.45,10,match,36.05,321,347,374,400,0,9,9,9,9,0,,,,,,,4,0,4,0,0,32,32,3,,,,,,,,,,,,num_4,0.4282668000087142,num_4,0.55,0.7,0.55,0.7,21.01303,26.74385,return,0.0666516000055708,,,,,,,,,,,,,,,,,708,23,male,left_right_width,2024-05-23_12h45.23.640,exp1,2023.1.0,60.00085200461607,
,,,,,,,,,,,,,,,,3,8.2,10,11.8,0,0,1.8,1.25,0.55,4.15,10,match,36.05,296,361,425,0,0,9,9,9,0,0,,,,,,,4,0,4,0,0,33,33,47,,,,,,,,,,,,num_4,0.2377985999919474,num_4,0.45,1.2,0.45,1.2,17.19248,45.8466,return,0.09529149997979403,,,,,,,,,,,,,,,,,708,23,male,left_right_width,2024-05-23_12h45.23.640,exp1,2023.1.0,60.00085200461607,
,,,,,,,,,,,,,,,,5,8.65,9.325,10,10.675,11.35,0.675,0.275,0.4,3.1,10,match,36.05,312,336,361,385,409,9,9,9,9,9,,,,,,,4,0,4,0,0,34,34,33,,,,,,,,,,,,num_4,0.428987099963706,num_4,0.2,0.5,0.2,0.5,7.6411,19.10275,return,0.06745829997817054,,,,,,,,,,,,,,,,,708,23,male,left_right_width,2024-05-23_12h45.23.640,exp1,2023.1.0,60.00085200461607,
,,,,,,,,,,,,,,,,4,8.65,9.55,10.45,11.35,0,0.9,0.35,0.55,3.25,10,initial,36.05,312,344,377,409,0,9,9,9,9,0,,,,,,,4,0,4,0,0,35,35,28,,,,,,,,,,,,num_4,0.4307574999984354,num_4,0.45,0.9,0.45,0.9,17.19248,34.38495,return,0.05737699999008328,,,,,,,,,,,,,,,,,708,23,male,left_right_width,2024-05-23_12h45.23.640,exp1,2023.1.0,60.00085200461607,
,,,,,,,,,,,,,,,,5,8.65,9.325,10,10.675,11.35,0.675,0.42500000000000004,0.25,2.95,10,match,36.05,312,336,361,385,409,9,9,9,9,9,,,,,,,4,0,4,0,0,36,36,31,,,,,,,,,,,,num_5,0.7007363000302576,num_5,0.4,1.2,0.20000000000000007,1.05,7.6411,40.11578,return,3.518180300015956,,,,,,,,,,,,,,,,,708,23,male,left_right_width,2024-05-23_12h45.23.640,exp1,2023.1.0,60.00085200461607,
,,,,,,,,,,,,,,,,4,8.825,9.608333333333333,10.391666666666667,11.175,0,0.7833333333333333,0.5333333333333333,0.25,2.6,10,match,36.05,318,346,375,403,0,9,9,9,9,0,,,,,,,4,0,4,0,0,37,37,5,,,,,,,,,,,,num_4,0.851484100043308,num_4,0.2,0.4,0.2,0.4,7.6411,15.2822,return,0.04575490002753213,,,,,,,,,,,,,,,,,708,23,male,left_right_width,2024-05-23_12h45.23.640,exp1,2023.1.0,60.00085200461607,
,,,,,,,,,,,,,,,,3,7.800000000000001,10,12.2,0,0,2.1999999999999997,1.7999999999999998,0.4,4.8,10,match,36.05,281,361,440,0,0,9,9,9,0,0,,,,,,,4,0,4,0,0,38,38,39,,,,,,,,,,,,num_2,0.6560618000221439,num_2,0.55,0.6,0.55,0.6,21.01303,22.9233,return,0.7366597999935038,,,,,,,,,,,,,,,,,708,23,male,left_right_width,2024-05-23_12h45.23.640,exp1,2023.1.0,60.00085200461607,
,,,,,,,,,,,,,,,,4,9.1,9.7,10.3,10.9,0,0.5999999999999999,0.3499999999999999,0.25,2.05,10,match,36.05,328,350,371,393,0,9,9,9,9,0,,,,,,,4,0,4,0,0,39,39,14,,,,,,,,,,,,num_4,0.958130799990613,num_4,0.25,0.5,0.25,0.5,9.55138,19.10275,return,0.09892479999689385,,,,,,,,,,,,,,,,,708,23,male,left_right_width,2024-05-23_12h45.23.640,exp1,2023.1.0,60.00085200461607,
,,,,,,,,,,,,,,,,3,7.8,10,12.2,0,0,2.2,1.65,0.55,4.95,10,match,36.05,281,361,440,0,0,9,9,9,0,0,,,,,,,4,0,4,0,0,40,40,35,,,,,,,,,,,,num_3,0.6512559999828227,num_3,0.25,0.6,0.25,0.6,9.55138,22.9233,return,0.09346300002653152,,,,,,,,,,,,,,,,,708,23,male,left_right_width,2024-05-23_12h45.23.640,exp1,2023.1.0,60.00085200461607,
,,,,,,,,,,,,,,,,5,8.6,9.3,10,10.7,11.4,0.7,0.1499999999999999,0.55,3.3499999999999996,10,initial,36.05,310,335,361,386,411,9,9,9,9,9,,,,,,,4,0,4,0,0,41,41,40,,,,,,,,,,,,num_9,0.6120856000343338,num_9,0.25,0.9,0.25,0.9,9.55138,34.38495,return,0.40751380001893267,,,,,,,,,,,,,,,,,708,23,male,left_right_width,2024-05-23_12h45.23.640,exp1,2023.1.0,60.00085200461607,
,,,,,,,,,,,,,,,,3,9.3,10,10.7,0,0,0.7,0.29999999999999993,0.4,1.8,10,initial,36.05,335,361,386,0,0,9,9,9,0,0,,,,,,,4,0,4,0,0,42,42,9,,,,,,,,,,,,num_3,0.9151901999721304,num_3,0.5,0.8,0.5,0.8,19.10275,30.5644,return,0.09484609996434301,,,,,,,,,,,,,,,,,708,23,male,left_right_width,2024-05-23_12h45.23.640,exp1,2023.1.0,60.00085200461607,
,,,,,,,,,,,,,,,,5,8.2,9.1,10,10.9,11.8,0.9,0.35,0.55,4.15,10,initial,36.05,296,328,361,393,425,9,9,9,9,9,,,,,,,4,0,4,0,0,43,43,46,,,,,,,,,,,,num_5,0.6917418999946676,num_5,0.55,0.8,0.55,0.8,21.01303,30.5644,return,0.050801899982616305,,,,,,,,,,,,,,,,,708,23,male,left_right_width,2024-05-23_12h45.23.640,exp1,2023.1.0,60.00085200461607,
,,,,,,,,,,,,,,,,4,9.1,9.7,10.3,10.9,0,0.6000000000000001,0.20000000000000004,0.4,2.2,10,match,36.05,328,350,371,393,0,9,9,9,9,0,,,,,,,4,0,4,0,0,44,44,16,,,,,,,,,,,,num_4,0.5928219999768771,num_4,0.5,1.3,0.5,1.3,19.10275,49.66716,return,0.10408459999598563,,,,,,,,,,,,,,,,,708,23,male,left_right_width,2024-05-23_12h45.23.640,exp1,2023.1.0,60.00085200461607,
,,,,,,,,,,,,,,,,3,7.8,10,12.2,0,0,2.2,1.9500000000000002,0.25,4.65,10,match,36.05,281,361,440,0,0,9,9,9,0,0,,,,,,,4,0,4,0,0,45,45,37,,,,,,,,,,,,num_3,0.6306858999887481,num_3,0.35,0.9,0.05000000000000002,1.15,1.91028,43.93633,return,3.8638805999653414,,,,,,,,,,,,,,,,,708,23,male,left_right_width,2024-05-23_12h45.23.640,exp1,2023.1.0,60.00085200461607,
,,,,,,,,,,,,,,,,4,8.65,9.55,10.45,11.35,0,0.9,0.5,0.4,3.1,10,initial,36.05,312,344,377,409,0,9,9,9,9,0,,,,,,,4,0,4,0,0,46,46,32,,,,,,,,,,,,num_4,0.597728599968832,num_4,0.3,0.5,0.3,0.5,11.46165,19.10275,return,0.053774200030602515,,,,,,,,,,,,,,,,,708,23,male,left_right_width,2024-05-23_12h45.23.640,exp1,2023.1.0,60.00085200461607,
,,,,,,,,,,,,,,,,3,9.1,10,10.9,0,0,0.9,0.35,0.55,2.35,10,initial,36.05,328,361,393,0,0,9,9,9,0,0,,,,,,,4,0,4,0,0,47,47,11,,,,,,,,,,,,num_3,0.47180129995103925,num_3,0.4,1.3,0.4,1.3,15.2822,49.66716,return,0.09651499998290092,,,,,,,,,,,,,,,,,708,23,male,left_right_width,2024-05-23_12h45.23.640,exp1,2023.1.0,60.00085200461607,
,,,,,,,,,,,,,,,,3,9.1,10,10.9,0,0,0.9,0.65,0.25,2.05,10,initial,36.05,328,361,393,0,0,9,9,9,0,0,,,,,,,4,0,4,0,0,48,48,13,,,,,,,,,,,,num_3,0.4553692000336014,num_3,0.25,1.2,0.25,1.2,9.55138,45.8466,return,0.09924960002535954,,,,,,,,,,,,,,,,,708,23,male,left_right_width,2024-05-23_12h45.23.640,exp1,2023.1.0,60.00085200461607,
,,,,,,,,,,,,,,,,3,8.2,10,11.8,0,0,1.7999999999999998,1.4,0.4,4,10,match,36.05,296,361,425,0,0,9,9,9,0,0,,,,,,,4,0,4,0,0,49,49,51,,,,,,,,,,,,num_3,1.7376817000331357,num_3,0.55,0.6,0.55,0.6,21.01303,22.9233,return,0.16105580003932118,,,,,,,,,,,,,,,,,708,23,male,left_right_width,2024-05-23_12h45.23.640,exp1,2023.1.0,60.00085200461607,
,,,,,,,,,,,,,,,,3,8.6,10,11.4,0,0,1.4,1.15,0.25,3.05,10,match,36.05,310,361,411,0,0,9,9,9,0,0,,,,,,,4,0,4,0,0,50,50,43,,,,,,,,,,,,num_3,0.4676054000156,num_3,0.35,1.1,0.10000000000000002,1.05,3.82055,40.11578,return,2.2303882999694906,,,,,,,,,,,,,,,,,708,23,male,left_right_width,2024-05-23_12h45.23.640,exp1,2023.1.0,60.00085200461607,
,,,,,,,,,,,,,,,,4,9.3,9.766666666666667,10.233333333333333,10.7,0,0.4666666666666667,0.21666666666666665,0.25,1.65,10,match,36.05,335,352,369,386,0,9,9,9,9,0,,,,,,,4,0,4,0,0,51,51,8,,,,,,,,,,,,num_4,0.6516075000399724,num_4,0.45,1.3,0.45,1.3,17.19248,49.66716,return,0.06577759998617694,,,,,,,,,,,,,,,,,708,23,male,left_right_width,2024-05-23_12h45.23.640,exp1,2023.1.0,60.00085200461607,
,,,,,,,,,,,,,,,,,,,,,,,,,,,,,,,,,,,,,,,,,,,,,4,0,4,0,,,,,,,,,,,,,,,,,,,,,,,,,,,,,1365.1060512000113,1365.1060512000113,1365.1060512000113,,,,,,,,,,,,708,23,male,left_right_width,2024-05-23_12h45.23.640,exp1,2023.1.0,60.00085200461607,
,,,,,,,,,,,,,,,,5,8.6,9.3,10,10.7,11.4,0.7,0.44999999999999996,0.25,3.05,10,initial,36.05,310,335,361,386,411,9,9,9,9,9,,,,,,,5,0,5,0,0,0,0,42,,,,,,,,,,,,num_4,0.8030739999958314,num_4,0.25,1.0,0.25,1.0,9.55138,38.2055,return,0.06146009999793023,,,,,,,,,,,,,,,,,708,23,male,left_right_width,2024-05-23_12h45.23.640,exp1,2023.1.0,60.00085200461607,
,,,,,,,,,,,,,,,,3,8.9,10,11.1,0,0,1.1,0.8500000000000001,0.25,2.45,10,initial,36.05,321,361,400,0,0,9,9,9,0,0,,,,,,,5,0,5,0,0,1,1,2,,,,,,,,,,,,num_4,0.4769421999808401,num_4,0.3,0.8,0.3,0.8,11.46165,30.5644,return,0.07418729999335483,,,,,,,,,,,,,,,,,708,23,male,left_right_width,2024-05-23_12h45.23.640,exp1,2023.1.0,60.00085200461607,
,,,,,,,,,,,,,,,,5,7.8,8.9,10,11.1,12.2,1.1,0.55,0.55,4.95,10,initial,36.05,281,321,361,400,440,9,9,9,9,9,,,,,,,5,0,5,0,0,2,2,34,,,,,,,,,,,,num_5,0.5113794999779202,num_5,0.25,1.0,0.25,1.0,9.55138,38.2055,return,0.06746650004060939,,,,,,,,,,,,,,,,,708,23,male,left_right_width,2024-05-23_12h45.23.640,exp1,2023.1.0,60.00085200461607,
,,,,,,,,,,,,,,,,3,7.8,10,12.2,0,0,2.2,1.65,0.55,4.95,10,match,36.05,281,361,440,0,0,9,9,9,0,0,,,,,,,5,0,5,0,0,3,3,35,,,,,,,,,,,,num_3,0.46163569996133447,num_3,0.25,0.3,0.25,0.3,9.55138,11.46165,return,0.09187950001796708,,,,,,,,,,,,,,,,,708,23,male,left_right_width,2024-05-23_12h45.23.640,exp1,2023.1.0,60.00085200461607,
,,,,,,,,,,,,,,,,3,9.3,10,10.7,0,0,0.7,0.29999999999999993,0.4,1.8,10,initial,36.05,335,361,386,0,0,9,9,9,0,0,,,,,,,5,0,5,0,0,4,4,9,,,,,,,,,,,,num_3,0.48908420000225306,num_3,0.4,0.6,0.4,0.6,15.2822,22.9233,return,0.10202380002010614,,,,,,,,,,,,,,,,,708,23,male,left_right_width,2024-05-23_12h45.23.640,exp1,2023.1.0,60.00085200461607,
,,,,,,,,,,,,,,,,4,8.95,9.65,10.35,11.05,0,0.7,0.44999999999999996,0.25,2.3499999999999996,10,initial,36.05,323,348,373,398,0,9,9,9,9,0,,,,,,,5,0,5,0,0,5,5,24,,,,,,,,,,,,num_4,0.5801746999495663,num_4,0.45,0.8,0.45,0.8,17.19248,30.5644,return,0.16713850002270192,,,,,,,,,,,,,,,,,708,23,male,left_right_width,2024-05-23_12h45.23.640,exp1,2023.1.0,60.00085200461607,
,,,,,,,,,,,,,,,,3,8.2,10,11.8,0,0,1.8,1.55,0.25,3.85,10,match,36.05,296,361,425,0,0,9,9,9,0,0,,,,,,,5,0,5,0,0,6,6,49,,,,,,,,,,,,num_3,0.4894501999951899,num_3,0.5,0.9,0.05000000000000007,0.8,1.91028,30.5644,return,2.079698199988343,,,,,,,,,,,,,,,,,708,23,male,left_right_width,2024-05-23_12h45.23.640,exp1,2023.1.0,60.00085200461607,
,,,,,,,,,,,,,,,,5,8.6,9.3,10,10.7,11.4,0.7,0.1499999999999999,0.55,3.3499999999999996,10,initial,36.05,310,335,361,386,411,9,9,9,9,9,,,,,,,5,0,5,0,0,7,7,40,,,,,,,,,,,,num_5,0.6800281999749132,num_5,0.25,1.3,0.25,1.3,9.55138,49.66716,return,0.08872810000320897,,,,,,,,,,,,,,,,,708,23,male,left_right_width,2024-05-23_12h45.23.640,exp1,2023.1.0,60.00085200461607,
,,,,,,,,,,,,,,,,4,8.65,9.55,10.45,11.35,0,0.9,0.35,0.55,3.25,10,initial,36.05,312,344,377,409,0,9,9,9,9,0,,,,,,,5,0,5,0,0,8,8,28,,,,,,,,,,,,num_4,0.5601622000103816,num_4,0.4,0.8,0.4,0.8,15.2822,30.5644,return,0.07273989997338504,,,,,,,,,,,,,,,,,708,23,male,left_right_width,2024-05-23_12h45.23.640,exp1,2023.1.0,60.00085200461607,
,,,,,,,,,,,,,,,,4,8.95,9.65,10.35,11.05,0,0.7,0.1499999999999999,0.55,2.65,10,initial,36.05,323,348,373,398,0,9,9,9,9,0,,,,,,,5,0,5,0,0,9,9,23,,,,,,,,,,,,num_4,0.51588860002812,num_4,0.2,0.3,0.2,0.3,7.6411,11.46165,return,0.08996139996452257,,,,,,,,,,,,,,,,,708,23,male,left_right_width,2024-05-23_12h45.23.640,exp1,2023.1.0,60.00085200461607,
,,,,,,,,,,,,,,,,5,8.35,9.175,10,10.825,11.65,0.8250000000000001,0.275,0.55,3.85,10,match,36.05,301,331,361,390,420,9,9,9,9,9,,,,,,,5,0,5,0,0,10,10,18,,,,,,,,,,,,num_4,0.679835400020238,num_4,0.2,1.0,0.7000000000000001,1.1,26.74385,42.02605,return,2.693577500001993,,,,,,,,,,,,,,,,,708,23,male,left_right_width,2024-05-23_12h45.23.640,exp1,2023.1.0,60.00085200461607,
,,,,,,,,,,,,,,,,5,8.2,9.1,10,10.9,11.8,0.9,0.65,0.25,3.85,10,initial,36.05,296,328,361,393,425,9,9,9,9,9,,,,,,,5,0,5,0,0,11,11,48,,,,,,,,,,,,num_5,0.5181250000023283,num_5,0.45,0.7,0.45,0.7,17.19248,26.74385,return,0.030258500017225742,,,,,,,,,,,,,,,,,708,23,male,left_right_width,2024-05-23_12h45.23.640,exp1,2023.1.0,60.00085200461607,
