amount_p,posx1_p,posx2_p,posx3_p,posx4_p,posx5_p,center_to_center_p,edge_to_edge_p,w_p,stim_lengt_p,eccentricity_p,line1_p,line2_p,line3_p,line4_p,line5_p,amount,posx1,posx2,posx3,posx4,posx5,center_to_center,edge_to_edge,w,stim_length,eccentricity,trial_type,deg_to_pix_index,posx1_in_pix,posx2_in_pix,posx3_in_pix,posx4_in_pix,posx5_in_pix,line1,line2,line3,line4,line5,posx,setsize_cobdi,trials.thisRepN,trials.thisTrialN,trials.thisN,trials.thisIndex,blocks.thisRepN,blocks.thisTrialN,blocks.thisN,blocks.thisIndex,loop.thisRepN,loop.thisTrialN,loop.thisN,loop.thisIndex,first.thisRepN,first.thisTrialN,first.thisN,first.thisIndex,second.thisRepN,second.thisTrialN,second.thisN,second.thisIndex,key_resp_3.started,key_resp_3.keys,key_resp_3.rt,key_resp.keys,key_resp.rt,response,starting_width_deg,starting_space_deg,response_width_degree,response_spacing_degree,response_width_pixel,response_spacing_pixel,next_5.keys,next_5.rt,key_resp_4.keys,key_resp_4.rt,text_3.started,text_4.started,key_resp_2.started,text_2.started,key_resp_2.keys,key_resp_2.rt,adjusting.started,next.keys,next.rt,text_control2.started,key_resp.started,key_resp.corr,text_bye.started,text_bye.stopped,participant,age,gender,resp_group,date,expName,psychopyVersion,frameRate,
,,,,,,,,,,,,,,,,,,,,,,,,,,,,,,,,,,,,,,,,,,,,,,,,,,,,,,,,,,,,,62.12462180003058,c,601.9383250999963,,,,,,,,,,,,,,,,,,,,,,,,,,,,709,22,female,up_down_width,2024-05-23_13h39.13.701,exp1,2023.1.0,60.02008271188822,
3,8.2,10,11.8,0,0,1.7999999999999998,1.4,0.4,4,10,9,9,9,0,0,,,,,,,,,,,,,,,,,,,,,,,,,,0,0,0,2,,,,,,,,,,,,,,,,,,,,num_2,8.888213200028986,num_2,0.2,1.0,0.35,1.2,13.37193,45.8466,return,9.363983499992173,,,,,,,,,,,,,,,,,709,22,female,up_down_width,2024-05-23_13h39.13.701,exp1,2023.1.0,60.02008271188822,
4,9.5,9.833333333333334,10.166666666666666,10.5,0,0.33333333333333337,0.23333333333333336,0.1,1.1,10,9,9,9,9,0,,,,,,,,,,,,,,,,,,,,,,,,,,0,1,1,3,,,,,,,,,,,,,,,,,,,,num_3,1.982692199992016,num_3,0.2,0.6,0.2,0.65,7.6411,24.83358,return,3.197859600011725,,,,,,,,,,,,,,,,,709,22,female,up_down_width,2024-05-23_13h39.13.701,exp1,2023.1.0,60.02008271188822,
5,9,9.5,10,10.5,11,0.5,0.09999999999999998,0.4,2.4,10,9,9,9,9,9,,,,,,,,,,,,,,,,,,,,,,,,,,0,2,2,8,,,,,,,,,,,,,,,,,,,,num_4,1.6014349000179209,num_4,0.35,1.2,0.35,0.5,13.37193,19.10275,return,4.622521999990568,,,,,,,,,,,,,,,,,709,22,female,up_down_width,2024-05-23_13h39.13.701,exp1,2023.1.0,60.02008271188822,
4,8.65,9.55,10.45,11.35,0,0.9,0.5,0.4,3.1,10,9,9,9,9,0,,,,,,,,,,,,,,,,,,,,,,,,,,0,3,3,5,,,,,,,,,,,,,,,,,,,,num_4,3.193435499968473,num_4,0.2,0.9,0.2,0.9,7.6411,34.38495,return,1.9301332000177354,,,,,,,,,,,,,,,,,709,22,female,up_down_width,2024-05-23_13h39.13.701,exp1,2023.1.0,60.02008271188822,
3,9,10,11,0,0,1,0.9,0.1,2.1,10,9,9,9,0,0,,,,,,,,,,,,,,,,,,,,,,,,,,0,4,4,1,,,,,,,,,,,,,,,,,,,,num_3,2.7420647999970242,num_3,0.3,1.2,0.3,1.35,11.46165,51.57743,return,5.19039140001405,,,,,,,,,,,,,,,,,709,22,female,up_down_width,2024-05-23_13h39.13.701,exp1,2023.1.0,60.02008271188822,
5,9.25,9.625,10,10.375,10.75,0.375,0.125,0.25,1.75,10,9,9,9,9,9,,,,,,,,,,,,,,,,,,,,,,,,,,0,5,5,6,,,,,,,,,,,,,,,,,,,,num_3,2.366007200034801,num_3,0.3,1.1,0.3,0.5,11.46165,19.10275,return,3.918220299994573,,,,,,,,,,,,,,,,,709,22,female,up_down_width,2024-05-23_13h39.13.701,exp1,2023.1.0,60.02008271188822,
5,8.6,9.3,10,10.7,11.4,0.7,0.29999999999999993,0.4,3.1999999999999997,10,9,9,9,9,9,,,,,,,,,,,,,,,,,,,,,,,,,,0,6,6,7,,,,,,,,,,,,,,,,,,,,num_5,1.1480407999479212,num_5,0.25,1.1,0.25,0.4,9.55138,15.2822,return,8.348861300037242,,,,,,,,,,,,,,,,,709,22,female,up_down_width,2024-05-23_13h39.13.701,exp1,2023.1.0,60.02008271188822,
4,9.25,9.75,10.25,10.75,0,0.5,0.25,0.25,1.75,10,9,9,9,9,0,,,,,,,,,,,,,,,,,,,,,,,,,,0,7,7,4,,,,,,,,,,,,,,,,,,,,num_4,1.2659879000275396,num_4,0.2,0.4,0.2,0.6,7.6411,22.9233,return,1.9018300999887288,,,,,,,,,,,,,,,,,709,22,female,up_down_width,2024-05-23_13h39.13.701,exp1,2023.1.0,60.02008271188822,
3,9.5,10,10.5,0,0,0.5,0.4,0.1,1.1,10,9,9,9,0,0,,,,,,,,,,,,,,,,,,,,,,,,,,0,8,8,0,,,,,,,,,,,,,,,,,,,,num_3,0.9277378999977373,num_3,0.5,0.8,0.5,0.85,19.10275,32.47468,return,2.5483276000013575,,,,,,,,,,,,,,,,,709,22,female,up_down_width,2024-05-23_13h39.13.701,exp1,2023.1.0,60.02008271188822,
,,,,,,,,,,,,,,,,,,,,,,,,,,,,,,,,,,,,,,,,,,,,,,,,,,,,,,,,,,,,,,,,,,,,,,,,,,,c,102.59426319994964,,,,,,,,,,,,,,,709,22,female,up_down_width,2024-05-23_13h39.13.701,exp1,2023.1.0,60.02008271188822,
,,,,,,,,,,,,,,,,4,8.9,9.633333333333333,10.366666666666667,11.1,0,0.7333333333333334,0.4833333333333334,0.25,2.45,10,match,36.05,321,347,374,400,0,9,9,9,9,0,,,,,,,0,0,0,0,0,0,0,3,,,,,,,,,,,,num_3,0.9414111999794841,num_3,0.25,0.5,0.25,0.75,9.55138,28.65413,return,2.7064058000105433,,,,,,,,,,,,,,,,,709,22,female,up_down_width,2024-05-23_13h39.13.701,exp1,2023.1.0,60.02008271188822,
,,,,,,,,,,,,,,,,4,8.35,9.45,10.55,11.65,0,1.1,0.55,0.55,3.8500000000000005,10,initial,36.05,301,341,380,420,0,9,9,9,9,0,,,,,,,0,0,0,0,0,1,1,17,,,,,,,,,,,,num_3,1.2018678999738768,num_3,0.45,1.3,0.45,1.55,17.19248,59.21853,return,2.1413589000003412,,,,,,,,,,,,,,,,,709,22,female,up_down_width,2024-05-23_13h39.13.701,exp1,2023.1.0,60.02008271188822,
,,,,,,,,,,,,,,,,4,8.35,9.45,10.55,11.65,0,1.1,0.7000000000000001,0.4,3.7,10,initial,36.05,301,341,380,420,0,9,9,9,9,0,,,,,,,0,0,0,0,0,2,2,21,,,,,,,,,,,,num_3,1.8770759999752045,num_3,0.3,1.3,0.3,1.3,11.46165,49.66716,return,0.9039695000392385,,,,,,,,,,,,,,,,,709,22,female,up_down_width,2024-05-23_13h39.13.701,exp1,2023.1.0,60.02008271188822,
,,,,,,,,,,,,,,,,3,8.9,10,11.1,0,0,1.1,0.7000000000000001,0.4,2.6000000000000005,10,initial,36.05,321,361,400,0,0,9,9,9,0,0,,,,,,,0,0,0,0,0,3,3,4,,,,,,,,,,,,num_3,1.0348601999576204,num_3,0.2,1.2,0.2,1.2,7.6411,45.8466,return,0.9708160000154749,,,,,,,,,,,,,,,,,709,22,female,up_down_width,2024-05-23_13h39.13.701,exp1,2023.1.0,60.02008271188822,
,,,,,,,,,,,,,,,,4,8.95,9.65,10.35,11.05,0,0.7,0.29999999999999993,0.4,2.5,10,initial,36.05,323,348,373,398,0,9,9,9,9,0,,,,,,,0,0,0,0,0,4,4,26,,,,,,,,,,,,num_4,1.3396121999830939,num_4,0.2,0.8,0.2,0.6,7.6411,22.9233,return,1.8558011999703012,,,,,,,,,,,,,,,,,709,22,female,up_down_width,2024-05-23_13h39.13.701,exp1,2023.1.0,60.02008271188822,
,,,,,,,,,,,,,,,,3,8.9,10,11.1,0,0,1.1,0.55,0.55,2.75,10,initial,36.05,321,361,400,0,0,9,9,9,0,0,,,,,,,0,0,0,0,0,5,5,0,,,,,,,,,,,,num_3,1.1529541999916546,num_3,0.4,0.9,0.4,1.05,15.2822,40.11578,return,1.565252700005658,,,,,,,,,,,,,,,,,709,22,female,up_down_width,2024-05-23_13h39.13.701,exp1,2023.1.0,60.02008271188822,
,,,,,,,,,,,,,,,,4,8.65,9.55,10.45,11.35,0,0.9,0.65,0.25,2.95,10,initial,36.05,312,344,377,409,0,9,9,9,9,0,,,,,,,0,0,0,0,0,6,6,30,,,,,,,,,,,,num_4,1.2768913000472821,num_4,0.5,1.1,0.5,1.4,19.10275,53.48771,return,1.2785817999974824,,,,,,,,,,,,,,,,,709,22,female,up_down_width,2024-05-23_13h39.13.701,exp1,2023.1.0,60.02008271188822,
,,,,,,,,,,,,,,,,4,8.825,9.608333333333333,10.391666666666667,11.175,0,0.7833333333333333,0.5333333333333333,0.25,2.6,10,match,36.05,318,346,375,403,0,9,9,9,9,0,,,,,,,0,0,0,0,0,7,7,5,,,,,,,,,,,,num_4,0.9663137000170536,num_4,0.55,0.6,0.55,1.3,21.01303,49.66716,return,1.8169133000192232,,,,,,,,,,,,,,,,,709,22,female,up_down_width,2024-05-23_13h39.13.701,exp1,2023.1.0,60.02008271188822,
,,,,,,,,,,,,,,,,3,7.8,10,12.2,0,0,2.2,1.65,0.55,4.95,10,match,36.05,281,361,440,0,0,9,9,9,0,0,,,,,,,0,0,0,0,0,8,8,35,,,,,,,,,,,,num_2,0.9673496999894269,num_2,0.5,1.6,0.5,1.8,19.10275,68.76991,return,1.1288079000078142,,,,,,,,,,,,,,,,,709,22,female,up_down_width,2024-05-23_13h39.13.701,exp1,2023.1.0,60.02008271188822,
,,,,,,,,,,,,,,,,5,8.6,9.3,10,10.7,11.4,0.7,0.44999999999999996,0.25,3.05,10,initial,36.05,310,335,361,386,411,9,9,9,9,9,,,,,,,0,0,0,0,0,9,9,42,,,,,,,,,,,,num_4,1.1107627999735996,num_4,0.25,0.9,0.25,1.1,9.55138,42.02605,return,0.8897297999938019,,,,,,,,,,,,,,,,,709,22,female,up_down_width,2024-05-23_13h39.13.701,exp1,2023.1.0,60.02008271188822,
,,,,,,,,,,,,,,,,4,9.1,9.7,10.3,10.9,0,0.6000000000000001,0.20000000000000004,0.4,2.2,10,match,36.05,328,350,371,393,0,9,9,9,9,0,,,,,,,0,0,0,0,0,10,10,16,,,,,,,,,,,,num_3,0.7986558999982662,num_3,0.25,1,0.25,0.75,9.55138,28.65413,return,1.5826563999871723,,,,,,,,,,,,,,,,,709,22,female,up_down_width,2024-05-23_13h39.13.701,exp1,2023.1.0,60.02008271188822,
,,,,,,,,,,,,,,,,3,8.2,10,11.8,0,0,1.8,1.55,0.25,3.85,10,match,36.05,296,361,425,0,0,9,9,9,0,0,,,,,,,0,0,0,0,0,11,11,49,,,,,,,,,,,,num_3,0.7761316999676637,num_3,0.4,0.5,0.4,1.4,15.2822,53.48771,return,4.163473499997053,,,,,,,,,,,,,,,,,709,22,female,up_down_width,2024-05-23_13h39.13.701,exp1,2023.1.0,60.02008271188822,
,,,,,,,,,,,,,,,,5,8.65,9.325,10,10.675,11.35,0.675,0.275,0.4,3.1,10,match,36.05,312,336,361,385,409,9,9,9,9,9,,,,,,,0,0,0,0,0,12,12,33,,,,,,,,,,,,num_4,1.1920121999573894,num_4,0.5,0.6,0.5,1.0,19.10275,38.2055,return,1.534148299950175,,,,,,,,,,,,,,,,,709,22,female,up_down_width,2024-05-23_13h39.13.701,exp1,2023.1.0,60.02008271188822,
,,,,,,,,,,,,,,,,3,8.9,10,11.1,0,0,1.1,0.8500000000000001,0.25,2.45,10,initial,36.05,321,361,400,0,0,9,9,9,0,0,,,,,,,0,0,0,0,0,13,13,2,,,,,,,,,,,,num_2,1.4092127999756485,num_2,0.2,0.4,0.2,1.8,7.6411,68.76991,return,3.571165499975905,,,,,,,,,,,,,,,,,709,22,female,up_down_width,2024-05-23_13h39.13.701,exp1,2023.1.0,60.02008271188822,
,,,,,,,,,,,,,,,,3,8.2,10,11.8,0,0,1.8,1.25,0.55,4.15,10,match,36.05,296,361,425,0,0,9,9,9,0,0,,,,,,,0,0,0,0,0,14,14,47,,,,,,,,,,,,num_3,0.7529119999962859,num_3,0.5,0.7,0.5,1.8,19.10275,68.76991,return,4.893873900000472,,,,,,,,,,,,,,,,,709,22,female,up_down_width,2024-05-23_13h39.13.701,exp1,2023.1.0,60.02008271188822,
,,,,,,,,,,,,,,,,3,9.3,10,10.7,0,0,0.7,0.1499999999999999,0.55,1.95,10,initial,36.05,335,361,386,0,0,9,9,9,0,0,,,,,,,0,0,0,0,0,15,15,6,,,,,,,,,,,,num_2,0.8852293999516405,num_2,0.55,1.6,0.55,0.9,21.01303,34.38495,return,2.3139784999657422,,,,,,,,,,,,,,,,,709,22,female,up_down_width,2024-05-23_13h39.13.701,exp1,2023.1.0,60.02008271188822,
,,,,,,,,,,,,,,,,4,8.35,9.45,10.55,11.65,0,1.1,0.8500000000000001,0.25,3.5500000000000003,10,initial,36.05,301,341,380,420,0,9,9,9,9,0,,,,,,,0,0,0,0,0,16,16,19,,,,,,,,,,,,num_3,0.725815000012517,num_3,0.25,1.2,0.25,1.7,9.55138,64.94936,return,2.1355140000232495,,,,,,,,,,,,,,,,,709,22,female,up_down_width,2024-05-23_13h39.13.701,exp1,2023.1.0,60.02008271188822,
,,,,,,,,,,,,,,,,5,7.8,8.9,10,11.1,12.2,1.1,0.8500000000000001,0.25,4.65,10,initial,36.05,281,321,361,400,440,9,9,9,9,9,,,,,,,0,0,0,0,0,17,17,36,,,,,,,,,,,,num_4,1.0493320999667048,num_4,0.4,1.3,0.4,1.6,15.2822,61.12881,return,1.1156937999767251,,,,,,,,,,,,,,,,,709,22,female,up_down_width,2024-05-23_13h39.13.701,exp1,2023.1.0,60.02008271188822,
,,,,,,,,,,,,,,,,3,7.800000000000001,10,12.2,0,0,2.1999999999999997,1.7999999999999998,0.4,4.8,10,match,36.05,281,361,440,0,0,9,9,9,0,0,,,,,,,0,0,0,0,0,18,18,39,,,,,,,,,,,,num_2,0.8257670999737456,num_2,0.25,0.8,0.25,2.2,9.55138,84.05211,return,2.8039190000272356,,,,,,,,,,,,,,,,,709,22,female,up_down_width,2024-05-23_13h39.13.701,exp1,2023.1.0,60.02008271188822,
,,,,,,,,,,,,,,,,3,9.3,10,10.7,0,0,0.7,0.29999999999999993,0.4,1.8,10,initial,36.05,335,361,386,0,0,9,9,9,0,0,,,,,,,0,0,0,0,0,19,19,9,,,,,,,,,,,,num_2,0.7341146999970078,num_2,0.5,0.8,0.5,1.6,19.10275,61.12881,return,1.739536200009752,,,,,,,,,,,,,,,,,709,22,female,up_down_width,2024-05-23_13h39.13.701,exp1,2023.1.0,60.02008271188822,
,,,,,,,,,,,,,,,,5,8.6,9.3,10,10.7,11.4,0.7,0.29999999999999993,0.4,3.1999999999999997,10,initial,36.05,310,335,361,386,411,9,9,9,9,9,,,,,,,0,0,0,0,0,20,20,44,,,,,,,,,,,,num_4,0.880816999997478,num_4,0.25,0.4,0.25,1.3,9.55138,49.66716,return,2.0388789999997243,,,,,,,,,,,,,,,,,709,22,female,up_down_width,2024-05-23_13h39.13.701,exp1,2023.1.0,60.02008271188822,
,,,,,,,,,,,,,,,,3,9.1,10,10.9,0,0,0.9,0.35,0.55,2.35,10,initial,36.05,328,361,393,0,0,9,9,9,0,0,,,,,,,0,0,0,0,0,21,21,11,,,,,,,,,,,,num_2,0.7884024999802932,num_2,0.2,1.0,0.2,1.4,7.6411,53.48771,return,1.1174633000046015,,,,,,,,,,,,,,,,,709,22,female,up_down_width,2024-05-23_13h39.13.701,exp1,2023.1.0,60.02008271188822,
,,,,,,,,,,,,,,,,3,8.6,10,11.4,0,0,1.4,0.85,0.55,3.35,10,match,36.05,310,361,411,0,0,9,9,9,0,0,,,,,,,0,0,0,0,0,22,22,41,,,,,,,,,,,,num_3,0.7825423000031151,num_3,0.2,0.4,0.2,1.15,7.6411,43.93633,return,3.5345449000014924,,,,,,,,,,,,,,,,,709,22,female,up_down_width,2024-05-23_13h39.13.701,exp1,2023.1.0,60.02008271188822,
,,,,,,,,,,,,,,,,5,8.35,9.175,10,10.825,11.65,0.8250000000000001,0.275,0.55,3.85,10,match,36.05,301,331,361,390,420,9,9,9,9,9,,,,,,,0,0,0,0,0,23,23,18,,,,,,,,,,,,num_4,0.9163543999893591,num_4,0.3,0.6,0.3,1.1,11.46165,42.02605,return,1.4695014000171795,,,,,,,,,,,,,,,,,709,22,female,up_down_width,2024-05-23_13h39.13.701,exp1,2023.1.0,60.02008271188822,
,,,,,,,,,,,,,,,,3,7.8,10,12.2,0,0,2.2,1.9500000000000002,0.25,4.65,10,match,36.05,281,361,440,0,0,9,9,9,0,0,,,,,,,0,0,0,0,0,24,24,37,,,,,,,,,,,,num_2,0.8213834000052884,num_2,0.35,1.0,0.35,3.8,13.37193,145.18092,return,5.715890599996783,,,,,,,,,,,,,,,,,709,22,female,up_down_width,2024-05-23_13h39.13.701,exp1,2023.1.0,60.02008271188822,
,,,,,,,,,,,,,,,,3,9.1,10,10.9,0,0,0.9,0.65,0.25,2.05,10,initial,36.05,328,361,393,0,0,9,9,9,0,0,,,,,,,0,0,0,0,0,25,25,13,,,,,,,,,,,,num_2,0.8074044999666512,num_2,0.2,0.6,0.2,1.5,7.6411,57.30826,return,2.3990747000207193,,,,,,,,,,,,,,,,,709,22,female,up_down_width,2024-05-23_13h39.13.701,exp1,2023.1.0,60.02008271188822,
,,,,,,,,,,,,,,,,3,8.525,10,11.475,0,0,1.475,1.225,0.25,3.2,10,match,36.05,307,361,414,0,0,9,9,9,0,0,,,,,,,0,0,0,0,0,26,26,45,,,,,,,,,,,,num_3,1.0326121999532916,num_3,0.25,0.7,0.25,1.7,9.55138,64.94936,return,4.122213900031056,,,,,,,,,,,,,,,,,709,22,female,up_down_width,2024-05-23_13h39.13.701,exp1,2023.1.0,60.02008271188822,
,,,,,,,,,,,,,,,,5,8.35,9.175,10,10.825,11.65,0.825,0.575,0.25,3.55,10,match,36.05,301,331,361,390,420,9,9,9,9,9,,,,,,,0,0,0,0,0,27,27,20,,,,,,,,,,,,num_4,1.0435367000172846,num_4,0.55,1.2,0.55,1.8,21.01303,68.76991,return,1.8010378000326455,,,,,,,,,,,,,,,,,709,22,female,up_down_width,2024-05-23_13h39.13.701,exp1,2023.1.0,60.02008271188822,
,,,,,,,,,,,,,,,,3,8.6,10,11.4,0,0,1.4,1.15,0.25,3.05,10,match,36.05,310,361,411,0,0,9,9,9,0,0,,,,,,,0,0,0,0,0,28,28,43,,,,,,,,,,,,num_2,0.7007899000309408,num_2,0.3,1.2,0.3,2.0,11.46165,76.41101,return,1.7546454999828711,,,,,,,,,,,,,,,,,709,22,female,up_down_width,2024-05-23_13h39.13.701,exp1,2023.1.0,60.02008271188822,
,,,,,,,,,,,,,,,,5,8.2,9.1,10,10.9,11.8,0.9,0.35,0.55,4.15,10,initial,36.05,296,328,361,393,425,9,9,9,9,9,,,,,,,0,0,0,0,0,29,29,46,,,,,,,,,,,,num_4,1.1112430000212044,num_4,0.45,0.7,0.45,1.2,17.19248,45.8466,return,1.3000783000024967,,,,,,,,,,,,,,,,,709,22,female,up_down_width,2024-05-23_13h39.13.701,exp1,2023.1.0,60.02008271188822,
,,,,,,,,,,,,,,,,4,9.1,9.7,10.3,10.9,0,0.6,0.04999999999999997,0.55,2.35,10,match,36.05,328,350,371,393,0,9,9,9,9,0,,,,,,,0,0,0,0,0,30,30,12,,,,,,,,,,,,num_3,0.9425281000440009,num_3,0.5,1.2,0.5,0.55,19.10275,21.01303,return,4.115955899993423,,,,,,,,,,,,,,,,,709,22,female,up_down_width,2024-05-23_13h39.13.701,exp1,2023.1.0,60.02008271188822,
,,,,,,,,,,,,,,,,4,9.3,9.766666666666667,10.233333333333333,10.7,0,0.4666666666666667,0.21666666666666665,0.25,1.65,10,match,36.05,335,352,369,386,0,9,9,9,9,0,,,,,,,0,0,0,0,0,31,31,8,,,,,,,,,,,,num_3,0.774024200043641,num_3,0.35,1.3,0.35,0.85,13.37193,32.47468,return,2.54929599998286,,,,,,,,,,,,,,,,,709,22,female,up_down_width,2024-05-23_13h39.13.701,exp1,2023.1.0,60.02008271188822,
,,,,,,,,,,,,,,,,3,9.3,10,10.7,0,0,0.7,0.44999999999999996,0.25,1.65,10,initial,36.05,335,361,386,0,0,9,9,9,0,0,,,,,,,0,0,0,0,0,32,32,7,,,,,,,,,,,,num_3,0.6914048999897204,num_3,0.25,1.1,0.25,0.6,9.55138,22.9233,return,2.3854805000009947,,,,,,,,,,,,,,,,,709,22,female,up_down_width,2024-05-23_13h39.13.701,exp1,2023.1.0,60.02008271188822,
,,,,,,,,,,,,,,,,5,7.8,8.9,10,11.1,12.2,1.1,0.7000000000000001,0.4,4.800000000000001,10,initial,36.05,281,321,361,400,440,9,9,9,9,9,,,,,,,0,0,0,0,0,33,33,38,,,,,,,,,,,,num_4,1.3359203000436537,num_4,0.35,1.3,0.35,1.8,13.37193,68.76991,return,1.4578623000415973,,,,,,,,,,,,,,,,,709,22,female,up_down_width,2024-05-23_13h39.13.701,exp1,2023.1.0,60.02008271188822,
,,,,,,,,,,,,,,,,5,8.2,9.1,10,10.9,11.8,0.9,0.5,0.4,4,10,initial,36.05,296,328,361,393,425,9,9,9,9,9,,,,,,,0,0,0,0,0,34,34,50,,,,,,,,,,,,num_5,0.9748699000338092,num_5,0.35,1.0,0.35,1.0,13.37193,38.2055,return,1.1040939000085928,,,,,,,,,,,,,,,,,709,22,female,up_down_width,2024-05-23_13h39.13.701,exp1,2023.1.0,60.02008271188822,
,,,,,,,,,,,,,,,,3,9.1,10,10.9,0,0,0.9,0.5,0.4,2.2,10,initial,36.05,328,361,393,0,0,9,9,9,0,0,,,,,,,0,0,0,0,0,35,35,15,,,,,,,,,,,,num_3,1.639322099974379,num_3,0.25,0.6,0.25,0.85,9.55138,32.47468,return,2.3872014000080526,,,,,,,,,,,,,,,,,709,22,female,up_down_width,2024-05-23_13h39.13.701,exp1,2023.1.0,60.02008271188822,
,,,,,,,,,,,,,,,,5,8.275,9.1375,10,10.8625,11.725,0.8625,0.6125,0.25,3.7,10,match,36.05,298,329,361,392,423,9,9,9,9,9,,,,,,,0,0,0,0,0,36,36,22,,,,,,,,,,,,num_5,0.9238304999889806,num_5,0.45,0.9,0.45,1.2,17.19248,45.8466,return,1.8102898999932222,,,,,,,,,,,,,,,,,709,22,female,up_down_width,2024-05-23_13h39.13.701,exp1,2023.1.0,60.02008271188822,
,,,,,,,,,,,,,,,,4,8.95,9.65,10.35,11.05,0,0.7,0.44999999999999996,0.25,2.3499999999999996,10,initial,36.05,323,348,373,398,0,9,9,9,9,0,,,,,,,0,0,0,0,0,37,37,24,,,,,,,,,,,,num_4,0.9180131000466645,num_4,0.25,0.9,0.25,1.1,9.55138,42.02605,return,0.9108086000196636,,,,,,,,,,,,,,,,,709,22,female,up_down_width,2024-05-23_13h39.13.701,exp1,2023.1.0,60.02008271188822,
,,,,,,,,,,,,,,,,5,8.65,9.325,10,10.675,11.35,0.675,0.125,0.55,3.25,10,match,36.05,312,336,361,385,409,9,9,9,9,9,,,,,,,0,0,0,0,0,38,38,29,,,,,,,,,,,,num_4,0.9955066000111401,num_4,0.3,1.1,0.3,0.4,11.46165,15.2822,return,2.243428000016138,,,,,,,,,,,,,,,,,709,22,female,up_down_width,2024-05-23_13h39.13.701,exp1,2023.1.0,60.02008271188822,
,,,,,,,,,,,,,,,,4,8.65,9.55,10.45,11.35,0,0.9,0.35,0.55,3.25,10,initial,36.05,312,344,377,409,0,9,9,9,9,0,,,,,,,0,0,0,0,0,39,39,28,,,,,,,,,,,,num_4,0.8239019000320695,num_4,0.2,1.2,0.2,0.4,7.6411,15.2822,return,2.111098999972455,,,,,,,,,,,,,,,,,709,22,female,up_down_width,2024-05-23_13h39.13.701,exp1,2023.1.0,60.02008271188822,
,,,,,,,,,,,,,,,,5,8.2,9.1,10,10.9,11.8,0.9,0.65,0.25,3.85,10,initial,36.05,296,328,361,393,425,9,9,9,9,9,,,,,,,0,0,0,0,0,40,40,48,,,,,,,,,,,,num_5,0.8405227000475861,num_5,0.2,0.7,0.2,0.8,7.6411,30.5644,return,1.3453056000289507,,,,,,,,,,,,,,,,,709,22,female,up_down_width,2024-05-23_13h39.13.701,exp1,2023.1.0,60.02008271188822,
,,,,,,,,,,,,,,,,5,8.6,9.3,10,10.7,11.4,0.7,0.1499999999999999,0.55,3.3499999999999996,10,initial,36.05,310,335,361,386,411,9,9,9,9,9,,,,,,,0,0,0,0,0,41,41,40,,,,,,,,,,,,num_4,0.9660870000370778,num_4,0.25,0.7,0.25,0.3,9.55138,11.46165,return,1.5593603999586776,,,,,,,,,,,,,,,,,709,22,female,up_down_width,2024-05-23_13h39.13.701,exp1,2023.1.0,60.02008271188822,
,,,,,,,,,,,,,,,,5,8.95,9.475,10,10.525,11.05,0.525,0.275,0.25,2.35,10,match,36.05,323,342,361,379,398,9,9,9,9,9,,,,,,,0,0,0,0,0,42,42,25,,,,,,,,,,,,num_4,0.7493552000378259,num_4,0.4,1.1,0.4,0.7,15.2822,26.74385,return,1.679833600006532,,,,,,,,,,,,,,,,,709,22,female,up_down_width,2024-05-23_13h39.13.701,exp1,2023.1.0,60.02008271188822,
,,,,,,,,,,,,,,,,3,8.2,10,11.8,0,0,1.7999999999999998,1.4,0.4,4,10,match,36.05,296,361,425,0,0,9,9,9,0,0,,,,,,,0,0,0,0,0,43,43,51,,,,,,,,,,,,num_3,0.7557900999672711,num_3,0.55,0.7,0.55,1.35,21.01303,51.57743,return,2.9106010000105016,,,,,,,,,,,,,,,,,709,22,female,up_down_width,2024-05-23_13h39.13.701,exp1,2023.1.0,60.02008271188822,
,,,,,,,,,,,,,,,,5,7.8,8.9,10,11.1,12.2,1.1,0.55,0.55,4.95,10,initial,36.05,281,321,361,400,440,9,9,9,9,9,,,,,,,0,0,0,0,0,44,44,34,,,,,,,,,,,,num_6,1.0954433999722824,num_6,0.5,0.9,0.5,1.2,19.10275,45.8466,return,1.0567359999986365,,,,,,,,,,,,,,,,,709,22,female,up_down_width,2024-05-23_13h39.13.701,exp1,2023.1.0,60.02008271188822,
,,,,,,,,,,,,,,,,4,8.95,9.65,10.35,11.05,0,0.7,0.1499999999999999,0.55,2.65,10,initial,36.05,323,348,373,398,0,9,9,9,9,0,,,,,,,0,0,0,0,0,45,45,23,,,,,,,,,,,,num_4,0.8888646999839693,num_4,0.25,1.0,0.25,0.4,9.55138,15.2822,return,1.5199726999853738,,,,,,,,,,,,,,,,,709,22,female,up_down_width,2024-05-23_13h39.13.701,exp1,2023.1.0,60.02008271188822,
,,,,,,,,,,,,,,,,4,8.9,9.633333333333333,10.366666666666667,11.1,0,0.7333333333333333,0.18333333333333326,0.55,2.75,10,match,36.05,321,347,374,400,0,9,9,9,9,0,,,,,,,0,0,0,0,0,46,46,1,,,,,,,,,,,,num_4,0.8154524000128731,num_4,0.45,0.9,0.45,0.6,17.19248,22.9233,return,1.4703157999902032,,,,,,,,,,,,,,,,,709,22,female,up_down_width,2024-05-23_13h39.13.701,exp1,2023.1.0,60.02008271188822,
,,,,,,,,,,,,,,,,4,9.1,9.7,10.3,10.9,0,0.5999999999999999,0.3499999999999999,0.25,2.05,10,match,36.05,328,350,371,393,0,9,9,9,9,0,,,,,,,0,0,0,0,0,47,47,14,,,,,,,,,,,,num_4,0.8434507999918424,num_4,0.35,0.7,0.35,0.6,13.37193,22.9233,return,0.9821593000087887,,,,,,,,,,,,,,,,,709,22,female,up_down_width,2024-05-23_13h39.13.701,exp1,2023.1.0,60.02008271188822,
,,,,,,,,,,,,,,,,4,9.3,9.766666666666667,10.233333333333333,10.7,0,0.4666666666666667,0.06666666666666665,0.4,1.8,10,match,36.05,335,352,369,386,0,9,9,9,9,0,,,,,,,0,0,0,0,0,48,48,10,,,,,,,,,,,,num_4,0.8825986000010744,num_4,0.35,0.4,0.35,0.4,13.37193,15.2822,return,0.9573468000162393,,,,,,,,,,,,,,,,,709,22,female,up_down_width,2024-05-23_13h39.13.701,exp1,2023.1.0,60.02008271188822,
,,,,,,,,,,,,,,,,5,8.65,9.325,10,10.675,11.35,0.675,0.42500000000000004,0.25,2.95,10,match,36.05,312,336,361,385,409,9,9,9,9,9,,,,,,,0,0,0,0,0,49,49,31,,,,,,,,,,,,num_4,0.7851603000308387,num_4,0.45,0.9,0.45,0.7,17.19248,26.74385,return,1.607056199980434,,,,,,,,,,,,,,,,,709,22,female,up_down_width,2024-05-23_13h39.13.701,exp1,2023.1.0,60.02008271188822,
,,,,,,,,,,,,,,,,5,8.95,9.475,10,10.525,11.05,0.525,0.125,0.4,2.5,10,match,36.05,323,342,361,379,398,9,9,9,9,9,,,,,,,0,0,0,0,0,50,50,27,,,,,,,,,,,,num_5,0.8570631999755278,num_5,0.35,0.4,0.35,0.5,13.37193,19.10275,return,1.3749484000145458,,,,,,,,,,,,,,,,,709,22,female,up_down_width,2024-05-23_13h39.13.701,exp1,2023.1.0,60.02008271188822,
,,,,,,,,,,,,,,,,4,8.65,9.55,10.45,11.35,0,0.9,0.5,0.4,3.1,10,initial,36.05,312,344,377,409,0,9,9,9,9,0,,,,,,,0,0,0,0,0,51,51,32,,,,,,,,,,,,num_4,0.9187985999742523,num_4,0.3,0.4,0.3,0.6,11.46165,22.9233,return,1.6639862000010908,,,,,,,,,,,,,,,,,709,22,female,up_down_width,2024-05-23_13h39.13.701,exp1,2023.1.0,60.02008271188822,
,,,,,,,,,,,,,,,,,,,,,,,,,,,,,,,,,,,,,,,,,,,,,0,0,0,0,,,,,,,,,,,,,,,,,,,,,,,,,,,,,1094.560380400042,1094.560380400042,1094.560380400042,,,,,,,,,,,,709,22,female,up_down_width,2024-05-23_13h39.13.701,exp1,2023.1.0,60.02008271188822,
,,,,,,,,,,,,,,,,4,8.95,9.65,10.35,11.05,0,0.7,0.1499999999999999,0.55,2.65,10,initial,36.05,323,348,373,398,0,9,9,9,9,0,,,,,,,1,0,1,0,0,0,0,23,,,,,,,,,,,,num_4,0.9749447999638505,num_4,0.2,1.1,0.2,0.3,7.6411,11.46165,return,3.4894140999531373,,,,,,,,,,,,,,,,,709,22,female,up_down_width,2024-05-23_13h39.13.701,exp1,2023.1.0,60.02008271188822,
,,,,,,,,,,,,,,,,3,8.9,10,11.1,0,0,1.1,0.8500000000000001,0.25,2.45,10,initial,36.05,321,361,400,0,0,9,9,9,0,0,,,,,,,1,0,1,0,0,1,1,2,,,,,,,,,,,,num_2,1.1645972999976948,num_2,0.4,1.4,0.4,1.5,15.2822,57.30826,return,1.0013498999760486,,,,,,,,,,,,,,,,,709,22,female,up_down_width,2024-05-23_13h39.13.701,exp1,2023.1.0,60.02008271188822,
,,,,,,,,,,,,,,,,5,8.2,9.1,10,10.9,11.8,0.9,0.5,0.4,4,10,initial,36.05,296,328,361,393,425,9,9,9,9,9,,,,,,,1,0,1,0,0,2,2,50,,,,,,,,,,,,num_3,1.17377310001757,num_3,0.4,0.9,0.4,1.05,15.2822,40.11578,return,0.982310299994424,,,,,,,,,,,,,,,,,709,22,female,up_down_width,2024-05-23_13h39.13.701,exp1,2023.1.0,60.02008271188822,
,,,,,,,,,,,,,,,,3,8.6,10,11.4,0,0,1.4,0.85,0.55,3.35,10,match,36.05,310,361,411,0,0,9,9,9,0,0,,,,,,,1,0,1,0,0,3,3,41,,,,,,,,,,,,num_3,0.8340457999729551,num_3,0.25,0.7,0.25,1.15,9.55138,43.93633,return,1.470831000013277,,,,,,,,,,,,,,,,,709,22,female,up_down_width,2024-05-23_13h39.13.701,exp1,2023.1.0,60.02008271188822,
,,,,,,,,,,,,,,,,4,9.1,9.7,10.3,10.9,0,0.6000000000000001,0.20000000000000004,0.4,2.2,10,match,36.05,328,350,371,393,0,9,9,9,9,0,,,,,,,1,0,1,0,0,4,4,16,,,,,,,,,,,,num_4,1.0207142000435852,num_4,0.35,1.3,0.35,0.6,13.37193,22.9233,return,1.7612891999888234,,,,,,,,,,,,,,,,,709,22,female,up_down_width,2024-05-23_13h39.13.701,exp1,2023.1.0,60.02008271188822,
,,,,,,,,,,,,,,,,3,7.8,10,12.2,0,0,2.2,1.9500000000000002,0.25,4.65,10,match,36.05,281,361,440,0,0,9,9,9,0,0,,,,,,,1,0,1,0,0,5,5,37,,,,,,,,,,,,num_2,0.7511815000325441,num_2,0.25,1.0,0.25,2.7,9.55138,103.15486,return,3.999726100009866,,,,,,,,,,,,,,,,,709,22,female,up_down_width,2024-05-23_13h39.13.701,exp1,2023.1.0,60.02008271188822,
,,,,,,,,,,,,,,,,3,8.6,10,11.4,0,0,1.4,1.15,0.25,3.05,10,match,36.05,310,361,411,0,0,9,9,9,0,0,,,,,,,1,0,1,0,0,6,6,43,,,,,,,,,,,,num_3,0.7140701999887824,num_3,0.35,0.9,0.35,1.85,13.37193,70.68018,return,3.2718789000064135,,,,,,,,,,,,,,,,,709,22,female,up_down_width,2024-05-23_13h39.13.701,exp1,2023.1.0,60.02008271188822,
,,,,,,,,,,,,,,,,5,8.6,9.3,10,10.7,11.4,0.7,0.1499999999999999,0.55,3.3499999999999996,10,initial,36.05,310,335,361,386,411,9,9,9,9,9,,,,,,,1,0,1,0,0,7,7,40,,,,,,,,,,,,num_3,1.0180385999847203,num_3,0.45,0.5,0.45,0.65,17.19248,24.83358,return,1.2478552000247873,,,,,,,,,,,,,,,,,709,22,female,up_down_width,2024-05-23_13h39.13.701,exp1,2023.1.0,60.02008271188822,
,,,,,,,,,,,,,,,,3,8.2,10,11.8,0,0,1.8,1.25,0.55,4.15,10,match,36.05,296,361,425,0,0,9,9,9,0,0,,,,,,,1,0,1,0,0,8,8,47,,,,,,,,,,,,num_3,0.7120530999964103,num_3,0.25,1.1,0.25,1.5,9.55138,57.30826,return,1.5248789999750443,,,,,,,,,,,,,,,,,709,22,female,up_down_width,2024-05-23_13h39.13.701,exp1,2023.1.0,60.02008271188822,
,,,,,,,,,,,,,,,,5,8.65,9.325,10,10.675,11.35,0.675,0.125,0.55,3.25,10,match,36.05,312,336,361,385,409,9,9,9,9,9,,,,,,,1,0,1,0,0,9,9,29,,,,,,,,,,,,num_3,0.830734700022731,num_3,0.3,0.8,0.3,0.4,11.46165,15.2822,return,2.0100382000091486,,,,,,,,,,,,,,,,,709,22,female,up_down_width,2024-05-23_13h39.13.701,exp1,2023.1.0,60.02008271188822,
,,,,,,,,,,,,,,,,4,8.9,9.633333333333333,10.366666666666667,11.1,0,0.7333333333333334,0.4833333333333334,0.25,2.45,10,match,36.05,321,347,374,400,0,9,9,9,9,0,,,,,,,1,0,1,0,0,10,10,3,,,,,,,,,,,,num_4,1.09355410002172,num_4,0.2,1.0,0.2,0.5,7.6411,19.10275,return,1.5712777000153437,,,,,,,,,,,,,,,,,709,22,female,up_down_width,2024-05-23_13h39.13.701,exp1,2023.1.0,60.02008271188822,
,,,,,,,,,,,,,,,,3,9.1,10,10.9,0,0,0.9,0.5,0.4,2.2,10,initial,36.05,328,361,393,0,0,9,9,9,0,0,,,,,,,1,0,1,0,0,11,11,15,,,,,,,,,,,,num_3,0.7143605999881402,num_3,0.4,0.7,0.4,0.75,15.2822,28.65413,return,1.0678484999807552,,,,,,,,,,,,,,,,,709,22,female,up_down_width,2024-05-23_13h39.13.701,exp1,2023.1.0,60.02008271188822,
,,,,,,,,,,,,,,,,5,7.8,8.9,10,11.1,12.2,1.1,0.7000000000000001,0.4,4.800000000000001,10,initial,36.05,281,321,361,400,440,9,9,9,9,9,,,,,,,1,0,1,0,0,12,12,38,,,,,,,,,,,,num_5,0.8534295999561436,num_5,0.5,1.1,0.5,1.35,19.10275,51.57743,return,1.4229775000130758,,,,,,,,,,,,,,,,,709,22,female,up_down_width,2024-05-23_13h39.13.701,exp1,2023.1.0,60.02008271188822,
,,,,,,,,,,,,,,,,3,8.2,10,11.8,0,0,1.7999999999999998,1.4,0.4,4,10,match,36.05,296,361,425,0,0,9,9,9,0,0,,,,,,,1,0,1,0,0,13,13,51,,,,,,,,,,,,num_3,0.7385194000089541,num_3,0.3,1.2,0.3,1.9,11.46165,72.59046,return,2.7871299000107683,,,,,,,,,,,,,,,,,709,22,female,up_down_width,2024-05-23_13h39.13.701,exp1,2023.1.0,60.02008271188822,
,,,,,,,,,,,,,,,,4,8.95,9.65,10.35,11.05,0,0.7,0.44999999999999996,0.25,2.3499999999999996,10,initial,36.05,323,348,373,398,0,9,9,9,9,0,,,,,,,1,0,1,0,0,14,14,24,,,,,,,,,,,,num_4,0.8872973999823444,num_4,0.25,0.7,0.25,0.7,9.55138,26.74385,return,0.5890636999974959,,,,,,,,,,,,,,,,,709,22,female,up_down_width,2024-05-23_13h39.13.701,exp1,2023.1.0,60.02008271188822,
,,,,,,,,,,,,,,,,5,8.65,9.325,10,10.675,11.35,0.675,0.42500000000000004,0.25,2.95,10,match,36.05,312,336,361,385,409,9,9,9,9,9,,,,,,,1,0,1,0,0,15,15,31,,,,,,,,,,,,num_6,0.8069772999733686,num_6,0.55,1.0,0.55,1.1,21.01303,42.02605,return,1.1840810000430793,,,,,,,,,,,,,,,,,709,22,female,up_down_width,2024-05-23_13h39.13.701,exp1,2023.1.0,60.02008271188822,
,,,,,,,,,,,,,,,,3,8.9,10,11.1,0,0,1.1,0.7000000000000001,0.4,2.6000000000000005,10,initial,36.05,321,361,400,0,0,9,9,9,0,0,,,,,,,1,0,1,0,0,16,16,4,,,,,,,,,,,,num_3,0.6963628000230528,num_3,0.25,0.3,0.25,0.6,9.55138,22.9233,return,1.2228375999839045,,,,,,,,,,,,,,,,,709,22,female,up_down_width,2024-05-23_13h39.13.701,exp1,2023.1.0,60.02008271188822,
,,,,,,,,,,,,,,,,5,8.275,9.1375,10,10.8625,11.725,0.8625,0.6125,0.25,3.7,10,match,36.05,298,329,361,392,423,9,9,9,9,9,,,,,,,1,0,1,0,0,17,17,22,,,,,,,,,,,,num_6,0.688630299991928,num_6,0.5,1.1,0.5,1.3,19.10275,49.66716,return,0.6120600000140257,,,,,,,,,,,,,,,,,709,22,female,up_down_width,2024-05-23_13h39.13.701,exp1,2023.1.0,60.02008271188822,
,,,,,,,,,,,,,,,,5,7.8,8.9,10,11.1,12.2,1.1,0.8500000000000001,0.25,4.65,10,initial,36.05,281,321,361,400,440,9,9,9,9,9,,,,,,,1,0,1,0,0,18,18,36,,,,,,,,,,,,num_6,0.9270206000073813,num_6,0.25,1.1,0.25,0.9,9.55138,34.38495,return,0.8646644999971613,,,,,,,,,,,,,,,,,709,22,female,up_down_width,2024-05-23_13h39.13.701,exp1,2023.1.0,60.02008271188822,
,,,,,,,,,,,,,,,,4,8.9,9.633333333333333,10.366666666666667,11.1,0,0.7333333333333333,0.18333333333333326,0.55,2.75,10,match,36.05,321,347,374,400,0,9,9,9,9,0,,,,,,,1,0,1,0,0,19,19,1,,,,,,,,,,,,num_4,0.8029306000098586,num_4,0.5,0.7,0.5,0.8,19.10275,30.5644,return,0.5878763999789953,,,,,,,,,,,,,,,,,709,22,female,up_down_width,2024-05-23_13h39.13.701,exp1,2023.1.0,60.02008271188822,
,,,,,,,,,,,,,,,,5,8.2,9.1,10,10.9,11.8,0.9,0.65,0.25,3.85,10,initial,36.05,296,328,361,393,425,9,9,9,9,9,,,,,,,1,0,1,0,0,20,20,48,,,,,,,,,,,,num_5,0.9934953000047244,num_5,0.4,1.0,0.4,0.95,15.2822,36.29523,return,1.2964920999947935,,,,,,,,,,,,,,,,,709,22,female,up_down_width,2024-05-23_13h39.13.701,exp1,2023.1.0,60.02008271188822,
,,,,,,,,,,,,,,,,3,9.3,10,10.7,0,0,0.7,0.1499999999999999,0.55,1.95,10,initial,36.05,335,361,386,0,0,9,9,9,0,0,,,,,,,1,0,1,0,0,21,21,6,,,,,,,,,,,,num_3,0.8233505000243895,num_3,0.35,0.7,0.35,0.5,13.37193,19.10275,return,1.3951246000360698,,,,,,,,,,,,,,,,,709,22,female,up_down_width,2024-05-23_13h39.13.701,exp1,2023.1.0,60.02008271188822,
,,,,,,,,,,,,,,,,5,8.6,9.3,10,10.7,11.4,0.7,0.44999999999999996,0.25,3.05,10,initial,36.05,310,335,361,386,411,9,9,9,9,9,,,,,,,1,0,1,0,0,22,22,42,,,,,,,,,,,,num_5,0.758938200015109,num_5,0.3,0.5,0.3,0.65,11.46165,24.83358,return,0.7719691999955103,,,,,,,,,,,,,,,,,709,22,female,up_down_width,2024-05-23_13h39.13.701,exp1,2023.1.0,60.02008271188822,
,,,,,,,,,,,,,,,,5,7.8,8.9,10,11.1,12.2,1.1,0.55,0.55,4.95,10,initial,36.05,281,321,361,400,440,9,9,9,9,9,,,,,,,1,0,1,0,0,23,23,34,,,,,,,,,,,,num_5,0.7570409000036307,num_5,0.2,1.2,0.2,0.8,7.6411,30.5644,return,2.04750879999483,,,,,,,,,,,,,,,,,709,22,female,up_down_width,2024-05-23_13h39.13.701,exp1,2023.1.0,60.02008271188822,
,,,,,,,,,,,,,,,,3,9.3,10,10.7,0,0,0.7,0.44999999999999996,0.25,1.65,10,initial,36.05,335,361,386,0,0,9,9,9,0,0,,,,,,,1,0,1,0,0,24,24,7,,,,,,,,,,,,num_3,0.8740441999980249,num_3,0.55,1.1,0.55,1.1,21.01303,42.02605,return,0.8065337000298314,,,,,,,,,,,,,,,,,709,22,female,up_down_width,2024-05-23_13h39.13.701,exp1,2023.1.0,60.02008271188822,
,,,,,,,,,,,,,,,,3,7.8,10,12.2,0,0,2.2,1.65,0.55,4.95,10,match,36.05,281,361,440,0,0,9,9,9,0,0,,,,,,,1,0,1,0,0,25,25,35,,,,,,,,,,,,num_3,0.6686667000176385,num_3,0.4,0.6,0.4,1.3,15.2822,49.66716,return,2.7625450000050478,,,,,,,,,,,,,,,,,709,22,female,up_down_width,2024-05-23_13h39.13.701,exp1,2023.1.0,60.02008271188822,
,,,,,,,,,,,,,,,,3,9.3,10,10.7,0,0,0.7,0.29999999999999993,0.4,1.8,10,initial,36.05,335,361,386,0,0,9,9,9,0,0,,,,,,,1,0,1,0,0,26,26,9,,,,,,,,,,,,num_3,0.7713800999918021,num_3,0.5,1,0.5,0.8,19.10275,30.5644,return,1.2830052999779582,,,,,,,,,,,,,,,,,709,22,female,up_down_width,2024-05-23_13h39.13.701,exp1,2023.1.0,60.02008271188822,
,,,,,,,,,,,,,,,,5,8.95,9.475,10,10.525,11.05,0.525,0.275,0.25,2.35,10,match,36.05,323,342,361,379,398,9,9,9,9,9,,,,,,,1,0,1,0,0,27,27,25,,,,,,,,,,,,num_5,0.7936386000365019,num_5,0.45,0.8,0.45,0.8,17.19248,30.5644,return,0.6015969999716617,,,,,,,,,,,,,,,,,709,22,female,up_down_width,2024-05-23_13h39.13.701,exp1,2023.1.0,60.02008271188822,
,,,,,,,,,,,,,,,,4,9.1,9.7,10.3,10.9,0,0.6,0.04999999999999997,0.55,2.35,10,match,36.05,328,350,371,393,0,9,9,9,9,0,,,,,,,1,0,1,0,0,28,28,12,,,,,,,,,,,,num_3,0.7759839000063948,num_3,0.2,1.1,0.2,0.3,7.6411,11.46165,return,3.415515599946957,,,,,,,,,,,,,,,,,709,22,female,up_down_width,2024-05-23_13h39.13.701,exp1,2023.1.0,60.02008271188822,
,,,,,,,,,,,,,,,,5,8.6,9.3,10,10.7,11.4,0.7,0.29999999999999993,0.4,3.1999999999999997,10,initial,36.05,310,335,361,386,411,9,9,9,9,9,,,,,,,1,0,1,0,0,29,29,44,,,,,,,,,,,,num_5,0.8022992000333034,num_5,0.55,1.2,0.55,0.75,21.01303,28.65413,return,2.1606956000323407,,,,,,,,,,,,,,,,,709,22,female,up_down_width,2024-05-23_13h39.13.701,exp1,2023.1.0,60.02008271188822,
,,,,,,,,,,,,,,,,3,7.800000000000001,10,12.2,0,0,2.1999999999999997,1.7999999999999998,0.4,4.8,10,match,36.05,281,361,440,0,0,9,9,9,0,0,,,,,,,1,0,1,0,0,30,30,39,,,,,,,,,,,,num_3,0.644514000043273,num_3,0.4,0.8,0.4,2.25,15.2822,85.96238,return,5.801669800013769,,,,,,,,,,,,,,,,,709,22,female,up_down_width,2024-05-23_13h39.13.701,exp1,2023.1.0,60.02008271188822,
,,,,,,,,,,,,,,,,4,9.3,9.766666666666667,10.233333333333333,10.7,0,0.4666666666666667,0.21666666666666665,0.25,1.65,10,match,36.05,335,352,369,386,0,9,9,9,9,0,,,,,,,1,0,1,0,0,31,31,8,,,,,,,,,,,,num_3,0.6909921999904327,num_3,0.4,0.7,0.4,0.6,15.2822,22.9233,return,0.789893299981486,,,,,,,,,,,,,,,,,709,22,female,up_down_width,2024-05-23_13h39.13.701,exp1,2023.1.0,60.02008271188822,
,,,,,,,,,,,,,,,,5,8.35,9.175,10,10.825,11.65,0.825,0.575,0.25,3.55,10,match,36.05,301,331,361,390,420,9,9,9,9,9,,,,,,,1,0,1,0,0,32,32,20,,,,,,,,,,,,num_5,0.7083457999979146,num_5,0.35,1.0,0.35,0.9,13.37193,34.38495,return,1.3344768999959342,,,,,,,,,,,,,,,,,709,22,female,up_down_width,2024-05-23_13h39.13.701,exp1,2023.1.0,60.02008271188822,
,,,,,,,,,,,,,,,,3,8.9,10,11.1,0,0,1.1,0.55,0.55,2.75,10,initial,36.05,321,361,400,0,0,9,9,9,0,0,,,,,,,1,0,1,0,0,33,33,0,,,,,,,,,,,,num_3,0.5994599999976344,num_3,0.45,1.3,0.45,1.2,17.19248,45.8466,return,0.780284299980849,,,,,,,,,,,,,,,,,709,22,female,up_down_width,2024-05-23_13h39.13.701,exp1,2023.1.0,60.02008271188822,
,,,,,,,,,,,,,,,,4,9.3,9.766666666666667,10.233333333333333,10.7,0,0.4666666666666667,0.06666666666666665,0.4,1.8,10,match,36.05,335,352,369,386,0,9,9,9,9,0,,,,,,,1,0,1,0,0,34,34,10,,,,,,,,,,,,num_3,0.8844910000334494,num_3,0.5,1.3,0.5,0.7,19.10275,26.74385,return,2.7740609999746084,,,,,,,,,,,,,,,,,709,22,female,up_down_width,2024-05-23_13h39.13.701,exp1,2023.1.0,60.02008271188822,
,,,,,,,,,,,,,,,,3,9.1,10,10.9,0,0,0.9,0.65,0.25,2.05,10,initial,36.05,328,361,393,0,0,9,9,9,0,0,,,,,,,1,0,1,0,0,35,35,13,,,,,,,,,,,,num_3,0.6650133000221103,num_3,0.3,0.7,0.3,0.9,11.46165,34.38495,return,1.3691729999845847,,,,,,,,,,,,,,,,,709,22,female,up_down_width,2024-05-23_13h39.13.701,exp1,2023.1.0,60.02008271188822,
,,,,,,,,,,,,,,,,5,8.95,9.475,10,10.525,11.05,0.525,0.125,0.4,2.5,10,match,36.05,323,342,361,379,398,9,9,9,9,9,,,,,,,1,0,1,0,0,36,36,27,,,,,,,,,,,,num_4,0.8298713999683969,num_4,0.25,1.2,0.25,0.4,9.55138,15.2822,return,1.9594930000021122,,,,,,,,,,,,,,,,,709,22,female,up_down_width,2024-05-23_13h39.13.701,exp1,2023.1.0,60.02008271188822,
,,,,,,,,,,,,,,,,4,8.35,9.45,10.55,11.65,0,1.1,0.7000000000000001,0.4,3.7,10,initial,36.05,301,341,380,420,0,9,9,9,9,0,,,,,,,1,0,1,0,0,37,37,21,,,,,,,,,,,,num_4,0.7249364000163041,num_4,0.35,0.4,0.3,0.7,11.46165,26.74385,return,1.6628853000001982,,,,,,,,,,,,,,,,,709,22,female,up_down_width,2024-05-23_13h39.13.701,exp1,2023.1.0,60.02008271188822,
,,,,,,,,,,,,,,,,4,8.825,9.608333333333333,10.391666666666667,11.175,0,0.7833333333333333,0.5333333333333333,0.25,2.6,10,match,36.05,318,346,375,403,0,9,9,9,9,0,,,,,,,1,0,1,0,0,38,38,5,,,,,,,,,,,,num_3,3.2686000000103377,num_3,0.35,0.4,0.10000000000000002,0.6,3.82055,22.9233,return,3.579540900012944,,,,,,,,,,,,,,,,,709,22,female,up_down_width,2024-05-23_13h39.13.701,exp1,2023.1.0,60.02008271188822,
,,,,,,,,,,,,,,,,5,8.2,9.1,10,10.9,11.8,0.9,0.35,0.55,4.15,10,initial,36.05,296,328,361,393,425,9,9,9,9,9,,,,,,,1,0,1,0,0,39,39,46,,,,,,,,,,,,num_5,1.2881517999921925,num_5,0.3,0.4,0.39999999999999997,0.7,15.2822,26.74385,return,4.541779599967413,,,,,,,,,,,,,,,,,709,22,female,up_down_width,2024-05-23_13h39.13.701,exp1,2023.1.0,60.02008271188822,
,,,,,,,,,,,,,,,,3,9.1,10,10.9,0,0,0.9,0.35,0.55,2.35,10,initial,36.05,328,361,393,0,0,9,9,9,0,0,,,,,,,1,0,1,0,0,40,40,11,,,,,,,,,,,,num_3,0.7473812000243925,num_3,0.55,1.2,0.55,1.2,21.01303,45.8466,return,0.7445633999886923,,,,,,,,,,,,,,,,,709,22,female,up_down_width,2024-05-23_13h39.13.701,exp1,2023.1.0,60.02008271188822,
,,,,,,,,,,,,,,,,3,8.2,10,11.8,0,0,1.8,1.55,0.25,3.85,10,match,36.05,296,361,425,0,0,9,9,9,0,0,,,,,,,1,0,1,0,0,41,41,49,,,,,,,,,,,,num_3,1.0512205000268295,num_3,0.5,1.3,0.15000000000000008,1.65,5.73083,63.03908,return,3.136341999983415,,,,,,,,,,,,,,,,,709,22,female,up_down_width,2024-05-23_13h39.13.701,exp1,2023.1.0,60.02008271188822,
,,,,,,,,,,,,,,,,4,8.65,9.55,10.45,11.35,0,0.9,0.5,0.4,3.1,10,initial,36.05,312,344,377,409,0,9,9,9,9,0,,,,,,,1,0,1,0,0,42,42,32,,,,,,,,,,,,num_4,0.9345685999724083,num_4,0.25,1.0,0.39999999999999997,1.3,15.2822,49.66716,return,2.6644184999749996,,,,,,,,,,,,,,,,,709,22,female,up_down_width,2024-05-23_13h39.13.701,exp1,2023.1.0,60.02008271188822,
,,,,,,,,,,,,,,,,5,8.65,9.325,10,10.675,11.35,0.675,0.275,0.4,3.1,10,match,36.05,312,336,361,385,409,9,9,9,9,9,,,,,,,1,0,1,0,0,43,43,33,,,,,,,,,,,,num_3,1.176801500027068,num_3,0.4,1,0.35000000000000003,1.35,13.37193,51.57743,return,2.931342699972447,,,,,,,,,,,,,,,,,709,22,female,up_down_width,2024-05-23_13h39.13.701,exp1,2023.1.0,60.02008271188822,
,,,,,,,,,,,,,,,,4,8.65,9.55,10.45,11.35,0,0.9,0.65,0.25,2.95,10,initial,36.05,312,344,377,409,0,9,9,9,9,0,,,,,,,1,0,1,0,0,44,44,30,,,,,,,,,,,,num_4,0.8195732000167482,num_4,0.5,1.3,0.5,1.3,19.10275,49.66716,return,0.5463202999671921,,,,,,,,,,,,,,,,,709,22,female,up_down_width,2024-05-23_13h39.13.701,exp1,2023.1.0,60.02008271188822,
,,,,,,,,,,,,,,,,5,8.35,9.175,10,10.825,11.65,0.8250000000000001,0.275,0.55,3.85,10,match,36.05,301,331,361,390,420,9,9,9,9,9,,,,,,,1,0,1,0,0,45,45,18,,,,,,,,,,,,num_5,0.9967430999968201,num_5,0.3,0.7,0.2,0.95,7.6411,36.29523,return,2.40634190000128,,,,,,,,,,,,,,,,,709,22,female,up_down_width,2024-05-23_13h39.13.701,exp1,2023.1.0,60.02008271188822,
,,,,,,,,,,,,,,,,4,8.35,9.45,10.55,11.65,0,1.1,0.8500000000000001,0.25,3.5500000000000003,10,initial,36.05,301,341,380,420,0,9,9,9,9,0,,,,,,,1,0,1,0,0,46,46,19,,,,,,,,,,,,num_4,0.8581737999920733,num_4,0.45,0.8,0.25000000000000006,1.3,9.55138,49.66716,return,2.0028469000244513,,,,,,,,,,,,,,,,,709,22,female,up_down_width,2024-05-23_13h39.13.701,exp1,2023.1.0,60.02008271188822,
,,,,,,,,,,,,,,,,3,8.525,10,11.475,0,0,1.475,1.225,0.25,3.2,10,match,36.05,307,361,414,0,0,9,9,9,0,0,,,,,,,1,0,1,0,0,47,47,45,,,,,,,,,,,,num_3,0.7508594000246376,num_3,0.25,1.1,0.10000000000000002,1.6,3.82055,61.12881,return,2.9067154999938793,,,,,,,,,,,,,,,,,709,22,female,up_down_width,2024-05-23_13h39.13.701,exp1,2023.1.0,60.02008271188822,
,,,,,,,,,,,,,,,,4,9.1,9.7,10.3,10.9,0,0.5999999999999999,0.3499999999999999,0.25,2.05,10,match,36.05,328,350,371,393,0,9,9,9,9,0,,,,,,,1,0,1,0,0,48,48,14,,,,,,,,,,,,num_4,0.9101993999793194,num_4,0.55,1.1,0.20000000000000007,0.7,7.6411,26.74385,return,2.3397894999943674,,,,,,,,,,,,,,,,,709,22,female,up_down_width,2024-05-23_13h39.13.701,exp1,2023.1.0,60.02008271188822,
,,,,,,,,,,,,,,,,4,8.35,9.45,10.55,11.65,0,1.1,0.55,0.55,3.8500000000000005,10,initial,36.05,301,341,380,420,0,9,9,9,9,0,,,,,,,1,0,1,0,0,49,49,17,,,,,,,,,,,,num_4,1.496499800006859,num_4,0.3,0.5,0.44999999999999996,0.9,17.19248,34.38495,return,1.7349428000161424,,,,,,,,,,,,,,,,,709,22,female,up_down_width,2024-05-23_13h39.13.701,exp1,2023.1.0,60.02008271188822,
,,,,,,,,,,,,,,,,4,8.65,9.55,10.45,11.35,0,0.9,0.35,0.55,3.25,10,initial,36.05,312,344,377,409,0,9,9,9,9,0,,,,,,,1,0,1,0,0,50,50,28,,,,,,,,,,,,num_4,0.8659785999916494,num_4,0.3,1.0,0.5499999999999999,1.0,21.01303,38.2055,return,1.7549117000307888,,,,,,,,,,,,,,,,,709,22,female,up_down_width,2024-05-23_13h39.13.701,exp1,2023.1.0,60.02008271188822,
,,,,,,,,,,,,,,,,4,8.95,9.65,10.35,11.05,0,0.7,0.29999999999999993,0.4,2.5,10,initial,36.05,323,348,373,398,0,9,9,9,9,0,,,,,,,1,0,1,0,0,51,51,26,,,,,,,,,,,,num_4,0.7693924999912269,num_4,0.35,0.9,0.5499999999999999,0.9,21.01303,34.38495,return,1.0392144999932498,,,,,,,,,,,,,,,,,709,22,female,up_down_width,2024-05-23_13h39.13.701,exp1,2023.1.0,60.02008271188822,
,,,,,,,,,,,,,,,,,,,,,,,,,,,,,,,,,,,,,,,,,,,,,1,0,1,0,,,,,,,,,,,,,,,,,,,,,,,,,,,,,1332.7271765000187,1332.7271765000187,1332.7271765000187,,,,,,,,,,,,709,22,female,up_down_width,2024-05-23_13h39.13.701,exp1,2023.1.0,60.02008271188822,
,,,,,,,,,,,,,,,,5,8.6,9.3,10,10.7,11.4,0.7,0.44999999999999996,0.25,3.05,10,initial,36.05,310,335,361,386,411,9,9,9,9,9,,,,,,,2,0,2,0,0,0,0,42,,,,,,,,,,,,num_4,1.8657896000077017,num_4,0.3,0.4,0.15000000000000002,0.9,5.73083,34.38495,return,3.0489121000282466,,,,,,,,,,,,,,,,,709,22,female,up_down_width,2024-05-23_13h39.13.701,exp1,2023.1.0,60.02008271188822,
,,,,,,,,,,,,,,,,5,8.65,9.325,10,10.675,11.35,0.675,0.125,0.55,3.25,10,match,36.05,312,336,361,385,409,9,9,9,9,9,,,,,,,2,0,2,0,0,1,1,29,,,,,,,,,,,,num_4,1.4344159999745898,num_4,0.55,1.2,0.6000000000000001,0.8,22.9233,30.5644,return,2.7303641000180505,,,,,,,,,,,,,,,,,709,22,female,up_down_width,2024-05-23_13h39.13.701,exp1,2023.1.0,60.02008271188822,
,,,,,,,,,,,,,,,,4,8.35,9.45,10.55,11.65,0,1.1,0.7000000000000001,0.4,3.7,10,initial,36.05,301,341,380,420,0,9,9,9,9,0,,,,,,,2,0,2,0,0,2,2,21,,,,,,,,,,,,num_4,1.071470099966973,num_4,0.25,0.5,0.25,0.5,9.55138,19.10275,return,0.6129723999765702,,,,,,,,,,,,,,,,,709,22,female,up_down_width,2024-05-23_13h39.13.701,exp1,2023.1.0,60.02008271188822,
,,,,,,,,,,,,,,,,3,8.6,10,11.4,0,0,1.4,0.85,0.55,3.35,10,match,36.05,310,361,411,0,0,9,9,9,0,0,,,,,,,2,0,2,0,0,3,3,41,,,,,,,,,,,,num_3,0.6840300000039861,num_3,0.4,0.5,0.5,0.95,19.10275,36.29523,return,3.4520420000189915,,,,,,,,,,,,,,,,,709,22,female,up_down_width,2024-05-23_13h39.13.701,exp1,2023.1.0,60.02008271188822,
,,,,,,,,,,,,,,,,5,8.95,9.475,10,10.525,11.05,0.525,0.125,0.4,2.5,10,match,36.05,323,342,361,379,398,9,9,9,9,9,,,,,,,2,0,2,0,0,4,4,27,,,,,,,,,,,,num_4,0.9434692999930121,num_4,0.5,1.1,0.6000000000000001,0.7,22.9233,26.74385,return,2.035730000003241,,,,,,,,,,,,,,,,,709,22,female,up_down_width,2024-05-23_13h39.13.701,exp1,2023.1.0,60.02008271188822,
,,,,,,,,,,,,,,,,4,9.1,9.7,10.3,10.9,0,0.5999999999999999,0.3499999999999999,0.25,2.05,10,match,36.05,328,350,371,393,0,9,9,9,9,0,,,,,,,2,0,2,0,0,5,5,14,,,,,,,,,,,,num_4,0.7975132999708876,num_4,0.4,0.7,0.45,0.7,17.19248,26.74385,return,1.0307365999906324,,,,,,,,,,,,,,,,,709,22,female,up_down_width,2024-05-23_13h39.13.701,exp1,2023.1.0,60.02008271188822,
,,,,,,,,,,,,,,,,3,8.6,10,11.4,0,0,1.4,1.15,0.25,3.05,10,match,36.05,310,361,411,0,0,9,9,9,0,0,,,,,,,2,0,2,0,0,6,6,43,,,,,,,,,,,,num_3,0.8276583999977447,num_3,0.55,1.1,0.25000000000000006,1.5,9.55138,57.30826,return,2.929007799946703,,,,,,,,,,,,,,,,,709,22,female,up_down_width,2024-05-23_13h39.13.701,exp1,2023.1.0,60.02008271188822,
,,,,,,,,,,,,,,,,3,8.525,10,11.475,0,0,1.475,1.225,0.25,3.2,10,match,36.05,307,361,414,0,0,9,9,9,0,0,,,,,,,2,0,2,0,0,7,7,45,,,,,,,,,,,,num_3,0.6790448999963701,num_3,0.35,0.8,0.2,1.35,7.6411,51.57743,return,2.7471425000112504,,,,,,,,,,,,,,,,,709,22,female,up_down_width,2024-05-23_13h39.13.701,exp1,2023.1.0,60.02008271188822,
,,,,,,,,,,,,,,,,5,8.95,9.475,10,10.525,11.05,0.525,0.275,0.25,2.35,10,match,36.05,323,342,361,379,398,9,9,9,9,9,,,,,,,2,0,2,0,0,8,8,25,,,,,,,,,,,,num_5,0.8749106000177562,num_5,0.3,0.5,0.15000000000000002,0.75,5.73083,28.65413,return,1.9066142999799922,,,,,,,,,,,,,,,,,709,22,female,up_down_width,2024-05-23_13h39.13.701,exp1,2023.1.0,60.02008271188822,
,,,,,,,,,,,,,,,,4,9.1,9.7,10.3,10.9,0,0.6,0.04999999999999997,0.55,2.35,10,match,36.05,328,350,371,393,0,9,9,9,9,0,,,,,,,2,0,2,0,0,9,9,12,,,,,,,,,,,,num_3,1.0316854999982752,num_3,0.45,1.3,0.7500000000000002,0.85,28.65413,32.47468,return,3.1588376999716274,,,,,,,,,,,,,,,,,709,22,female,up_down_width,2024-05-23_13h39.13.701,exp1,2023.1.0,60.02008271188822,
,,,,,,,,,,,,,,,,3,8.9,10,11.1,0,0,1.1,0.8500000000000001,0.25,2.45,10,initial,36.05,321,361,400,0,0,9,9,9,0,0,,,,,,,2,0,2,0,0,10,10,2,,,,,,,,,,,,num_3,0.7217878000228666,num_3,0.3,0.7,0.15000000000000002,1.35,5.73083,51.57743,return,3.18223149998812,,,,,,,,,,,,,,,,,709,22,female,up_down_width,2024-05-23_13h39.13.701,exp1,2023.1.0,60.02008271188822,
,,,,,,,,,,,,,,,,4,8.825,9.608333333333333,10.391666666666667,11.175,0,0.7833333333333333,0.5333333333333333,0.25,2.6,10,match,36.05,318,346,375,403,0,9,9,9,9,0,,,,,,,2,0,2,0,0,11,11,5,,,,,,,,,,,,num_3,0.72469479998108,num_3,0.55,0.6,0.10000000000000007,1.4,3.82055,53.48771,return,4.770338900038041,,,,,,,,,,,,,,,,,709,22,female,up_down_width,2024-05-23_13h39.13.701,exp1,2023.1.0,60.02008271188822,
,,,,,,,,,,,,,,,,5,8.2,9.1,10,10.9,11.8,0.9,0.5,0.4,4,10,initial,36.05,296,328,361,393,425,9,9,9,9,9,,,,,,,2,0,2,0,0,12,12,50,,,,,,,,,,,,num_5,0.8682387000299059,num_5,0.5,0.9,0.35000000000000003,1.1,13.37193,42.02605,return,1.9529684000299312,,,,,,,,,,,,,,,,,709,22,female,up_down_width,2024-05-23_13h39.13.701,exp1,2023.1.0,60.02008271188822,
,,,,,,,,,,,,,,,,5,8.6,9.3,10,10.7,11.4,0.7,0.1499999999999999,0.55,3.3499999999999996,10,initial,36.05,310,335,361,386,411,9,9,9,9,9,,,,,,,2,0,2,0,0,13,13,40,,,,,,,,,,,,num_5,0.735419999982696,num_5,0.3,1.1,0.44999999999999996,0.75,17.19248,28.65413,return,2.530296599958092,,,,,,,,,,,,,,,,,709,22,female,up_down_width,2024-05-23_13h39.13.701,exp1,2023.1.0,60.02008271188822,
,,,,,,,,,,,,,,,,3,8.2,10,11.8,0,0,1.8,1.25,0.55,4.15,10,match,36.05,296,361,425,0,0,9,9,9,0,0,,,,,,,2,0,2,0,0,14,14,47,,,,,,,,,,,,num_3,0.7039789000409655,num_3,0.4,1.3,0.45,1.35,17.19248,51.57743,return,1.6303321999730542,,,,,,,,,,,,,,,,,709,22,female,up_down_width,2024-05-23_13h39.13.701,exp1,2023.1.0,60.02008271188822,
,,,,,,,,,,,,,,,,4,8.65,9.55,10.45,11.35,0,0.9,0.35,0.55,3.25,10,initial,36.05,312,344,377,409,0,9,9,9,9,0,,,,,,,2,0,2,0,0,15,15,28,,,,,,,,,,,,num_4,1.0374417999992147,num_4,0.25,0.9,0.25,0.9,9.55138,34.38495,return,0.7534287000307813,,,,,,,,,,,,,,,,,709,22,female,up_down_width,2024-05-23_13h39.13.701,exp1,2023.1.0,60.02008271188822,
,,,,,,,,,,,,,,,,4,8.65,9.55,10.45,11.35,0,0.9,0.5,0.4,3.1,10,initial,36.05,312,344,377,409,0,9,9,9,9,0,,,,,,,2,0,2,0,0,16,16,32,,,,,,,,,,,,num_4,0.8080585999996401,num_4,0.45,0.9,0.30000000000000004,1.0,11.46165,38.2055,return,2.46907510003075,,,,,,,,,,,,,,,,,709,22,female,up_down_width,2024-05-23_13h39.13.701,exp1,2023.1.0,60.02008271188822,
,,,,,,,,,,,,,,,,5,8.35,9.175,10,10.825,11.65,0.8250000000000001,0.275,0.55,3.85,10,match,36.05,301,331,361,390,420,9,9,9,9,9,,,,,,,2,0,2,0,0,17,17,18,,,,,,,,,,,,num_4,1.1754193999804556,num_4,0.2,0.7,0.44999999999999996,1.0,17.19248,38.2055,return,2.1622554999776185,,,,,,,,,,,,,,,,,709,22,female,up_down_width,2024-05-23_13h39.13.701,exp1,2023.1.0,60.02008271188822,
,,,,,,,,,,,,,,,,3,7.8,10,12.2,0,0,2.2,1.65,0.55,4.95,10,match,36.05,281,361,440,0,0,9,9,9,0,0,,,,,,,2,0,2,0,0,18,18,35,,,,,,,,,,,,num_3,0.8258768999949098,num_3,0.5,1.1,0.15000000000000008,1.45,5.73083,55.39798,return,2.467234199983068,,,,,,,,,,,,,,,,,709,22,female,up_down_width,2024-05-23_13h39.13.701,exp1,2023.1.0,60.02008271188822,
,,,,,,,,,,,,,,,,5,8.275,9.1375,10,10.8625,11.725,0.8625,0.6125,0.25,3.7,10,match,36.05,298,329,361,392,423,9,9,9,9,9,,,,,,,2,0,2,0,0,19,19,22,,,,,,,,,,,,num_5,0.8876754000084475,num_5,0.2,0.6,0.2,0.95,7.6411,36.29523,return,1.442771200032439,,,,,,,,,,,,,,,,,709,22,female,up_down_width,2024-05-23_13h39.13.701,exp1,2023.1.0,60.02008271188822,
,,,,,,,,,,,,,,,,3,8.2,10,11.8,0,0,1.7999999999999998,1.4,0.4,4,10,match,36.05,296,361,425,0,0,9,9,9,0,0,,,,,,,2,0,2,0,0,20,20,51,,,,,,,,,,,,num_3,0.7197720999829471,num_3,0.25,0.9,0.25,1.4,9.55138,53.48771,return,2.267325700027868,,,,,,,,,,,,,,,,,709,22,female,up_down_width,2024-05-23_13h39.13.701,exp1,2023.1.0,60.02008271188822,
,,,,,,,,,,,,,,,,3,8.9,10,11.1,0,0,1.1,0.55,0.55,2.75,10,initial,36.05,321,361,400,0,0,9,9,9,0,0,,,,,,,2,0,2,0,0,21,21,0,,,,,,,,,,,,num_2,1.0544891000026837,num_2,0.5,1.6,0.4,1.7,15.2822,64.94936,return,0.9476113999844529,,,,,,,,,,,,,,,,,709,22,female,up_down_width,2024-05-23_13h39.13.701,exp1,2023.1.0,60.02008271188822,
,,,,,,,,,,,,,,,,4,8.35,9.45,10.55,11.65,0,1.1,0.8500000000000001,0.25,3.5500000000000003,10,initial,36.05,301,341,380,420,0,9,9,9,9,0,,,,,,,2,0,2,0,0,22,22,19,,,,,,,,,,,,num_4,0.9130483000189997,num_4,0.55,1.3,0.25000000000000006,1.5,9.55138,57.30826,return,1.560980100010056,,,,,,,,,,,,,,,,,709,22,female,up_down_width,2024-05-23_13h39.13.701,exp1,2023.1.0,60.02008271188822,
,,,,,,,,,,,,,,,,4,9.3,9.766666666666667,10.233333333333333,10.7,0,0.4666666666666667,0.21666666666666665,0.25,1.65,10,match,36.05,335,352,369,386,0,9,9,9,9,0,,,,,,,2,0,2,0,0,23,23,8,,,,,,,,,,,,num_4,0.8848652000306174,num_4,0.3,0.3,0.15000000000000002,0.8,5.73083,30.5644,return,2.4447988999891095,,,,,,,,,,,,,,,,,709,22,female,up_down_width,2024-05-23_13h39.13.701,exp1,2023.1.0,60.02008271188822,
,,,,,,,,,,,,,,,,5,8.65,9.325,10,10.675,11.35,0.675,0.42500000000000004,0.25,2.95,10,match,36.05,312,336,361,385,409,9,9,9,9,9,,,,,,,2,0,2,0,0,24,24,31,,,,,,,,,,,,num_5,0.7158950999728404,num_5,0.2,1.1,0.15000000000000002,0.65,5.73083,24.83358,return,2.523187999962829,,,,,,,,,,,,,,,,,709,22,female,up_down_width,2024-05-23_13h39.13.701,exp1,2023.1.0,60.02008271188822,
,,,,,,,,,,,,,,,,4,8.95,9.65,10.35,11.05,0,0.7,0.29999999999999993,0.4,2.5,10,initial,36.05,323,348,373,398,0,9,9,9,9,0,,,,,,,2,0,2,0,0,25,25,26,,,,,,,,,,,,num_4,0.9074218000168912,num_4,0.25,0.9,0.2,0.9,7.6411,34.38495,return,0.8174124999786727,,,,,,,,,,,,,,,,,709,22,female,up_down_width,2024-05-23_13h39.13.701,exp1,2023.1.0,60.02008271188822,
,,,,,,,,,,,,,,,,4,8.65,9.55,10.45,11.35,0,0.9,0.65,0.25,2.95,10,initial,36.05,312,344,377,409,0,9,9,9,9,0,,,,,,,2,0,2,0,0,26,26,30,,,,,,,,,,,,num_2,0.9401063999976031,num_2,0.55,0.8,0.5,0.8,19.10275,30.5644,return,1.0134188000229187,,,,,,,,,,,,,,,,,709,22,female,up_down_width,2024-05-23_13h39.13.701,exp1,2023.1.0,60.02008271188822,
,,,,,,,,,,,,,,,,5,7.8,8.9,10,11.1,12.2,1.1,0.7000000000000001,0.4,4.800000000000001,10,initial,36.05,281,321,361,400,440,9,9,9,9,9,,,,,,,2,0,2,0,0,27,27,38,,,,,,,,,,,,num_5,0.8374645999865606,num_5,0.5,1.1,0.4,1.25,15.2822,47.75688,return,1.5824424999882467,,,,,,,,,,,,,,,,,709,22,female,up_down_width,2024-05-23_13h39.13.701,exp1,2023.1.0,60.02008271188822,
,,,,,,,,,,,,,,,,5,8.65,9.325,10,10.675,11.35,0.675,0.275,0.4,3.1,10,match,36.05,312,336,361,385,409,9,9,9,9,9,,,,,,,2,0,2,0,0,28,28,33,,,,,,,,,,,,num_5,0.779588200035505,num_5,0.35,0.7,0.35,0.65,13.37193,24.83358,return,0.7470459999749437,,,,,,,,,,,,,,,,,709,22,female,up_down_width,2024-05-23_13h39.13.701,exp1,2023.1.0,60.02008271188822,
,,,,,,,,,,,,,,,,4,8.95,9.65,10.35,11.05,0,0.7,0.1499999999999999,0.55,2.65,10,initial,36.05,323,348,373,398,0,9,9,9,9,0,,,,,,,2,0,2,0,0,29,29,23,,,,,,,,,,,,num_3,1.0470067000132985,num_3,0.35,0.4,0.3,0.55,11.46165,21.01303,return,1.0958456000080332,,,,,,,,,,,,,,,,,709,22,female,up_down_width,2024-05-23_13h39.13.701,exp1,2023.1.0,60.02008271188822,
,,,,,,,,,,,,,,,,5,8.2,9.1,10,10.9,11.8,0.9,0.65,0.25,3.85,10,initial,36.05,296,328,361,393,425,9,9,9,9,9,,,,,,,2,0,2,0,0,30,30,48,,,,,,,,,,,,num_3,0.7712482999777421,num_3,0.35,0.4,0.35,0.8,13.37193,30.5644,return,1.7147373000043444,,,,,,,,,,,,,,,,,709,22,female,up_down_width,2024-05-23_13h39.13.701,exp1,2023.1.0,60.02008271188822,
,,,,,,,,,,,,,,,,3,9.3,10,10.7,0,0,0.7,0.29999999999999993,0.4,1.8,10,initial,36.05,335,361,386,0,0,9,9,9,0,0,,,,,,,2,0,2,0,0,31,31,9,,,,,,,,,,,,num_3,0.6776023000129499,num_3,0.45,1,0.45,0.75,17.19248,28.65413,return,1.389197900018189,,,,,,,,,,,,,,,,,709,22,female,up_down_width,2024-05-23_13h39.13.701,exp1,2023.1.0,60.02008271188822,
,,,,,,,,,,,,,,,,4,8.9,9.633333333333333,10.366666666666667,11.1,0,0.7333333333333333,0.18333333333333326,0.55,2.75,10,match,36.05,321,347,374,400,0,9,9,9,9,0,,,,,,,2,0,2,0,0,32,32,1,,,,,,,,,,,,num_3,0.7028025999898091,num_3,0.55,1.3,0.55,0.9,21.01303,34.38495,return,1.9345879000029527,,,,,,,,,,,,,,,,,709,22,female,up_down_width,2024-05-23_13h39.13.701,exp1,2023.1.0,60.02008271188822,
,,,,,,,,,,,,,,,,4,9.1,9.7,10.3,10.9,0,0.6000000000000001,0.20000000000000004,0.4,2.2,10,match,36.05,328,350,371,393,0,9,9,9,9,0,,,,,,,2,0,2,0,0,33,33,16,,,,,,,,,,,,num_3,0.8012342999572866,num_3,0.25,1,0.39999999999999997,0.65,15.2822,24.83358,return,2.349130699993111,,,,,,,,,,,,,,,,,709,22,female,up_down_width,2024-05-23_13h39.13.701,exp1,2023.1.0,60.02008271188822,
,,,,,,,,,,,,,,,,5,8.6,9.3,10,10.7,11.4,0.7,0.29999999999999993,0.4,3.1999999999999997,10,initial,36.05,310,335,361,386,411,9,9,9,9,9,,,,,,,2,0,2,0,0,34,34,44,,,,,,,,,,,,num_5,1.0651037999778055,num_5,0.5,1.3,0.5,0.75,19.10275,28.65413,return,2.1662429999560118,,,,,,,,,,,,,,,,,709,22,female,up_down_width,2024-05-23_13h39.13.701,exp1,2023.1.0,60.02008271188822,
,,,,,,,,,,,,,,,,4,8.95,9.65,10.35,11.05,0,0.7,0.44999999999999996,0.25,2.3499999999999996,10,initial,36.05,323,348,373,398,0,9,9,9,9,0,,,,,,,2,0,2,0,0,35,35,24,,,,,,,,,,,,num_4,0.9123857999802567,num_4,0.2,0.9,0.05000000000000002,0.6,1.91028,22.9233,return,1.7654582999530248,,,,,,,,,,,,,,,,,709,22,female,up_down_width,2024-05-23_13h39.13.701,exp1,2023.1.0,60.02008271188822,
,,,,,,,,,,,,,,,,3,9.1,10,10.9,0,0,0.9,0.65,0.25,2.05,10,initial,36.05,328,361,393,0,0,9,9,9,0,0,,,,,,,2,0,2,0,0,36,36,13,,,,,,,,,,,,num_3,0.6295476999948733,num_3,0.35,1,1.3877787807814457e-17,0.8,0.0,30.5644,return,2.4699909000191838,,,,,,,,,,,,,,,,,709,22,female,up_down_width,2024-05-23_13h39.13.701,exp1,2023.1.0,60.02008271188822,
,,,,,,,,,,,,,,,,4,8.9,9.633333333333333,10.366666666666667,11.1,0,0.7333333333333334,0.4833333333333334,0.25,2.45,10,match,36.05,321,347,374,400,0,9,9,9,9,0,,,,,,,2,0,2,0,0,37,37,3,,,,,,,,,,,,num_4,0.6820854000397958,num_4,0.5,1.3,0.20000000000000007,1.0,7.6411,38.2055,return,2.335027599998284,,,,,,,,,,,,,,,,,709,22,female,up_down_width,2024-05-23_13h39.13.701,exp1,2023.1.0,60.02008271188822,
,,,,,,,,,,,,,,,,5,8.35,9.175,10,10.825,11.65,0.825,0.575,0.25,3.55,10,match,36.05,301,331,361,390,420,9,9,9,9,9,,,,,,,2,0,2,0,0,38,38,20,,,,,,,,,,,,num_4,0.8821213999763131,num_4,0.2,0.5,0.05000000000000002,0.7,1.91028,26.74385,return,2.396936299977824,,,,,,,,,,,,,,,,,709,22,female,up_down_width,2024-05-23_13h39.13.701,exp1,2023.1.0,60.02008271188822,
,,,,,,,,,,,,,,,,3,8.9,10,11.1,0,0,1.1,0.7000000000000001,0.4,2.6000000000000005,10,initial,36.05,321,361,400,0,0,9,9,9,0,0,,,,,,,2,0,2,0,0,39,39,4,,,,,,,,,,,,num_3,0.9517093999893405,num_3,0.5,0.7,0.35000000000000003,0.85,13.37193,32.47468,return,2.016337700013537,,,,,,,,,,,,,,,,,709,22,female,up_down_width,2024-05-23_13h39.13.701,exp1,2023.1.0,60.02008271188822,
,,,,,,,,,,,,,,,,3,7.800000000000001,10,12.2,0,0,2.1999999999999997,1.7999999999999998,0.4,4.8,10,match,36.05,281,361,440,0,0,9,9,9,0,0,,,,,,,2,0,2,0,0,40,40,39,,,,,,,,,,,,num_3,1.02621470001759,num_3,0.5,0.7,0.35000000000000003,1.05,13.37193,40.11578,return,2.0230778999975882,,,,,,,,,,,,,,,,,709,22,female,up_down_width,2024-05-23_13h39.13.701,exp1,2023.1.0,60.02008271188822,
,,,,,,,,,,,,,,,,3,9.3,10,10.7,0,0,0.7,0.1499999999999999,0.55,1.95,10,initial,36.05,335,361,386,0,0,9,9,9,0,0,,,,,,,2,0,2,0,0,41,41,6,,,,,,,,,,,,num_3,0.7591993000241928,num_3,0.55,0.9,0.7500000000000002,0.9,28.65413,34.38495,return,1.6318605999695137,,,,,,,,,,,,,,,,,709,22,female,up_down_width,2024-05-23_13h39.13.701,exp1,2023.1.0,60.02008271188822,
,,,,,,,,,,,,,,,,5,8.2,9.1,10,10.9,11.8,0.9,0.35,0.55,4.15,10,initial,36.05,296,328,361,393,425,9,9,9,9,9,,,,,,,2,0,2,0,0,42,42,46,,,,,,,,,,,,num_5,1.072337499994319,num_5,0.2,1.2,0.65,1.2,24.83358,45.8466,return,2.5966675000381656,,,,,,,,,,,,,,,,,709,22,female,up_down_width,2024-05-23_13h39.13.701,exp1,2023.1.0,60.02008271188822,
,,,,,,,,,,,,,,,,3,9.1,10,10.9,0,0,0.9,0.5,0.4,2.2,10,initial,36.05,328,361,393,0,0,9,9,9,0,0,,,,,,,2,0,2,0,0,43,43,15,,,,,,,,,,,,num_3,0.6179279999923892,num_3,0.3,1.3,0.65,1.3,24.83358,49.66716,return,1.3583412000443786,,,,,,,,,,,,,,,,,709,22,female,up_down_width,2024-05-23_13h39.13.701,exp1,2023.1.0,60.02008271188822,
,,,,,,,,,,,,,,,,5,7.8,8.9,10,11.1,12.2,1.1,0.8500000000000001,0.25,4.65,10,initial,36.05,281,321,361,400,440,9,9,9,9,9,,,,,,,2,0,2,0,0,44,44,36,,,,,,,,,,,,num_5,0.7841787000070326,num_5,0.25,0.6,0.10000000000000002,0.8,3.82055,30.5644,return,2.186003900016658,,,,,,,,,,,,,,,,,709,22,female,up_down_width,2024-05-23_13h39.13.701,exp1,2023.1.0,60.02008271188822,
,,,,,,,,,,,,,,,,5,7.8,8.9,10,11.1,12.2,1.1,0.55,0.55,4.95,10,initial,36.05,281,321,361,400,440,9,9,9,9,9,,,,,,,2,0,2,0,0,45,45,34,,,,,,,,,,,,num_4,0.8940477999858558,num_4,0.25,0.3,0.35,0.7,13.37193,26.74385,return,1.4444101999979466,,,,,,,,,,,,,,,,,709,22,female,up_down_width,2024-05-23_13h39.13.701,exp1,2023.1.0,60.02008271188822,
,,,,,,,,,,,,,,,,4,8.35,9.45,10.55,11.65,0,1.1,0.55,0.55,3.8500000000000005,10,initial,36.05,301,341,380,420,0,9,9,9,9,0,,,,,,,2,0,2,0,0,46,46,17,,,,,,,,,,,,num_4,0.7775907999603078,num_4,0.35,1.1,0.6,1.2,22.9233,45.8466,return,1.3279762000311166,,,,,,,,,,,,,,,,,709,22,female,up_down_width,2024-05-23_13h39.13.701,exp1,2023.1.0,60.02008271188822,
,,,,,,,,,,,,,,,,3,7.8,10,12.2,0,0,2.2,1.9500000000000002,0.25,4.65,10,match,36.05,281,361,440,0,0,9,9,9,0,0,,,,,,,2,0,2,0,0,47,47,37,,,,,,,,,,,,num_3,0.8040998000069521,num_3,0.35,0.4,0.15000000000000002,0.85,5.73083,32.47468,return,2.95854620001046,,,,,,,,,,,,,,,,,709,22,female,up_down_width,2024-05-23_13h39.13.701,exp1,2023.1.0,60.02008271188822,
,,,,,,,,,,,,,,,,3,8.2,10,11.8,0,0,1.8,1.55,0.25,3.85,10,match,36.05,296,361,425,0,0,9,9,9,0,0,,,,,,,2,0,2,0,0,48,48,49,,,,,,,,,,,,num_3,0.6601430000155233,num_3,0.3,0.4,0.10000000000000002,1.05,3.82055,40.11578,return,3.336315000022296,,,,,,,,,,,,,,,,,709,22,female,up_down_width,2024-05-23_13h39.13.701,exp1,2023.1.0,60.02008271188822,
,,,,,,,,,,,,,,,,3,9.3,10,10.7,0,0,0.7,0.44999999999999996,0.25,1.65,10,initial,36.05,335,361,386,0,0,9,9,9,0,0,,,,,,,2,0,2,0,0,49,49,7,,,,,,,,,,,,num_2,0.808002799982205,num_2,0.45,1.0,0.10000000000000007,1.3,3.82055,49.66716,return,1.9546379999956116,,,,,,,,,,,,,,,,,709,22,female,up_down_width,2024-05-23_13h39.13.701,exp1,2023.1.0,60.02008271188822,
,,,,,,,,,,,,,,,,4,9.3,9.766666666666667,10.233333333333333,10.7,0,0.4666666666666667,0.06666666666666665,0.4,1.8,10,match,36.05,335,352,369,386,0,9,9,9,9,0,,,,,,,2,0,2,0,0,50,50,10,,,,,,,,,,,,num_3,0.6765805000322871,num_3,0.5,0.6,0.6000000000000001,0.85,22.9233,32.47468,return,2.210806599992793,,,,,,,,,,,,,,,,,709,22,female,up_down_width,2024-05-23_13h39.13.701,exp1,2023.1.0,60.02008271188822,
,,,,,,,,,,,,,,,,3,9.1,10,10.9,0,0,0.9,0.35,0.55,2.35,10,initial,36.05,328,361,393,0,0,9,9,9,0,0,,,,,,,2,0,2,0,0,51,51,11,,,,,,,,,,,,num_3,0.6270586000173353,num_3,0.35,0.7,0.6,0.8,22.9233,30.5644,return,1.795941499993205,,,,,,,,,,,,,,,,,709,22,female,up_down_width,2024-05-23_13h39.13.701,exp1,2023.1.0,60.02008271188822,
,,,,,,,,,,,,,,,,,,,,,,,,,,,,,,,,,,,,,,,,,,,,,2,0,2,0,,,,,,,,,,,,,,,,,,,,,,,,,,,,,1628.5106383000384,1628.5106383000384,1628.5106383000384,,,,,,,,,,,,709,22,female,up_down_width,2024-05-23_13h39.13.701,exp1,2023.1.0,60.02008271188822,
,,,,,,,,,,,,,,,,3,7.8,10,12.2,0,0,2.2,1.9500000000000002,0.25,4.65,10,match,36.05,281,361,440,0,0,9,9,9,0,0,,,,,,,3,0,3,0,0,0,0,37,,,,,,,,,,,,num_3,0.9140141999814659,num_3,0.2,0.3,0.10000000000000002,0.8,3.82055,30.5644,return,2.732626600016374,,,,,,,,,,,,,,,,,709,22,female,up_down_width,2024-05-23_13h39.13.701,exp1,2023.1.0,60.02008271188822,
,,,,,,,,,,,,,,,,5,7.8,8.9,10,11.1,12.2,1.1,0.7000000000000001,0.4,4.800000000000001,10,initial,36.05,281,321,361,400,440,9,9,9,9,9,,,,,,,3,0,3,0,0,1,1,38,,,,,,,,,,,,num_5,0.8070906000211835,num_5,0.3,0.7,0.15000000000000002,0.95,5.73083,36.29523,return,1.8610139000229537,,,,,,,,,,,,,,,,,709,22,female,up_down_width,2024-05-23_13h39.13.701,exp1,2023.1.0,60.02008271188822,
,,,,,,,,,,,,,,,,5,8.65,9.325,10,10.675,11.35,0.675,0.42500000000000004,0.25,2.95,10,match,36.05,312,336,361,385,409,9,9,9,9,9,,,,,,,3,0,3,0,0,2,2,31,,,,,,,,,,,,num_5,0.8840462000225671,num_5,0.4,0.7,0.15000000000000008,0.85,5.73083,32.47468,return,2.284994799993001,,,,,,,,,,,,,,,,,709,22,female,up_down_width,2024-05-23_13h39.13.701,exp1,2023.1.0,60.02008271188822,
,,,,,,,,,,,,,,,,5,8.2,9.1,10,10.9,11.8,0.9,0.5,0.4,4,10,initial,36.05,296,328,361,393,425,9,9,9,9,9,,,,,,,3,0,3,0,0,3,3,50,,,,,,,,,,,,num_5,0.8109511999646202,num_5,0.4,0.7,0.20000000000000007,0.9,7.6411,34.38495,return,1.6069127999944612,,,,,,,,,,,,,,,,,709,22,female,up_down_width,2024-05-23_13h39.13.701,exp1,2023.1.0,60.02008271188822,
,,,,,,,,,,,,,,,,3,8.6,10,11.4,0,0,1.4,0.85,0.55,3.35,10,match,36.05,310,361,411,0,0,9,9,9,0,0,,,,,,,3,0,3,0,0,4,4,41,,,,,,,,,,,,num_3,0.7515086000203155,num_3,0.5,1.2,0.35000000000000003,1.5,13.37193,57.30826,return,1.8195811999612488,,,,,,,,,,,,,,,,,709,22,female,up_down_width,2024-05-23_13h39.13.701,exp1,2023.1.0,60.02008271188822,
,,,,,,,,,,,,,,,,4,9.3,9.766666666666667,10.233333333333333,10.7,0,0.4666666666666667,0.06666666666666665,0.4,1.8,10,match,36.05,335,352,369,386,0,9,9,9,9,0,,,,,,,3,0,3,0,0,5,5,10,,,,,,,,,,,,num_3,0.8331252000061795,num_3,0.4,0.9,0.6500000000000001,0.85,24.83358,32.47468,return,1.7581785999936983,,,,,,,,,,,,,,,,,709,22,female,up_down_width,2024-05-23_13h39.13.701,exp1,2023.1.0,60.02008271188822,
,,,,,,,,,,,,,,,,3,7.8,10,12.2,0,0,2.2,1.65,0.55,4.95,10,match,36.05,281,361,440,0,0,9,9,9,0,0,,,,,,,3,0,3,0,0,6,6,35,,,,,,,,,,,,num_3,0.720701799960807,num_3,0.45,0.5,0.30000000000000004,1.6,11.46165,61.12881,return,5.01652289996855,,,,,,,,,,,,,,,,,709,22,female,up_down_width,2024-05-23_13h39.13.701,exp1,2023.1.0,60.02008271188822,
,,,,,,,,,,,,,,,,4,9.1,9.7,10.3,10.9,0,0.6,0.04999999999999997,0.55,2.35,10,match,36.05,328,350,371,393,0,9,9,9,9,0,,,,,,,3,0,3,0,0,7,7,12,,,,,,,,,,,,num_3,0.7235635000397451,num_3,0.45,1,0.7000000000000002,0.85,26.74385,32.47468,return,2.3087179000140168,,,,,,,,,,,,,,,,,709,22,female,up_down_width,2024-05-23_13h39.13.701,exp1,2023.1.0,60.02008271188822,
,,,,,,,,,,,,,,,,3,9.3,10,10.7,0,0,0.7,0.44999999999999996,0.25,1.65,10,initial,36.05,335,361,386,0,0,9,9,9,0,0,,,,,,,3,0,3,0,0,8,8,7,,,,,,,,,,,,num_2,0.7840149999829009,num_2,0.35,1.2,0.25,1.2,9.55138,45.8466,return,1.530853100004606,,,,,,,,,,,,,,,,,709,22,female,up_down_width,2024-05-23_13h39.13.701,exp1,2023.1.0,60.02008271188822,
,,,,,,,,,,,,,,,,4,9.1,9.7,10.3,10.9,0,0.6000000000000001,0.20000000000000004,0.4,2.2,10,match,36.05,328,350,371,393,0,9,9,9,9,0,,,,,,,3,0,3,0,0,9,9,16,,,,,,,,,,,,num_3,0.6507530999951996,num_3,0.3,0.8,0.44999999999999996,0.65,17.19248,24.83358,return,1.7410171999945305,,,,,,,,,,,,,,,,,709,22,female,up_down_width,2024-05-23_13h39.13.701,exp1,2023.1.0,60.02008271188822,
,,,,,,,,,,,,,,,,5,8.35,9.175,10,10.825,11.65,0.8250000000000001,0.275,0.55,3.85,10,match,36.05,301,331,361,390,420,9,9,9,9,9,,,,,,,3,0,3,0,0,10,10,18,,,,,,,,,,,,num_4,0.9515562999877147,num_4,0.45,1.3,0.6000000000000001,0.8,22.9233,30.5644,return,2.0288056999561377,,,,,,,,,,,,,,,,,709,22,female,up_down_width,2024-05-23_13h39.13.701,exp1,2023.1.0,60.02008271188822,
,,,,,,,,,,,,,,,,5,8.2,9.1,10,10.9,11.8,0.9,0.65,0.25,3.85,10,initial,36.05,296,328,361,393,425,9,9,9,9,9,,,,,,,3,0,3,0,0,11,11,48,,,,,,,,,,,,num_5,0.7707273000269197,num_5,0.35,1.0,0.2,1.0,7.6411,38.2055,return,1.7287711999961175,,,,,,,,,,,,,,,,,709,22,female,up_down_width,2024-05-23_13h39.13.701,exp1,2023.1.0,60.02008271188822,
,,,,,,,,,,,,,,,,5,8.35,9.175,10,10.825,11.65,0.825,0.575,0.25,3.55,10,match,36.05,301,331,361,390,420,9,9,9,9,9,,,,,,,3,0,3,0,0,12,12,20,,,,,,,,,,,,num_5,0.7565996999619529,num_5,0.3,0.4,0.10000000000000002,0.6,3.82055,22.9233,return,2.197452599997632,,,,,,,,,,,,,,,,,709,22,female,up_down_width,2024-05-23_13h39.13.701,exp1,2023.1.0,60.02008271188822,
,,,,,,,,,,,,,,,,5,8.65,9.325,10,10.675,11.35,0.675,0.275,0.4,3.1,10,match,36.05,312,336,361,385,409,9,9,9,9,9,,,,,,,3,0,3,0,0,13,13,33,,,,,,,,,,,,num_5,0.742358100018464,num_5,0.25,0.6,0.35,0.75,13.37193,28.65413,return,1.9596770000061952,,,,,,,,,,,,,,,,,709,22,female,up_down_width,2024-05-23_13h39.13.701,exp1,2023.1.0,60.02008271188822,
,,,,,,,,,,,,,,,,5,8.95,9.475,10,10.525,11.05,0.525,0.275,0.25,2.35,10,match,36.05,323,342,361,379,398,9,9,9,9,9,,,,,,,3,0,3,0,0,14,14,25,,,,,,,,,,,,num_5,0.7320757000125013,num_5,0.3,0.8,0.39999999999999997,0.65,15.2822,24.83358,return,1.4110389000270516,,,,,,,,,,,,,,,,,709,22,female,up_down_width,2024-05-23_13h39.13.701,exp1,2023.1.0,60.02008271188822,
,,,,,,,,,,,,,,,,4,8.35,9.45,10.55,11.65,0,1.1,0.7000000000000001,0.4,3.7,10,initial,36.05,301,341,380,420,0,9,9,9,9,0,,,,,,,3,0,3,0,0,15,15,21,,,,,,,,,,,,num_4,0.7659785999567248,num_4,0.2,1.3,0.49999999999999994,0.9,19.10275,34.38495,return,2.188559299975168,,,,,,,,,,,,,,,,,709,22,female,up_down_width,2024-05-23_13h39.13.701,exp1,2023.1.0,60.02008271188822,
,,,,,,,,,,,,,,,,4,8.95,9.65,10.35,11.05,0,0.7,0.44999999999999996,0.25,2.3499999999999996,10,initial,36.05,323,348,373,398,0,9,9,9,9,0,,,,,,,3,0,3,0,0,16,16,24,,,,,,,,,,,,num_4,0.819524199992884,num_4,0.25,0.3,0.35,0.7,13.37193,26.74385,return,1.968059400038328,,,,,,,,,,,,,,,,,709,22,female,up_down_width,2024-05-23_13h39.13.701,exp1,2023.1.0,60.02008271188822,
,,,,,,,,,,,,,,,,5,8.6,9.3,10,10.7,11.4,0.7,0.1499999999999999,0.55,3.3499999999999996,10,initial,36.05,310,335,361,386,411,9,9,9,9,9,,,,,,,3,0,3,0,0,17,17,40,,,,,,,,,,,,num_5,0.7677456999663264,num_5,0.25,0.5,0.39999999999999997,0.65,15.2822,24.83358,return,1.5102605000138283,,,,,,,,,,,,,,,,,709,22,female,up_down_width,2024-05-23_13h39.13.701,exp1,2023.1.0,60.02008271188822,
,,,,,,,,,,,,,,,,4,8.9,9.633333333333333,10.366666666666667,11.1,0,0.7333333333333333,0.18333333333333326,0.55,2.75,10,match,36.05,321,347,374,400,0,9,9,9,9,0,,,,,,,3,0,3,0,0,18,18,1,,,,,,,,,,,,num_4,0.7806658000336029,num_4,0.3,0.9,0.5499999999999999,0.7,21.01303,26.74385,return,1.8033974000136368,,,,,,,,,,,,,,,,,709,22,female,up_down_width,2024-05-23_13h39.13.701,exp1,2023.1.0,60.02008271188822,
,,,,,,,,,,,,,,,,4,8.65,9.55,10.45,11.35,0,0.9,0.35,0.55,3.25,10,initial,36.05,312,344,377,409,0,9,9,9,9,0,,,,,,,3,0,3,0,0,19,19,28,,,,,,,,,,,,num_4,0.9658657999825664,num_4,0.4,1.1,0.7000000000000002,0.9,26.74385,34.38495,return,2.1093133999966085,,,,,,,,,,,,,,,,,709,22,female,up_down_width,2024-05-23_13h39.13.701,exp1,2023.1.0,60.02008271188822,
,,,,,,,,,,,,,,,,5,8.6,9.3,10,10.7,11.4,0.7,0.44999999999999996,0.25,3.05,10,initial,36.05,310,335,361,386,411,9,9,9,9,9,,,,,,,3,0,3,0,0,20,20,42,,,,,,,,,,,,num_5,0.8026143999886699,num_5,0.45,0.8,0.20000000000000007,0.6,7.6411,22.9233,return,2.4941470999619924,,,,,,,,,,,,,,,,,709,22,female,up_down_width,2024-05-23_13h39.13.701,exp1,2023.1.0,60.02008271188822,
,,,,,,,,,,,,,,,,3,8.525,10,11.475,0,0,1.475,1.225,0.25,3.2,10,match,36.05,307,361,414,0,0,9,9,9,0,0,,,,,,,3,0,3,0,0,21,21,45,,,,,,,,,,,,num_2,1.0191064999671653,num_2,0.2,0.4,0.2,1.6,7.6411,61.12881,return,2.94502540002577,,,,,,,,,,,,,,,,,709,22,female,up_down_width,2024-05-23_13h39.13.701,exp1,2023.1.0,60.02008271188822,
,,,,,,,,,,,,,,,,3,9.3,10,10.7,0,0,0.7,0.29999999999999993,0.4,1.8,10,initial,36.05,335,361,386,0,0,9,9,9,0,0,,,,,,,3,0,3,0,0,22,22,9,,,,,,,,,,,,num_3,0.7406056000036187,num_3,0.25,0.9,0.49999999999999994,0.8,19.10275,30.5644,return,1.8402036000043154,,,,,,,,,,,,,,,,,709,22,female,up_down_width,2024-05-23_13h39.13.701,exp1,2023.1.0,60.02008271188822,
,,,,,,,,,,,,,,,,3,8.6,10,11.4,0,0,1.4,1.15,0.25,3.05,10,match,36.05,310,361,411,0,0,9,9,9,0,0,,,,,,,3,0,3,0,0,23,23,43,,,,,,,,,,,,num_3,0.7182860000175424,num_3,0.55,1.3,0.15000000000000008,1.9,5.73083,72.59046,return,3.7606193000101484,,,,,,,,,,,,,,,,,709,22,female,up_down_width,2024-05-23_13h39.13.701,exp1,2023.1.0,60.02008271188822,
,,,,,,,,,,,,,,,,4,9.3,9.766666666666667,10.233333333333333,10.7,0,0.4666666666666667,0.21666666666666665,0.25,1.65,10,match,36.05,335,352,369,386,0,9,9,9,9,0,,,,,,,3,0,3,0,0,24,24,8,,,,,,,,,,,,num_3,0.7533349999575876,num_3,0.35,0.8,0.15000000000000002,0.65,5.73083,24.83358,return,1.9695002000080422,,,,,,,,,,,,,,,,,709,22,female,up_down_width,2024-05-23_13h39.13.701,exp1,2023.1.0,60.02008271188822,
,,,,,,,,,,,,,,,,3,9.1,10,10.9,0,0,0.9,0.65,0.25,2.05,10,initial,36.05,328,361,393,0,0,9,9,9,0,0,,,,,,,3,0,3,0,0,25,25,13,,,,,,,,,,,,num_3,0.625093000009656,num_3,0.5,0.6,0.25000000000000006,1.0,9.55138,38.2055,return,3.4144023000262678,,,,,,,,,,,,,,,,,709,22,female,up_down_width,2024-05-23_13h39.13.701,exp1,2023.1.0,60.02008271188822,
,,,,,,,,,,,,,,,,5,8.2,9.1,10,10.9,11.8,0.9,0.35,0.55,4.15,10,initial,36.05,296,328,361,393,425,9,9,9,9,9,,,,,,,3,0,3,0,0,26,26,46,,,,,,,,,,,,num_4,1.3190656999940984,num_4,0.5,1.3,0.6500000000000001,1.5,24.83358,57.30826,return,4.077410499972757,,,,,,,,,,,,,,,,,709,22,female,up_down_width,2024-05-23_13h39.13.701,exp1,2023.1.0,60.02008271188822,
,,,,,,,,,,,,,,,,4,8.35,9.45,10.55,11.65,0,1.1,0.8500000000000001,0.25,3.5500000000000003,10,initial,36.05,301,341,380,420,0,9,9,9,9,0,,,,,,,3,0,3,0,0,27,27,19,,,,,,,,,,,,num_4,0.9913870000164025,num_4,0.35,0.9,0.15000000000000002,1.3,5.73083,49.66716,return,1.636216000013519,,,,,,,,,,,,,,,,,709,22,female,up_down_width,2024-05-23_13h39.13.701,exp1,2023.1.0,60.02008271188822,
,,,,,,,,,,,,,,,,3,9.1,10,10.9,0,0,0.9,0.5,0.4,2.2,10,initial,36.05,328,361,393,0,0,9,9,9,0,0,,,,,,,3,0,3,0,0,28,28,15,,,,,,,,,,,,num_3,0.6634355999995023,num_3,0.2,0.7,0.39999999999999997,0.85,15.2822,32.47468,return,2.5797637999639846,,,,,,,,,,,,,,,,,709,22,female,up_down_width,2024-05-23_13h39.13.701,exp1,2023.1.0,60.02008271188822,
,,,,,,,,,,,,,,,,3,8.2,10,11.8,0,0,1.7999999999999998,1.4,0.4,4,10,match,36.05,296,361,425,0,0,9,9,9,0,0,,,,,,,3,0,3,0,0,29,29,51,,,,,,,,,,,,num_3,0.7207800000323914,num_3,0.5,0.9,0.45,1.2,17.19248,45.8466,return,3.3601922999951057,,,,,,,,,,,,,,,,,709,22,female,up_down_width,2024-05-23_13h39.13.701,exp1,2023.1.0,60.02008271188822,
,,,,,,,,,,,,,,,,4,8.825,9.608333333333333,10.391666666666667,11.175,0,0.7833333333333333,0.5333333333333333,0.25,2.6,10,match,36.05,318,346,375,403,0,9,9,9,9,0,,,,,,,3,0,3,0,0,30,30,5,,,,,,,,,,,,num_4,0.8376922000315972,num_4,0.25,0.4,0.10000000000000002,0.7,3.82055,26.74385,return,3.0996388000203297,,,,,,,,,,,,,,,,,709,22,female,up_down_width,2024-05-23_13h39.13.701,exp1,2023.1.0,60.02008271188822,
,,,,,,,,,,,,,,,,4,9.1,9.7,10.3,10.9,0,0.5999999999999999,0.3499999999999999,0.25,2.05,10,match,36.05,328,350,371,393,0,9,9,9,9,0,,,,,,,3,0,3,0,0,31,31,14,,,,,,,,,,,,num_5,0.9800002999836579,num_5,0.35,0.6,0.15000000000000002,0.7,5.73083,26.74385,return,3.029484099999536,,,,,,,,,,,,,,,,,709,22,female,up_down_width,2024-05-23_13h39.13.701,exp1,2023.1.0,60.02008271188822,
,,,,,,,,,,,,,,,,3,8.2,10,11.8,0,0,1.8,1.55,0.25,3.85,10,match,36.05,296,361,425,0,0,9,9,9,0,0,,,,,,,3,0,3,0,0,32,32,49,,,,,,,,,,,,num_3,0.9319013999775052,num_3,0.5,0.6,0.20000000000000007,0.85,7.6411,32.47468,return,4.621200900000986,,,,,,,,,,,,,,,,,709,22,female,up_down_width,2024-05-23_13h39.13.701,exp1,2023.1.0,60.02008271188822,
,,,,,,,,,,,,,,,,4,8.95,9.65,10.35,11.05,0,0.7,0.29999999999999993,0.4,2.5,10,initial,36.05,323,348,373,398,0,9,9,9,9,0,,,,,,,3,0,3,0,0,33,33,26,,,,,,,,,,,,num_4,0.7488266000291333,num_4,0.45,1.1,0.6000000000000001,1.3,22.9233,49.66716,return,2.7514196999836713,,,,,,,,,,,,,,,,,709,22,female,up_down_width,2024-05-23_13h39.13.701,exp1,2023.1.0,60.02008271188822,
,,,,,,,,,,,,,,,,3,9.1,10,10.9,0,0,0.9,0.35,0.55,2.35,10,initial,36.05,328,361,393,0,0,9,9,9,0,0,,,,,,,3,0,3,0,0,34,34,11,,,,,,,,,,,,num_3,0.6423990000039339,num_3,0.45,0.7,0.6000000000000001,1.05,22.9233,40.11578,return,2.06675500003621,,,,,,,,,,,,,,,,,709,22,female,up_down_width,2024-05-23_13h39.13.701,exp1,2023.1.0,60.02008271188822,
,,,,,,,,,,,,,,,,4,8.65,9.55,10.45,11.35,0,0.9,0.65,0.25,2.95,10,initial,36.05,312,344,377,409,0,9,9,9,9,0,,,,,,,3,0,3,0,0,35,35,30,,,,,,,,,,,,num_4,1.0619524999638088,num_4,0.45,0.7,0.25000000000000006,1.1,9.55138,42.02605,return,1.9313408000161871,,,,,,,,,,,,,,,,,709,22,female,up_down_width,2024-05-23_13h39.13.701,exp1,2023.1.0,60.02008271188822,
,,,,,,,,,,,,,,,,3,8.9,10,11.1,0,0,1.1,0.7000000000000001,0.4,2.6000000000000005,10,initial,36.05,321,361,400,0,0,9,9,9,0,0,,,,,,,3,0,3,0,0,36,36,4,,,,,,,,,,,,num_3,0.7840315999928862,num_3,0.25,1,0.39999999999999997,1.2,15.2822,45.8466,return,1.581027999985963,,,,,,,,,,,,,,,,,709,22,female,up_down_width,2024-05-23_13h39.13.701,exp1,2023.1.0,60.02008271188822,
,,,,,,,,,,,,,,,,4,8.65,9.55,10.45,11.35,0,0.9,0.5,0.4,3.1,10,initial,36.05,312,344,377,409,0,9,9,9,9,0,,,,,,,3,0,3,0,0,37,37,32,,,,,,,,,,,,num_4,0.8228027999866754,num_4,0.55,0.8,0.35000000000000003,1.1,13.37193,42.02605,return,1.6651000999845564,,,,,,,,,,,,,,,,,709,22,female,up_down_width,2024-05-23_13h39.13.701,exp1,2023.1.0,60.02008271188822,
,,,,,,,,,,,,,,,,5,8.6,9.3,10,10.7,11.4,0.7,0.29999999999999993,0.4,3.1999999999999997,10,initial,36.05,310,335,361,386,411,9,9,9,9,9,,,,,,,3,0,3,0,0,38,38,44,,,,,,,,,,,,num_5,0.8766874999855645,num_5,0.35,1.1,0.5499999999999999,1.25,21.01303,47.75688,return,2.4813323999987915,,,,,,,,,,,,,,,,,709,22,female,up_down_width,2024-05-23_13h39.13.701,exp1,2023.1.0,60.02008271188822,
,,,,,,,,,,,,,,,,5,7.8,8.9,10,11.1,12.2,1.1,0.55,0.55,4.95,10,initial,36.05,281,321,361,400,440,9,9,9,9,9,,,,,,,3,0,3,0,0,39,39,34,,,,,,,,,,,,num_5,0.7853456999873742,num_5,0.4,0.7,0.45,0.9,17.19248,34.38495,return,2.5544617000268772,,,,,,,,,,,,,,,,,709,22,female,up_down_width,2024-05-23_13h39.13.701,exp1,2023.1.0,60.02008271188822,
,,,,,,,,,,,,,,,,3,8.9,10,11.1,0,0,1.1,0.55,0.55,2.75,10,initial,36.05,321,361,400,0,0,9,9,9,0,0,,,,,,,3,0,3,0,0,40,40,0,,,,,,,,,,,,num_2,0.8655964999925345,num_2,0.45,1.2,0.6000000000000001,1.7,22.9233,64.94936,return,2.158201399957761,,,,,,,,,,,,,,,,,709,22,female,up_down_width,2024-05-23_13h39.13.701,exp1,2023.1.0,60.02008271188822,
,,,,,,,,,,,,,,,,4,8.35,9.45,10.55,11.65,0,1.1,0.55,0.55,3.8500000000000005,10,initial,36.05,301,341,380,420,0,9,9,9,9,0,,,,,,,3,0,3,0,0,41,41,17,,,,,,,,,,,,num_5,0.751557599985972,num_5,0.25,0.9,0.49999999999999994,1.0,19.10275,38.2055,return,2.0752195000532083,,,,,,,,,,,,,,,,,709,22,female,up_down_width,2024-05-23_13h39.13.701,exp1,2023.1.0,60.02008271188822,
,,,,,,,,,,,,,,,,3,8.9,10,11.1,0,0,1.1,0.8500000000000001,0.25,2.45,10,initial,36.05,321,361,400,0,0,9,9,9,0,0,,,,,,,3,0,3,0,0,42,42,2,,,,,,,,,,,,num_3,0.7403670999919996,num_3,0.2,0.3,0.05000000000000002,0.55,1.91028,21.01303,return,1.8563460999866948,,,,,,,,,,,,,,,,,709,22,female,up_down_width,2024-05-23_13h39.13.701,exp1,2023.1.0,60.02008271188822,
,,,,,,,,,,,,,,,,3,8.2,10,11.8,0,0,1.8,1.25,0.55,4.15,10,match,36.05,296,361,425,0,0,9,9,9,0,0,,,,,,,3,0,3,0,0,43,43,47,,,,,,,,,,,,num_3,0.5904681000392884,num_3,0.4,1.1,0.5,1.3,19.10275,49.66716,return,1.4558876999653876,,,,,,,,,,,,,,,,,709,22,female,up_down_width,2024-05-23_13h39.13.701,exp1,2023.1.0,60.02008271188822,
,,,,,,,,,,,,,,,,4,8.9,9.633333333333333,10.366666666666667,11.1,0,0.7333333333333334,0.4833333333333334,0.25,2.45,10,match,36.05,321,347,374,400,0,9,9,9,9,0,,,,,,,3,0,3,0,0,44,44,3,,,,,,,,,,,,num_4,0.7655378000345081,num_4,0.25,0.3,0.15000000000000002,0.7,5.73083,26.74385,return,1.9804726999718696,,,,,,,,,,,,,,,,,709,22,female,up_down_width,2024-05-23_13h39.13.701,exp1,2023.1.0,60.02008271188822,
,,,,,,,,,,,,,,,,3,7.800000000000001,10,12.2,0,0,2.1999999999999997,1.7999999999999998,0.4,4.8,10,match,36.05,281,361,440,0,0,9,9,9,0,0,,,,,,,3,0,3,0,0,45,45,39,,,,,,,,,,,,num_2,0.9040322999935597,num_2,0.25,0.8,0.15000000000000002,2.1,5.73083,80.23156,return,4.322850299999118,,,,,,,,,,,,,,,,,709,22,female,up_down_width,2024-05-23_13h39.13.701,exp1,2023.1.0,60.02008271188822,
,,,,,,,,,,,,,,,,5,7.8,8.9,10,11.1,12.2,1.1,0.8500000000000001,0.25,4.65,10,initial,36.05,281,321,361,400,440,9,9,9,9,9,,,,,,,3,0,3,0,0,46,46,36,,,,,,,,,,,,num_5,0.8281946999486536,num_5,0.35,1.0,0.15000000000000002,1.35,5.73083,51.57743,return,2.091584399982821,,,,,,,,,,,,,,,,,709,22,female,up_down_width,2024-05-23_13h39.13.701,exp1,2023.1.0,60.02008271188822,
,,,,,,,,,,,,,,,,5,8.65,9.325,10,10.675,11.35,0.675,0.125,0.55,3.25,10,match,36.05,312,336,361,385,409,9,9,9,9,9,,,,,,,3,0,3,0,0,47,47,29,,,,,,,,,,,,num_3,0.7975744999712333,num_3,0.4,1.2,0.6000000000000001,1.25,22.9233,47.75688,return,2.0781010999926366,,,,,,,,,,,,,,,,,709,22,female,up_down_width,2024-05-23_13h39.13.701,exp1,2023.1.0,60.02008271188822,
,,,,,,,,,,,,,,,,5,8.275,9.1375,10,10.8625,11.725,0.8625,0.6125,0.25,3.7,10,match,36.05,298,329,361,392,423,9,9,9,9,9,,,,,,,3,0,3,0,0,48,48,22,,,,,,,,,,,,num_5,0.7443857000325806,num_5,0.45,1.0,0.25000000000000006,1.2,9.55138,45.8466,return,2.1171222000266425,,,,,,,,,,,,,,,,,709,22,female,up_down_width,2024-05-23_13h39.13.701,exp1,2023.1.0,60.02008271188822,
,,,,,,,,,,,,,,,,5,8.95,9.475,10,10.525,11.05,0.525,0.125,0.4,2.5,10,match,36.05,323,342,361,379,398,9,9,9,9,9,,,,,,,3,0,3,0,0,49,49,27,,,,,,,,,,,,num_4,0.8530028000241145,num_4,0.3,0.3,0.15000000000000002,0.5,5.73083,19.10275,return,2.4440048999967985,,,,,,,,,,,,,,,,,709,22,female,up_down_width,2024-05-23_13h39.13.701,exp1,2023.1.0,60.02008271188822,
,,,,,,,,,,,,,,,,4,8.95,9.65,10.35,11.05,0,0.7,0.1499999999999999,0.55,2.65,10,initial,36.05,323,348,373,398,0,9,9,9,9,0,,,,,,,3,0,3,0,0,50,50,23,,,,,,,,,,,,num_4,0.727829199982807,num_4,0.35,0.7,0.5499999999999999,0.7,21.01303,26.74385,return,1.0780429000151344,,,,,,,,,,,,,,,,,709,22,female,up_down_width,2024-05-23_13h39.13.701,exp1,2023.1.0,60.02008271188822,
,,,,,,,,,,,,,,,,3,9.3,10,10.7,0,0,0.7,0.1499999999999999,0.55,1.95,10,initial,36.05,335,361,386,0,0,9,9,9,0,0,,,,,,,3,0,3,0,0,51,51,6,,,,,,,,,,,,num_3,0.6949926000088453,num_3,0.55,0.7,0.6500000000000001,0.7,24.83358,26.74385,return,0.5660634999512695,,,,,,,,,,,,,,,,,709,22,female,up_down_width,2024-05-23_13h39.13.701,exp1,2023.1.0,60.02008271188822,
,,,,,,,,,,,,,,,,,,,,,,,,,,,,,,,,,,,,,,,,,,,,,3,0,3,0,,,,,,,,,,,,,,,,,,,,,,,,,,,,,1893.2440881000366,1893.2440881000366,1893.2440881000366,,,,,,,,,,,,709,22,female,up_down_width,2024-05-23_13h39.13.701,exp1,2023.1.0,60.02008271188822,
,,,,,,,,,,,,,,,,4,8.65,9.55,10.45,11.35,0,0.9,0.5,0.4,3.1,10,initial,36.05,312,344,377,409,0,9,9,9,9,0,,,,,,,4,0,4,0,0,0,0,32,,,,,,,,,,,,num_3,2.4809035999933258,num_3,0.3,0.9,0.39999999999999997,0.9,15.2822,34.38495,return,2.662445999972988,,,,,,,,,,,,,,,,,709,22,female,up_down_width,2024-05-23_13h39.13.701,exp1,2023.1.0,60.02008271188822,
,,,,,,,,,,,,,,,,3,9.3,10,10.7,0,0,0.7,0.1499999999999999,0.55,1.95,10,initial,36.05,335,361,386,0,0,9,9,9,0,0,,,,,,,4,0,4,0,0,1,1,6,,,,,,,,,,,,num_3,0.6776101000141352,num_3,0.25,0.4,0.35,0.5,13.37193,19.10275,return,1.1137999999918975,,,,,,,,,,,,,,,,,709,22,female,up_down_width,2024-05-23_13h39.13.701,exp1,2023.1.0,60.02008271188822,
,,,,,,,,,,,,,,,,5,8.2,9.1,10,10.9,11.8,0.9,0.5,0.4,4,10,initial,36.05,296,328,361,393,425,9,9,9,9,9,,,,,,,4,0,4,0,0,2,2,50,,,,,,,,,,,,num_5,0.8199177000205964,num_5,0.25,1.3,0.65,1.05,24.83358,40.11578,return,2.5708592999726534,,,,,,,,,,,,,,,,,709,22,female,up_down_width,2024-05-23_13h39.13.701,exp1,2023.1.0,60.02008271188822,
,,,,,,,,,,,,,,,,5,8.275,9.1375,10,10.8625,11.725,0.8625,0.6125,0.25,3.7,10,match,36.05,298,329,361,392,423,9,9,9,9,9,,,,,,,4,0,4,0,0,3,3,22,,,,,,,,,,,,num_5,0.7710781000205316,num_5,0.25,1.2,0.35,1.2,13.37193,45.8466,return,1.4907006000285037,,,,,,,,,,,,,,,,,709,22,female,up_down_width,2024-05-23_13h39.13.701,exp1,2023.1.0,60.02008271188822,
,,,,,,,,,,,,,,,,4,9.1,9.7,10.3,10.9,0,0.6000000000000001,0.20000000000000004,0.4,2.2,10,match,36.05,328,350,371,393,0,9,9,9,9,0,,,,,,,4,0,4,0,0,4,4,16,,,,,,,,,,,,num_5,0.7770640999660827,num_5,0.25,0.8,0.35,0.7,13.37193,26.74385,return,1.8804565000464208,,,,,,,,,,,,,,,,,709,22,female,up_down_width,2024-05-23_13h39.13.701,exp1,2023.1.0,60.02008271188822,
,,,,,,,,,,,,,,,,3,8.9,10,11.1,0,0,1.1,0.7000000000000001,0.4,2.6000000000000005,10,initial,36.05,321,361,400,0,0,9,9,9,0,0,,,,,,,4,0,4,0,0,5,5,4,,,,,,,,,,,,num_3,0.6708995000226423,num_3,0.35,1,0.5499999999999999,0.95,21.01303,36.29523,return,1.1021562999812886,,,,,,,,,,,,,,,,,709,22,female,up_down_width,2024-05-23_13h39.13.701,exp1,2023.1.0,60.02008271188822,
,,,,,,,,,,,,,,,,3,8.9,10,11.1,0,0,1.1,0.55,0.55,2.75,10,initial,36.05,321,361,400,0,0,9,9,9,0,0,,,,,,,4,0,4,0,0,6,6,0,,,,,,,,,,,,num_3,0.7084271999774501,num_3,0.45,0.7,0.55,0.8,21.01303,30.5644,return,0.849025699950289,,,,,,,,,,,,,,,,,709,22,female,up_down_width,2024-05-23_13h39.13.701,exp1,2023.1.0,60.02008271188822,
,,,,,,,,,,,,,,,,3,8.6,10,11.4,0,0,1.4,0.85,0.55,3.35,10,match,36.05,310,361,411,0,0,9,9,9,0,0,,,,,,,4,0,4,0,0,7,7,41,,,,,,,,,,,,num_2,0.6853903000010177,num_2,0.4,1.2,0.6000000000000001,1.9,22.9233,72.59046,return,1.9529594999621622,,,,,,,,,,,,,,,,,709,22,female,up_down_width,2024-05-23_13h39.13.701,exp1,2023.1.0,60.02008271188822,
,,,,,,,,,,,,,,,,4,8.95,9.65,10.35,11.05,0,0.7,0.29999999999999993,0.4,2.5,10,initial,36.05,323,348,373,398,0,9,9,9,9,0,,,,,,,4,0,4,0,0,8,8,26,,,,,,,,,,,,num_4,0.8382895000395365,num_4,0.25,0.4,0.15000000000000002,0.9,5.73083,34.38495,return,1.8853723000502214,,,,,,,,,,,,,,,,,709,22,female,up_down_width,2024-05-23_13h39.13.701,exp1,2023.1.0,60.02008271188822,
,,,,,,,,,,,,,,,,3,8.6,10,11.4,0,0,1.4,1.15,0.25,3.05,10,match,36.05,310,361,411,0,0,9,9,9,0,0,,,,,,,4,0,4,0,0,9,9,43,,,,,,,,,,,,num_3,0.6936533999978565,num_3,0.4,0.5,0.25000000000000006,0.95,9.55138,36.29523,return,2.4485775000066496,,,,,,,,,,,,,,,,,709,22,female,up_down_width,2024-05-23_13h39.13.701,exp1,2023.1.0,60.02008271188822,
,,,,,,,,,,,,,,,,3,8.2,10,11.8,0,0,1.7999999999999998,1.4,0.4,4,10,match,36.05,296,361,425,0,0,9,9,9,0,0,,,,,,,4,0,4,0,0,10,10,51,,,,,,,,,,,,num_3,0.6489718000520952,num_3,0.25,0.5,0.15000000000000002,0.85,5.73083,32.47468,return,2.5417592999874614,,,,,,,,,,,,,,,,,709,22,female,up_down_width,2024-05-23_13h39.13.701,exp1,2023.1.0,60.02008271188822,
,,,,,,,,,,,,,,,,3,8.2,10,11.8,0,0,1.8,1.25,0.55,4.15,10,match,36.05,296,361,425,0,0,9,9,9,0,0,,,,,,,4,0,4,0,0,11,11,47,,,,,,,,,,,,num_3,0.6992835000273772,num_3,0.35,1.1,0.2,1.5,7.6411,57.30826,return,2.0160156000056304,,,,,,,,,,,,,,,,,709,22,female,up_down_width,2024-05-23_13h39.13.701,exp1,2023.1.0,60.02008271188822,
,,,,,,,,,,,,,,,,4,8.95,9.65,10.35,11.05,0,0.7,0.1499999999999999,0.55,2.65,10,initial,36.05,323,348,373,398,0,9,9,9,9,0,,,,,,,4,0,4,0,0,12,12,23,,,,,,,,,,,,num_3,1.0715721999877132,num_3,0.5,1.1,0.6500000000000001,1.0,24.83358,38.2055,return,1.6995965999667533,,,,,,,,,,,,,,,,,709,22,female,up_down_width,2024-05-23_13h39.13.701,exp1,2023.1.0,60.02008271188822,
,,,,,,,,,,,,,,,,4,9.3,9.766666666666667,10.233333333333333,10.7,0,0.4666666666666667,0.21666666666666665,0.25,1.65,10,match,36.05,335,352,369,386,0,9,9,9,9,0,,,,,,,4,0,4,0,0,13,13,8,,,,,,,,,,,,num_3,0.7077541000326164,num_3,0.55,0.9,0.20000000000000007,0.65,7.6411,24.83358,return,2.337713199958671,,,,,,,,,,,,,,,,,709,22,female,up_down_width,2024-05-23_13h39.13.701,exp1,2023.1.0,60.02008271188822,
,,,,,,,,,,,,,,,,4,8.35,9.45,10.55,11.65,0,1.1,0.55,0.55,3.8500000000000005,10,initial,36.05,301,341,380,420,0,9,9,9,9,0,,,,,,,4,0,4,0,0,14,14,17,,,,,,,,,,,,num_4,0.7121178000234067,num_4,0.3,0.6,0.3,0.8,11.46165,30.5644,return,0.694684199988842,,,,,,,,,,,,,,,,,709,22,female,up_down_width,2024-05-23_13h39.13.701,exp1,2023.1.0,60.02008271188822,
,,,,,,,,,,,,,,,,5,8.65,9.325,10,10.675,11.35,0.675,0.42500000000000004,0.25,2.95,10,match,36.05,312,336,361,385,409,9,9,9,9,9,,,,,,,4,0,4,0,0,15,15,31,,,,,,,,,,,,num_5,0.627717399969697,num_5,0.5,1.2,0.5,1.1,19.10275,42.02605,return,0.9306256999843754,,,,,,,,,,,,,,,,,709,22,female,up_down_width,2024-05-23_13h39.13.701,exp1,2023.1.0,60.02008271188822,
,,,,,,,,,,,,,,,,5,8.65,9.325,10,10.675,11.35,0.675,0.275,0.4,3.1,10,match,36.05,312,336,361,385,409,9,9,9,9,9,,,,,,,4,0,4,0,0,16,16,33,,,,,,,,,,,,num_5,0.6684880999964662,num_5,0.25,0.6,0.39999999999999997,0.7,15.2822,26.74385,return,1.6127548000076786,,,,,,,,,,,,,,,,,709,22,female,up_down_width,2024-05-23_13h39.13.701,exp1,2023.1.0,60.02008271188822,
,,,,,,,,,,,,,,,,4,9.3,9.766666666666667,10.233333333333333,10.7,0,0.4666666666666667,0.06666666666666665,0.4,1.8,10,match,36.05,335,352,369,386,0,9,9,9,9,0,,,,,,,4,0,4,0,0,17,17,10,,,,,,,,,,,,num_3,0.9478357000043616,num_3,0.35,1.2,0.49999999999999994,0.8,19.10275,30.5644,return,1.9972163999918848,,,,,,,,,,,,,,,,,709,22,female,up_down_width,2024-05-23_13h39.13.701,exp1,2023.1.0,60.02008271188822,
,,,,,,,,,,,,,,,,3,9.1,10,10.9,0,0,0.9,0.35,0.55,2.35,10,initial,36.05,328,361,393,0,0,9,9,9,0,0,,,,,,,4,0,4,0,0,18,18,11,,,,,,,,,,,,num_3,0.7590250000357628,num_3,0.2,0.4,0.35,0.4,13.37193,15.2822,return,0.8346552000148222,,,,,,,,,,,,,,,,,709,22,female,up_down_width,2024-05-23_13h39.13.701,exp1,2023.1.0,60.02008271188822,
,,,,,,,,,,,,,,,,3,8.525,10,11.475,0,0,1.475,1.225,0.25,3.2,10,match,36.05,307,361,414,0,0,9,9,9,0,0,,,,,,,4,0,4,0,0,19,19,45,,,,,,,,,,,,num_3,0.8888316000229679,num_3,0.45,1.3,0.15000000000000008,1.5,5.73083,57.30826,return,1.9356917000259273,,,,,,,,,,,,,,,,,709,22,female,up_down_width,2024-05-23_13h39.13.701,exp1,2023.1.0,60.02008271188822,
,,,,,,,,,,,,,,,,5,8.6,9.3,10,10.7,11.4,0.7,0.1499999999999999,0.55,3.3499999999999996,10,initial,36.05,310,335,361,386,411,9,9,9,9,9,,,,,,,4,0,4,0,0,20,20,40,,,,,,,,,,,,num_4,0.818468599987682,num_4,0.3,0.5,0.44999999999999996,0.7,17.19248,26.74385,return,1.486053400032688,,,,,,,,,,,,,,,,,709,22,female,up_down_width,2024-05-23_13h39.13.701,exp1,2023.1.0,60.02008271188822,
,,,,,,,,,,,,,,,,4,8.65,9.55,10.45,11.35,0,0.9,0.65,0.25,2.95,10,initial,36.05,312,344,377,409,0,9,9,9,9,0,,,,,,,4,0,4,0,0,21,21,30,,,,,,,,,,,,num_4,0.7660048000398092,num_4,0.55,0.6,0.05000000000000007,0.8,1.91028,30.5644,return,3.6450243999715894,,,,,,,,,,,,,,,,,709,22,female,up_down_width,2024-05-23_13h39.13.701,exp1,2023.1.0,60.02008271188822,
,,,,,,,,,,,,,,,,4,8.35,9.45,10.55,11.65,0,1.1,0.8500000000000001,0.25,3.5500000000000003,10,initial,36.05,301,341,380,420,0,9,9,9,9,0,,,,,,,4,0,4,0,0,22,22,19,,,,,,,,,,,,num_3,0.8811790000181645,num_3,0.55,0.6,0.10000000000000007,0.85,3.82055,32.47468,return,3.6860915000434034,,,,,,,,,,,,,,,,,709,22,female,up_down_width,2024-05-23_13h39.13.701,exp1,2023.1.0,60.02008271188822,
,,,,,,,,,,,,,,,,4,8.9,9.633333333333333,10.366666666666667,11.1,0,0.7333333333333334,0.4833333333333334,0.25,2.45,10,match,36.05,321,347,374,400,0,9,9,9,9,0,,,,,,,4,0,4,0,0,23,23,3,,,,,,,,,,,,num_4,1.5103815000038594,num_4,0.4,1.1,0.15000000000000008,0.9,5.73083,34.38495,return,2.6935941000119783,,,,,,,,,,,,,,,,,709,22,female,up_down_width,2024-05-23_13h39.13.701,exp1,2023.1.0,60.02008271188822,
,,,,,,,,,,,,,,,,4,9.1,9.7,10.3,10.9,0,0.5999999999999999,0.3499999999999999,0.25,2.05,10,match,36.05,328,350,371,393,0,9,9,9,9,0,,,,,,,4,0,4,0,0,24,24,14,,,,,,,,,,,,num_4,0.9600764999631792,num_4,0.5,0.6,0.15000000000000008,0.6,5.73083,22.9233,return,1.509591099980753,,,,,,,,,,,,,,,,,709,22,female,up_down_width,2024-05-23_13h39.13.701,exp1,2023.1.0,60.02008271188822,
,,,,,,,,,,,,,,,,3,9.1,10,10.9,0,0,0.9,0.5,0.4,2.2,10,initial,36.05,328,361,393,0,0,9,9,9,0,0,,,,,,,4,0,4,0,0,25,25,15,,,,,,,,,,,,num_3,0.7556372999679297,num_3,0.25,0.9,0.35,0.85,13.37193,32.47468,return,1.7804279000265524,,,,,,,,,,,,,,,,,709,22,female,up_down_width,2024-05-23_13h39.13.701,exp1,2023.1.0,60.02008271188822,
,,,,,,,,,,,,,,,,5,7.8,8.9,10,11.1,12.2,1.1,0.8500000000000001,0.25,4.65,10,initial,36.05,281,321,361,400,440,9,9,9,9,9,,,,,,,4,0,4,0,0,26,26,36,,,,,,,,,,,,num_5,0.6880793999880552,num_5,0.25,1.1,0.15000000000000002,1.1,5.73083,42.02605,return,0.6740512999822386,,,,,,,,,,,,,,,,,709,22,female,up_down_width,2024-05-23_13h39.13.701,exp1,2023.1.0,60.02008271188822,
,,,,,,,,,,,,,,,,5,7.8,8.9,10,11.1,12.2,1.1,0.7000000000000001,0.4,4.800000000000001,10,initial,36.05,281,321,361,400,440,9,9,9,9,9,,,,,,,4,0,4,0,0,27,27,38,,,,,,,,,,,,num_5,1.0008062000270002,num_5,0.5,1.2,0.20000000000000007,1.2,7.6411,45.8466,return,1.163779099995736,,,,,,,,,,,,,,,,,709,22,female,up_down_width,2024-05-23_13h39.13.701,exp1,2023.1.0,60.02008271188822,
,,,,,,,,,,,,,,,,5,7.8,8.9,10,11.1,12.2,1.1,0.55,0.55,4.95,10,initial,36.05,281,321,361,400,440,9,9,9,9,9,,,,,,,4,0,4,0,0,28,28,34,,,,,,,,,,,,num_4,0.7351885000243783,num_4,0.2,0.6,0.39999999999999997,1.1,15.2822,42.02605,return,1.7399363000295125,,,,,,,,,,,,,,,,,709,22,female,up_down_width,2024-05-23_13h39.13.701,exp1,2023.1.0,60.02008271188822,
,,,,,,,,,,,,,,,,5,8.6,9.3,10,10.7,11.4,0.7,0.29999999999999993,0.4,3.1999999999999997,10,initial,36.05,310,335,361,386,411,9,9,9,9,9,,,,,,,4,0,4,0,0,29,29,44,,,,,,,,,,,,num_5,0.7543992000282742,num_5,0.35,1.0,0.49999999999999994,1.0,19.10275,38.2055,return,1.4270142000168562,,,,,,,,,,,,,,,,,709,22,female,up_down_width,2024-05-23_13h39.13.701,exp1,2023.1.0,60.02008271188822,
,,,,,,,,,,,,,,,,5,8.2,9.1,10,10.9,11.8,0.9,0.35,0.55,4.15,10,initial,36.05,296,328,361,393,425,9,9,9,9,9,,,,,,,4,0,4,0,0,30,30,46,,,,,,,,,,,,num_5,0.6517882999614812,num_5,0.25,0.5,0.39999999999999997,0.7,15.2822,26.74385,return,2.141974600031972,,,,,,,,,,,,,,,,,709,22,female,up_down_width,2024-05-23_13h39.13.701,exp1,2023.1.0,60.02008271188822,
,,,,,,,,,,,,,,,,3,9.1,10,10.9,0,0,0.9,0.65,0.25,2.05,10,initial,36.05,328,361,393,0,0,9,9,9,0,0,,,,,,,4,0,4,0,0,31,31,13,,,,,,,,,,,,num_3,0.9622797000338323,num_3,0.3,1,0.25,0.9,9.55138,34.38495,return,1.4973659999668598,,,,,,,,,,,,,,,,,709,22,female,up_down_width,2024-05-23_13h39.13.701,exp1,2023.1.0,60.02008271188822,
,,,,,,,,,,,,,,,,3,7.8,10,12.2,0,0,2.2,1.65,0.55,4.95,10,match,36.05,281,361,440,0,0,9,9,9,0,0,,,,,,,4,0,4,0,0,32,32,35,,,,,,,,,,,,num_3,0.9195941999787465,num_3,0.55,0.8,0.20000000000000007,1.0,7.6411,38.2055,return,2.684911100019235,,,,,,,,,,,,,,,,,709,22,female,up_down_width,2024-05-23_13h39.13.701,exp1,2023.1.0,60.02008271188822,
,,,,,,,,,,,,,,,,4,8.95,9.65,10.35,11.05,0,0.7,0.44999999999999996,0.25,2.3499999999999996,10,initial,36.05,323,348,373,398,0,9,9,9,9,0,,,,,,,4,0,4,0,0,33,33,24,,,,,,,,,,,,num_4,0.9316111999796703,num_4,0.35,0.6,0.15000000000000002,0.6,5.73083,22.9233,return,1.5928869000053965,,,,,,,,,,,,,,,,,709,22,female,up_down_width,2024-05-23_13h39.13.701,exp1,2023.1.0,60.02008271188822,
,,,,,,,,,,,,,,,,5,8.95,9.475,10,10.525,11.05,0.525,0.125,0.4,2.5,10,match,36.05,323,342,361,379,398,9,9,9,9,9,,,,,,,4,0,4,0,0,34,34,27,,,,,,,,,,,,num_5,0.7197621000232175,num_5,0.2,0.5,0.3,0.55,11.46165,21.01303,return,1.630242899991572,,,,,,,,,,,,,,,,,709,22,female,up_down_width,2024-05-23_13h39.13.701,exp1,2023.1.0,60.02008271188822,
,,,,,,,,,,,,,,,,4,9.1,9.7,10.3,10.9,0,0.6,0.04999999999999997,0.55,2.35,10,match,36.05,328,350,371,393,0,9,9,9,9,0,,,,,,,4,0,4,0,0,35,35,12,,,,,,,,,,,,num_5,0.8944201999693178,num_5,0.45,0.7,0.5,0.6,19.10275,22.9233,return,2.0987804000033066,,,,,,,,,,,,,,,,,709,22,female,up_down_width,2024-05-23_13h39.13.701,exp1,2023.1.0,60.02008271188822,
,,,,,,,,,,,,,,,,4,8.35,9.45,10.55,11.65,0,1.1,0.7000000000000001,0.4,3.7,10,initial,36.05,301,341,380,420,0,9,9,9,9,0,,,,,,,4,0,4,0,0,36,36,21,,,,,,,,,,,,num_5,0.7350860000005923,num_5,0.25,0.5,0.10000000000000002,0.5,3.82055,19.10275,return,1.3728097999701276,,,,,,,,,,,,,,,,,709,22,female,up_down_width,2024-05-23_13h39.13.701,exp1,2023.1.0,60.02008271188822,
,,,,,,,,,,,,,,,,5,8.2,9.1,10,10.9,11.8,0.9,0.65,0.25,3.85,10,initial,36.05,296,328,361,393,425,9,9,9,9,9,,,,,,,4,0,4,0,0,37,37,48,,,,,,,,,,,,num_5,0.674264800036326,num_5,0.4,0.8,0.15000000000000008,0.8,5.73083,30.5644,return,1.173938799998723,,,,,,,,,,,,,,,,,709,22,female,up_down_width,2024-05-23_13h39.13.701,exp1,2023.1.0,60.02008271188822,
,,,,,,,,,,,,,,,,4,8.825,9.608333333333333,10.391666666666667,11.175,0,0.7833333333333333,0.5333333333333333,0.25,2.6,10,match,36.05,318,346,375,403,0,9,9,9,9,0,,,,,,,4,0,4,0,0,38,38,5,,,,,,,,,,,,num_5,0.7840397999971174,num_5,0.25,0.9,0.15000000000000002,0.9,5.73083,34.38495,return,0.8425991000258364,,,,,,,,,,,,,,,,,709,22,female,up_down_width,2024-05-23_13h39.13.701,exp1,2023.1.0,60.02008271188822,
,,,,,,,,,,,,,,,,3,8.2,10,11.8,0,0,1.8,1.55,0.25,3.85,10,match,36.05,296,361,425,0,0,9,9,9,0,0,,,,,,,4,0,4,0,0,39,39,49,,,,,,,,,,,,num_3,0.7676943000406027,num_3,0.25,1.3,0.15000000000000002,1.3,5.73083,49.66716,return,1.136159999994561,,,,,,,,,,,,,,,,,709,22,female,up_down_width,2024-05-23_13h39.13.701,exp1,2023.1.0,60.02008271188822,
,,,,,,,,,,,,,,,,5,8.35,9.175,10,10.825,11.65,0.8250000000000001,0.275,0.55,3.85,10,match,36.05,301,331,361,390,420,9,9,9,9,9,,,,,,,4,0,4,0,0,40,40,18,,,,,,,,,,,,num_5,0.7364908999879844,num_5,0.45,0.6,0.10000000000000007,0.6,3.82055,22.9233,return,1.6488805999979377,,,,,,,,,,,,,,,,,709,22,female,up_down_width,2024-05-23_13h39.13.701,exp1,2023.1.0,60.02008271188822,
,,,,,,,,,,,,,,,,4,8.9,9.633333333333333,10.366666666666667,11.1,0,0.7333333333333333,0.18333333333333326,0.55,2.75,10,match,36.05,321,347,374,400,0,9,9,9,9,0,,,,,,,4,0,4,0,0,41,41,1,,,,,,,,,,,,num_4,0.7910968000069261,num_4,0.5,1.1,0.6000000000000001,0.8,22.9233,30.5644,return,1.5579995000152849,,,,,,,,,,,,,,,,,709,22,female,up_down_width,2024-05-23_13h39.13.701,exp1,2023.1.0,60.02008271188822,
,,,,,,,,,,,,,,,,5,8.95,9.475,10,10.525,11.05,0.525,0.275,0.25,2.35,10,match,36.05,323,342,361,379,398,9,9,9,9,9,,,,,,,4,0,4,0,0,42,42,25,,,,,,,,,,,,num_5,0.7410333999432623,num_5,0.4,0.5,0.15000000000000008,0.5,5.73083,19.10275,return,1.2860702000325546,,,,,,,,,,,,,,,,,709,22,female,up_down_width,2024-05-23_13h39.13.701,exp1,2023.1.0,60.02008271188822,
,,,,,,,,,,,,,,,,5,8.6,9.3,10,10.7,11.4,0.7,0.44999999999999996,0.25,3.05,10,initial,36.05,310,335,361,386,411,9,9,9,9,9,,,,,,,4,0,4,0,0,43,43,42,,,,,,,,,,,,num_4,0.8443026999593712,num_4,0.3,1.2,0.2,0.7,7.6411,26.74385,return,1.8821563000092283,,,,,,,,,,,,,,,,,709,22,female,up_down_width,2024-05-23_13h39.13.701,exp1,2023.1.0,60.02008271188822,
,,,,,,,,,,,,,,,,5,8.35,9.175,10,10.825,11.65,0.825,0.575,0.25,3.55,10,match,36.05,301,331,361,390,420,9,9,9,9,9,,,,,,,4,0,4,0,0,44,44,20,,,,,,,,,,,,num_5,0.7846924000186846,num_5,0.3,0.5,0.15000000000000002,0.6,5.73083,22.9233,return,2.4454337000497617,,,,,,,,,,,,,,,,,709,22,female,up_down_width,2024-05-23_13h39.13.701,exp1,2023.1.0,60.02008271188822,
,,,,,,,,,,,,,,,,3,7.8,10,12.2,0,0,2.2,1.9500000000000002,0.25,4.65,10,match,36.05,281,361,440,0,0,9,9,9,0,0,,,,,,,4,0,4,0,0,45,45,37,,,,,,,,,,,,num_3,0.7341433999827132,num_3,0.2,0.8,0.10000000000000002,1.2,3.82055,45.8466,return,1.9451746999984607,,,,,,,,,,,,,,,,,709,22,female,up_down_width,2024-05-23_13h39.13.701,exp1,2023.1.0,60.02008271188822,
,,,,,,,,,,,,,,,,3,9.3,10,10.7,0,0,0.7,0.29999999999999993,0.4,1.8,10,initial,36.05,335,361,386,0,0,9,9,9,0,0,,,,,,,4,0,4,0,0,46,46,9,,,,,,,,,,,,num_3,0.955634200014174,num_3,0.45,1,0.5,0.9,19.10275,34.38495,return,1.4403344000456855,,,,,,,,,,,,,,,,,709,22,female,up_down_width,2024-05-23_13h39.13.701,exp1,2023.1.0,60.02008271188822,
,,,,,,,,,,,,,,,,3,7.800000000000001,10,12.2,0,0,2.1999999999999997,1.7999999999999998,0.4,4.8,10,match,36.05,281,361,440,0,0,9,9,9,0,0,,,,,,,4,0,4,0,0,47,47,39,,,,,,,,,,,,num_3,0.6828470999607816,num_3,0.25,1.1,0.15000000000000002,1.8,5.73083,68.76991,return,4.014324799994938,,,,,,,,,,,,,,,,,709,22,female,up_down_width,2024-05-23_13h39.13.701,exp1,2023.1.0,60.02008271188822,
,,,,,,,,,,,,,,,,3,8.9,10,11.1,0,0,1.1,0.8500000000000001,0.25,2.45,10,initial,36.05,321,361,400,0,0,9,9,9,0,0,,,,,,,4,0,4,0,0,48,48,2,,,,,,,,,,,,num_2,0.8444661000394262,num_2,0.3,1.2,0.2,1.8,7.6411,68.76991,return,2.2605753000243567,,,,,,,,,,,,,,,,,709,22,female,up_down_width,2024-05-23_13h39.13.701,exp1,2023.1.0,60.02008271188822,
,,,,,,,,,,,,,,,,3,9.3,10,10.7,0,0,0.7,0.44999999999999996,0.25,1.65,10,initial,36.05,335,361,386,0,0,9,9,9,0,0,,,,,,,4,0,4,0,0,49,49,7,,,,,,,,,,,,num_3,0.7529110999894328,num_3,0.25,1.2,0.15000000000000002,1.0,5.73083,38.2055,return,1.8535998999723233,,,,,,,,,,,,,,,,,709,22,female,up_down_width,2024-05-23_13h39.13.701,exp1,2023.1.0,60.02008271188822,
,,,,,,,,,,,,,,,,5,8.65,9.325,10,10.675,11.35,0.675,0.125,0.55,3.25,10,match,36.05,312,336,361,385,409,9,9,9,9,9,,,,,,,4,0,4,0,0,50,50,29,,,,,,,,,,,,num_4,0.9321206000167876,num_4,0.45,0.9,0.55,0.7,21.01303,26.74385,return,1.374046700017061,,,,,,,,,,,,,,,,,709,22,female,up_down_width,2024-05-23_13h39.13.701,exp1,2023.1.0,60.02008271188822,
,,,,,,,,,,,,,,,,4,8.65,9.55,10.45,11.35,0,0.9,0.35,0.55,3.25,10,initial,36.05,312,344,377,409,0,9,9,9,9,0,,,,,,,4,0,4,0,0,51,51,28,,,,,,,,,,,,num_4,0.7789810000103898,num_4,0.55,1.3,0.45,0.7,17.19248,26.74385,return,1.9157791000325233,,,,,,,,,,,,,,,,,709,22,female,up_down_width,2024-05-23_13h39.13.701,exp1,2023.1.0,60.02008271188822,
,,,,,,,,,,,,,,,,,,,,,,,,,,,,,,,,,,,,,,,,,,,,,4,0,4,0,,,,,,,,,,,,,,,,,,,,,,,,,,,,,2252.177544800041,2252.177544800041,2252.177544800041,,,,,,,,,,,,709,22,female,up_down_width,2024-05-23_13h39.13.701,exp1,2023.1.0,60.02008271188822,
,,,,,,,,,,,,,,,,3,8.525,10,11.475,0,0,1.475,1.225,0.25,3.2,10,match,36.05,307,361,414,0,0,9,9,9,0,0,,,,,,,5,0,5,0,0,0,0,45,,,,,,,,,,,,num_2,1.2382926999707706,num_2,0.35,1.2,0.3,1.2,11.46165,45.8466,return,0.6715449999901466,,,,,,,,,,,,,,,,,709,22,female,up_down_width,2024-05-23_13h39.13.701,exp1,2023.1.0,60.02008271188822,
,,,,,,,,,,,,,,,,4,8.35,9.45,10.55,11.65,0,1.1,0.7000000000000001,0.4,3.7,10,initial,36.05,301,341,380,420,0,9,9,9,9,0,,,,,,,5,0,5,0,0,1,1,21,,,,,,,,,,,,num_4,0.6659687999635935,num_4,0.2,1.3,0.3,1.3,11.46165,49.66716,return,0.9588648999924771,,,,,,,,,,,,,,,,,709,22,female,up_down_width,2024-05-23_13h39.13.701,exp1,2023.1.0,60.02008271188822,
,,,,,,,,,,,,,,,,4,8.65,9.55,10.45,11.35,0,0.9,0.5,0.4,3.1,10,initial,36.05,312,344,377,409,0,9,9,9,9,0,,,,,,,5,0,5,0,0,2,2,32,,,,,,,,,,,,num_4,1.1632704999647103,num_4,0.25,1.0,0.35,1.0,13.37193,38.2055,return,0.5826650999952108,,,,,,,,,,,,,,,,,709,22,female,up_down_width,2024-05-23_13h39.13.701,exp1,2023.1.0,60.02008271188822,
,,,,,,,,,,,,,,,,3,8.2,10,11.8,0,0,1.8,1.25,0.55,4.15,10,match,36.05,296,361,425,0,0,9,9,9,0,0,,,,,,,5,0,5,0,0,3,3,47,,,,,,,,,,,,num_3,0.6475260999868624,num_3,0.4,1.2,0.6000000000000001,1.2,22.9233,45.8466,return,0.8134948000079021,,,,,,,,,,,,,,,,,709,22,female,up_down_width,2024-05-23_13h39.13.701,exp1,2023.1.0,60.02008271188822,
,,,,,,,,,,,,,,,,4,9.3,9.766666666666667,10.233333333333333,10.7,0,0.4666666666666667,0.06666666666666665,0.4,1.8,10,match,36.05,335,352,369,386,0,9,9,9,9,0,,,,,,,5,0,5,0,0,4,4,10,,,,,,,,,,,,num_3,0.7295892999973148,num_3,0.2,0.6,0.44999999999999996,0.6,17.19248,22.9233,return,1.051391099987086,,,,,,,,,,,,,,,,,709,22,female,up_down_width,2024-05-23_13h39.13.701,exp1,2023.1.0,60.02008271188822,
,,,,,,,,,,,,,,,,5,7.8,8.9,10,11.1,12.2,1.1,0.8500000000000001,0.25,4.65,10,initial,36.05,281,321,361,400,440,9,9,9,9,9,,,,,,,5,0,5,0,0,5,5,36,,,,,,,,,,,,num_3,0.7510321000008844,num_3,0.25,0.4,0.05000000000000002,0.65,1.91028,24.83358,return,1.7580656000063755,,,,,,,,,,,,,,,,,709,22,female,up_down_width,2024-05-23_13h39.13.701,exp1,2023.1.0,60.02008271188822,
,,,,,,,,,,,,,,,,4,8.35,9.45,10.55,11.65,0,1.1,0.55,0.55,3.8500000000000005,10,initial,36.05,301,341,380,420,0,9,9,9,9,0,,,,,,,5,0,5,0,0,6,6,17,,,,,,,,,,,,num_4,0.725775099999737,num_4,0.35,1.3,0.65,1.3,24.83358,49.66716,return,1.1577097999979742,,,,,,,,,,,,,,,,,709,22,female,up_down_width,2024-05-23_13h39.13.701,exp1,2023.1.0,60.02008271188822,
,,,,,,,,,,,,,,,,5,8.35,9.175,10,10.825,11.65,0.8250000000000001,0.275,0.55,3.85,10,match,36.05,301,331,361,390,420,9,9,9,9,9,,,,,,,5,0,5,0,0,7,7,18,,,,,,,,,,,,num_5,0.7584185000159778,num_5,0.2,0.7,0.49999999999999994,0.7,19.10275,26.74385,return,1.3927593000116758,,,,,,,,,,,,,,,,,709,22,female,up_down_width,2024-05-23_13h39.13.701,exp1,2023.1.0,60.02008271188822,
,,,,,,,,,,,,,,,,3,8.9,10,11.1,0,0,1.1,0.7000000000000001,0.4,2.6000000000000005,10,initial,36.05,321,361,400,0,0,9,9,9,0,0,,,,,,,5,0,5,0,0,8,8,4,,,,,,,,,,,,num_3,0.6750227999873459,num_3,0.25,0.6,0.39999999999999997,0.7,15.2822,26.74385,return,1.18978660000721,,,,,,,,,,,,,,,,,709,22,female,up_down_width,2024-05-23_13h39.13.701,exp1,2023.1.0,60.02008271188822,
