amount_p,posx1_p,posx2_p,posx3_p,posx4_p,posx5_p,center_to_center_p,edge_to_edge_p,w_p,stim_lengt_p,eccentricity_p,line1_p,line2_p,line3_p,line4_p,line5_p,amount,posx1,posx2,posx3,posx4,posx5,center_to_center,edge_to_edge,w,stim_length,eccentricity,trial_type,deg_to_pix_index,posx1_in_pix,posx2_in_pix,posx3_in_pix,posx4_in_pix,posx5_in_pix,line1,line2,line3,line4,line5,posx,setsize_cobdi,trials.thisRepN,trials.thisTrialN,trials.thisN,trials.thisIndex,blocks.thisRepN,blocks.thisTrialN,blocks.thisN,blocks.thisIndex,loop.thisRepN,loop.thisTrialN,loop.thisN,loop.thisIndex,first.thisRepN,first.thisTrialN,first.thisN,first.thisIndex,second.thisRepN,second.thisTrialN,second.thisN,second.thisIndex,key_resp_3.started,key_resp_3.keys,key_resp_3.rt,key_resp.keys,key_resp.rt,response,starting_width_deg,starting_space_deg,response_width_degree,response_spacing_degree,response_width_pixel,response_spacing_pixel,next_5.keys,next_5.rt,key_resp_4.keys,key_resp_4.rt,text_3.started,text_4.started,key_resp_2.started,text_2.started,key_resp_2.keys,key_resp_2.rt,adjusting.started,next.keys,next.rt,text_control2.started,key_resp.started,key_resp.corr,text_bye.started,text_bye.stopped,participant,age,gender,resp_group,date,expName,psychopyVersion,frameRate,
,,,,,,,,,,,,,,,,,,,,,,,,,,,,,,,,,,,,,,,,,,,,,,,,,,,,,,,,,,,,,30.541947199963033,c,114.9775470001623,,,,,,,,,,,,,,,,,,,,,,,,,,,,713,23,female,up_down_width,2024-06-04_15h04.08.761,exp1,2023.1.0,59.98965781598123,
4,8.65,9.55,10.45,11.35,0,0.9,0.5,0.4,3.1,10,9,9,9,9,0,,,,,,,,,,,,,,,,,,,,,,,,,,0,0,0,5,,,,,,,,,,,,,,,,,,,,num_3,2.327896200120449,num_3,0.5,0.9,0.55,0.95,21.01303,36.29523,return,6.201486699981615,,,,,,,,,,,,,,,,,713,23,female,up_down_width,2024-06-04_15h04.08.761,exp1,2023.1.0,59.98965781598123,
4,9.5,9.833333333333334,10.166666666666666,10.5,0,0.33333333333333337,0.23333333333333336,0.1,1.1,10,9,9,9,9,0,,,,,,,,,,,,,,,,,,,,,,,,,,0,1,1,3,,,,,,,,,,,,,,,,,,,,num_3,2.864738400094211,num_3,0.25,1.2,0.10000000000000002,1.2,3.82055,45.8466,return,4.172114400193095,,,,,,,,,,,,,,,,,713,23,female,up_down_width,2024-06-04_15h04.08.761,exp1,2023.1.0,59.98965781598123,
3,8.2,10,11.8,0,0,1.7999999999999998,1.4,0.4,4,10,9,9,9,0,0,,,,,,,,,,,,,,,,,,,,,,,,,,0,2,2,2,,,,,,,,,,,,,,,,,,,,num_3,1.864125900203362,num_3,0.3,0.7,0.3,0.95,11.46165,36.29523,return,3.452356700086966,,,,,,,,,,,,,,,,,713,23,female,up_down_width,2024-06-04_15h04.08.761,exp1,2023.1.0,59.98965781598123,
5,8.6,9.3,10,10.7,11.4,0.7,0.29999999999999993,0.4,3.1999999999999997,10,9,9,9,9,9,,,,,,,,,,,,,,,,,,,,,,,,,,0,3,3,7,,,,,,,,,,,,,,,,,,,,num_5,1.977678800234571,num_5,0.3,1.0,0.3,0.85,11.46165,32.47468,return,3.4984047000762075,,,,,,,,,,,,,,,,,713,23,female,up_down_width,2024-06-04_15h04.08.761,exp1,2023.1.0,59.98965781598123,
5,9.25,9.625,10,10.375,10.75,0.375,0.125,0.25,1.75,10,9,9,9,9,9,,,,,,,,,,,,,,,,,,,,,,,,,,0,4,4,6,,,,,,,,,,,,,,,,,,,,num_4,1.291892500128597,num_4,0.5,1.2,0.20000000000000007,0.6,7.6411,22.9233,return,6.662445400143042,,,,,,,,,,,,,,,,,713,23,female,up_down_width,2024-06-04_15h04.08.761,exp1,2023.1.0,59.98965781598123,
5,9,9.5,10,10.5,11,0.5,0.09999999999999998,0.4,2.4,10,9,9,9,9,9,,,,,,,,,,,,,,,,,,,,,,,,,,0,5,5,8,,,,,,,,,,,,,,,,,,,,num_4,0.9947198000736535,num_4,0.3,1.2,0.7000000000000001,1.1,26.74385,42.02605,return,4.810314700240269,,,,,,,,,,,,,,,,,713,23,female,up_down_width,2024-06-04_15h04.08.761,exp1,2023.1.0,59.98965781598123,
3,9,10,11,0,0,1,0.9,0.1,2.1,10,9,9,9,0,0,,,,,,,,,,,,,,,,,,,,,,,,,,0,6,6,1,,,,,,,,,,,,,,,,,,,,num_3,1.2815410001203418,num_3,0.35,0.7,0.10000000000000002,1.0,3.82055,38.2055,return,8.557684700237587,,,,,,,,,,,,,,,,,713,23,female,up_down_width,2024-06-04_15h04.08.761,exp1,2023.1.0,59.98965781598123,
4,9.25,9.75,10.25,10.75,0,0.5,0.25,0.25,1.75,10,9,9,9,9,0,,,,,,,,,,,,,,,,,,,,,,,,,,0,7,7,4,,,,,,,,,,,,,,,,,,,,num_4,1.0862094000913203,num_4,0.55,0.9,0.35000000000000003,0.7,13.37193,26.74385,return,4.129492700099945,,,,,,,,,,,,,,,,,713,23,female,up_down_width,2024-06-04_15h04.08.761,exp1,2023.1.0,59.98965781598123,
3,9.5,10,10.5,0,0,0.5,0.4,0.1,1.1,10,9,9,9,0,0,,,,,,,,,,,,,,,,,,,,,,,,,,0,8,8,0,,,,,,,,,,,,,,,,,,,,num_3,1.0652255001477897,num_3,0.2,1.3,0.2,0.95,7.6411,36.29523,return,4.861728300107643,,,,,,,,,,,,,,,,,713,23,female,up_down_width,2024-06-04_15h04.08.761,exp1,2023.1.0,59.98965781598123,
,,,,,,,,,,,,,,,,,,,,,,,,,,,,,,,,,,,,,,,,,,,,,,,,,,,,,,,,,,,,,,,,,,,,,,,,,,,c,125.57822410017252,,,,,,,,,,,,,,,713,23,female,up_down_width,2024-06-04_15h04.08.761,exp1,2023.1.0,59.98965781598123,
,,,,,,,,,,,,,,,,4,9.1,9.7,10.3,10.9,0,0.6,0.04999999999999997,0.55,2.35,10,match,36.05,328,350,371,393,0,9,9,9,9,0,,,,,,,0,0,0,0,0,0,0,12,,,,,,,,,,,,num_4,1.0035527001600713,num_4,0.55,1.3,0.9000000000000004,1.0,34.38495,38.2055,return,6.051059300079942,,,,,,,,,,,,,,,,,713,23,female,up_down_width,2024-06-04_15h04.08.761,exp1,2023.1.0,59.98965781598123,
,,,,,,,,,,,,,,,,5,8.2,9.1,10,10.9,11.8,0.9,0.5,0.4,4,10,initial,36.05,296,328,361,393,425,9,9,9,9,9,,,,,,,0,0,0,0,0,1,1,50,,,,,,,,,,,,num_5,1.5886039002798498,num_5,0.4,0.6,0.4,0.65,15.2822,24.83358,return,3.006916400277987,,,,,,,,,,,,,,,,,713,23,female,up_down_width,2024-06-04_15h04.08.761,exp1,2023.1.0,59.98965781598123,
,,,,,,,,,,,,,,,,3,8.9,10,11.1,0,0,1.1,0.7000000000000001,0.4,2.6000000000000005,10,initial,36.05,321,361,400,0,0,9,9,9,0,0,,,,,,,0,0,0,0,0,2,2,4,,,,,,,,,,,,num_3,1.3710274000186473,num_3,0.25,0.7,0.6,1.05,22.9233,40.11578,return,3.6772459000349045,,,,,,,,,,,,,,,,,713,23,female,up_down_width,2024-06-04_15h04.08.761,exp1,2023.1.0,59.98965781598123,
,,,,,,,,,,,,,,,,5,8.95,9.475,10,10.525,11.05,0.525,0.125,0.4,2.5,10,match,36.05,323,342,361,379,398,9,9,9,9,9,,,,,,,0,0,0,0,0,3,3,27,,,,,,,,,,,,num_5,0.9580441003199667,num_5,0.35,1.1,0.35,0.65,13.37193,24.83358,return,3.0748101002536714,,,,,,,,,,,,,,,,,713,23,female,up_down_width,2024-06-04_15h04.08.761,exp1,2023.1.0,59.98965781598123,
,,,,,,,,,,,,,,,,3,9.3,10,10.7,0,0,0.7,0.29999999999999993,0.4,1.8,10,initial,36.05,335,361,386,0,0,9,9,9,0,0,,,,,,,0,0,0,0,0,4,4,9,,,,,,,,,,,,num_3,1.1248632001224905,num_3,0.45,0.5,0.35000000000000003,0.9,13.37193,34.38495,return,4.647498399950564,,,,,,,,,,,,,,,,,713,23,female,up_down_width,2024-06-04_15h04.08.761,exp1,2023.1.0,59.98965781598123,
,,,,,,,,,,,,,,,,3,7.800000000000001,10,12.2,0,0,2.1999999999999997,1.7999999999999998,0.4,4.8,10,match,36.05,281,361,440,0,0,9,9,9,0,0,,,,,,,0,0,0,0,0,5,5,39,,,,,,,,,,,,num_3,1.0464997000526637,num_3,0.3,0.7,0.5499999999999999,1.6,21.01303,61.12881,return,5.478290400002152,,,,,,,,,,,,,,,,,713,23,female,up_down_width,2024-06-04_15h04.08.761,exp1,2023.1.0,59.98965781598123,
,,,,,,,,,,,,,,,,4,8.95,9.65,10.35,11.05,0,0.7,0.29999999999999993,0.4,2.5,10,initial,36.05,323,348,373,398,0,9,9,9,9,0,,,,,,,0,0,0,0,0,6,6,26,,,,,,,,,,,,num_4,0.9294195002876222,num_4,0.3,0.4,0.3,0.9,11.46165,34.38495,return,1.6749340000096709,,,,,,,,,,,,,,,,,713,23,female,up_down_width,2024-06-04_15h04.08.761,exp1,2023.1.0,59.98965781598123,
,,,,,,,,,,,,,,,,5,8.65,9.325,10,10.675,11.35,0.675,0.42500000000000004,0.25,2.95,10,match,36.05,312,336,361,385,409,9,9,9,9,9,,,,,,,0,0,0,0,0,7,7,31,,,,,,,,,,,,num_5,1.2915099000092596,num_5,0.2,0.6,0.2,0.8,7.6411,30.5644,return,2.33229469996877,,,,,,,,,,,,,,,,,713,23,female,up_down_width,2024-06-04_15h04.08.761,exp1,2023.1.0,59.98965781598123,
,,,,,,,,,,,,,,,,4,8.65,9.55,10.45,11.35,0,0.9,0.5,0.4,3.1,10,initial,36.05,312,344,377,409,0,9,9,9,9,0,,,,,,,0,0,0,0,0,8,8,32,,,,,,,,,,,,num_4,0.9980893002357334,num_4,0.25,0.3,0.44999999999999996,1.0,17.19248,38.2055,return,2.444101700093597,,,,,,,,,,,,,,,,,713,23,female,up_down_width,2024-06-04_15h04.08.761,exp1,2023.1.0,59.98965781598123,
,,,,,,,,,,,,,,,,5,8.65,9.325,10,10.675,11.35,0.675,0.275,0.4,3.1,10,match,36.05,312,336,361,385,409,9,9,9,9,9,,,,,,,0,0,0,0,0,9,9,33,,,,,,,,,,,,num_3,1.3158905003219843,num_3,0.45,1.2,0.35000000000000003,1.2,13.37193,45.8466,return,2.2071666000410914,,,,,,,,,,,,,,,,,713,23,female,up_down_width,2024-06-04_15h04.08.761,exp1,2023.1.0,59.98965781598123,
,,,,,,,,,,,,,,,,4,8.35,9.45,10.55,11.65,0,1.1,0.8500000000000001,0.25,3.5500000000000003,10,initial,36.05,301,341,380,420,0,9,9,9,9,0,,,,,,,0,0,0,0,0,10,10,19,,,,,,,,,,,,num_4,1.1115703000687063,num_4,0.3,0.6,0.3,1.0,11.46165,38.2055,return,2.3600607002153993,,,,,,,,,,,,,,,,,713,23,female,up_down_width,2024-06-04_15h04.08.761,exp1,2023.1.0,59.98965781598123,
,,,,,,,,,,,,,,,,3,7.8,10,12.2,0,0,2.2,1.9500000000000002,0.25,4.65,10,match,36.05,281,361,440,0,0,9,9,9,0,0,,,,,,,0,0,0,0,0,11,11,37,,,,,,,,,,,,num_3,1.2930671002250165,num_3,0.35,0.8,0.15000000000000002,1.75,5.73083,66.85963,return,4.483021600171924,,,,,,,,,,,,,,,,,713,23,female,up_down_width,2024-06-04_15h04.08.761,exp1,2023.1.0,59.98965781598123,
,,,,,,,,,,,,,,,,3,9.3,10,10.7,0,0,0.7,0.44999999999999996,0.25,1.65,10,initial,36.05,335,361,386,0,0,9,9,9,0,0,,,,,,,0,0,0,0,0,12,12,7,,,,,,,,,,,,num_3,1.3181205000728369,num_3,0.4,0.9,0.25000000000000006,0.8,9.55138,30.5644,return,2.267256800085306,,,,,,,,,,,,,,,,,713,23,female,up_down_width,2024-06-04_15h04.08.761,exp1,2023.1.0,59.98965781598123,
,,,,,,,,,,,,,,,,4,9.3,9.766666666666667,10.233333333333333,10.7,0,0.4666666666666667,0.06666666666666665,0.4,1.8,10,match,36.05,335,352,369,386,0,9,9,9,9,0,,,,,,,0,0,0,0,0,13,13,10,,,,,,,,,,,,num_4,1.1529469001106918,num_4,0.3,0.4,0.35,0.5,13.37193,19.10275,return,2.3486508999485523,,,,,,,,,,,,,,,,,713,23,female,up_down_width,2024-06-04_15h04.08.761,exp1,2023.1.0,59.98965781598123,
,,,,,,,,,,,,,,,,5,8.35,9.175,10,10.825,11.65,0.8250000000000001,0.275,0.55,3.85,10,match,36.05,301,331,361,390,420,9,9,9,9,9,,,,,,,0,0,0,0,0,14,14,18,,,,,,,,,,,,num_5,1.259689100086689,num_5,0.2,0.3,0.49999999999999994,0.85,19.10275,32.47468,return,3.587642500177026,,,,,,,,,,,,,,,,,713,23,female,up_down_width,2024-06-04_15h04.08.761,exp1,2023.1.0,59.98965781598123,
,,,,,,,,,,,,,,,,3,8.2,10,11.8,0,0,1.8,1.55,0.25,3.85,10,match,36.05,296,361,425,0,0,9,9,9,0,0,,,,,,,0,0,0,0,0,15,15,49,,,,,,,,,,,,num_3,1.0297900000587106,num_3,0.5,1.3,0.25000000000000006,1.9,9.55138,72.59046,return,3.591006400063634,,,,,,,,,,,,,,,,,713,23,female,up_down_width,2024-06-04_15h04.08.761,exp1,2023.1.0,59.98965781598123,
,,,,,,,,,,,,,,,,5,8.6,9.3,10,10.7,11.4,0.7,0.29999999999999993,0.4,3.1999999999999997,10,initial,36.05,310,335,361,386,411,9,9,9,9,9,,,,,,,0,0,0,0,0,16,16,44,,,,,,,,,,,,num_4,1.0112421999219805,num_4,0.55,1.0,0.55,1.2,21.01303,45.8466,return,1.36250440008007,,,,,,,,,,,,,,,,,713,23,female,up_down_width,2024-06-04_15h04.08.761,exp1,2023.1.0,59.98965781598123,
,,,,,,,,,,,,,,,,5,8.35,9.175,10,10.825,11.65,0.825,0.575,0.25,3.55,10,match,36.05,301,331,361,390,420,9,9,9,9,9,,,,,,,0,0,0,0,0,17,17,20,,,,,,,,,,,,num_5,0.9928222000598907,num_5,0.45,0.7,0.25000000000000006,0.85,9.55138,32.47468,return,2.241086499998346,,,,,,,,,,,,,,,,,713,23,female,up_down_width,2024-06-04_15h04.08.761,exp1,2023.1.0,59.98965781598123,
,,,,,,,,,,,,,,,,4,8.9,9.633333333333333,10.366666666666667,11.1,0,0.7333333333333334,0.4833333333333334,0.25,2.45,10,match,36.05,321,347,374,400,0,9,9,9,9,0,,,,,,,0,0,0,0,0,18,18,3,,,,,,,,,,,,num_3,62.17594980029389,num_3,0.2,0.7,0.3,0.7,11.46165,26.74385,return,1.393471100134775,,,,,,,,,,,,,,,,,713,23,female,up_down_width,2024-06-04_15h04.08.761,exp1,2023.1.0,59.98965781598123,
,,,,,,,,,,,,,,,,3,8.2,10,11.8,0,0,1.8,1.25,0.55,4.15,10,match,36.05,296,361,425,0,0,9,9,9,0,0,,,,,,,0,0,0,0,0,19,19,47,,,,,,,,,,,,num_4,392.328871200094,num_4,0.25,0.9,0.25,0.9,9.55138,34.38495,return,0.8864012002013624,,,,,,,,,,,,,,,,,713,23,female,up_down_width,2024-06-04_15h04.08.761,exp1,2023.1.0,59.98965781598123,
,,,,,,,,,,,,,,,,5,7.8,8.9,10,11.1,12.2,1.1,0.55,0.55,4.95,10,initial,36.05,281,321,361,400,440,9,9,9,9,9,,,,,,,0,0,0,0,0,20,20,34,,,,,,,,,,,,num_5,0.9923721000086516,num_5,0.25,0.5,0.35,0.7,13.37193,26.74385,return,2.1171635002829134,,,,,,,,,,,,,,,,,713,23,female,up_down_width,2024-06-04_15h04.08.761,exp1,2023.1.0,59.98965781598123,
,,,,,,,,,,,,,,,,4,8.95,9.65,10.35,11.05,0,0.7,0.44999999999999996,0.25,2.3499999999999996,10,initial,36.05,323,348,373,398,0,9,9,9,9,0,,,,,,,0,0,0,0,0,21,21,24,,,,,,,,,,,,num_4,0.8574411000590771,num_4,0.2,0.8,0.2,0.7,7.6411,26.74385,return,1.6783549000974745,,,,,,,,,,,,,,,,,713,23,female,up_down_width,2024-06-04_15h04.08.761,exp1,2023.1.0,59.98965781598123,
,,,,,,,,,,,,,,,,5,7.8,8.9,10,11.1,12.2,1.1,0.7000000000000001,0.4,4.800000000000001,10,initial,36.05,281,321,361,400,440,9,9,9,9,9,,,,,,,0,0,0,0,0,22,22,38,,,,,,,,,,,,num_4,1.0043520999606699,num_4,0.3,1.3,0.3,1.7,11.46165,64.94936,return,1.1805924002546817,,,,,,,,,,,,,,,,,713,23,female,up_down_width,2024-06-04_15h04.08.761,exp1,2023.1.0,59.98965781598123,
,,,,,,,,,,,,,,,,3,8.6,10,11.4,0,0,1.4,0.85,0.55,3.35,10,match,36.05,310,361,411,0,0,9,9,9,0,0,,,,,,,0,0,0,0,0,23,23,41,,,,,,,,,,,,num_3,2.4116220001596957,num_3,0.5,1.2,0.5,1.2,19.10275,45.8466,return,0.8532016002573073,,,,,,,,,,,,,,,,,713,23,female,up_down_width,2024-06-04_15h04.08.761,exp1,2023.1.0,59.98965781598123,
,,,,,,,,,,,,,,,,3,9.1,10,10.9,0,0,0.9,0.65,0.25,2.05,10,initial,36.05,328,361,393,0,0,9,9,9,0,0,,,,,,,0,0,0,0,0,24,24,13,,,,,,,,,,,,num_3,1.3826849001925439,num_3,0.25,1.2,0.25,1.2,9.55138,45.8466,return,0.8450466000940651,,,,,,,,,,,,,,,,,713,23,female,up_down_width,2024-06-04_15h04.08.761,exp1,2023.1.0,59.98965781598123,
,,,,,,,,,,,,,,,,5,8.95,9.475,10,10.525,11.05,0.525,0.275,0.25,2.35,10,match,36.05,323,342,361,379,398,9,9,9,9,9,,,,,,,0,0,0,0,0,25,25,25,,,,,,,,,,,,num_4,0.9492780002765357,num_4,0.25,0.8,0.25,0.6,9.55138,22.9233,return,1.61252689990215,,,,,,,,,,,,,,,,,713,23,female,up_down_width,2024-06-04_15h04.08.761,exp1,2023.1.0,59.98965781598123,
,,,,,,,,,,,,,,,,3,9.1,10,10.9,0,0,0.9,0.35,0.55,2.35,10,initial,36.05,328,361,393,0,0,9,9,9,0,0,,,,,,,0,0,0,0,0,26,26,11,,,,,,,,,,,,num_3,0.9184432001784444,num_3,0.35,1.2,0.7500000000000001,1.2,28.65413,45.8466,return,2.3486802000552416,,,,,,,,,,,,,,,,,713,23,female,up_down_width,2024-06-04_15h04.08.761,exp1,2023.1.0,59.98965781598123,
,,,,,,,,,,,,,,,,4,9.1,9.7,10.3,10.9,0,0.5999999999999999,0.3499999999999999,0.25,2.05,10,match,36.05,328,350,371,393,0,9,9,9,9,0,,,,,,,0,0,0,0,0,27,27,14,,,,,,,,,,,,num_4,0.9092699999455363,num_4,0.45,0.9,0.25000000000000006,0.6,9.55138,22.9233,return,2.3745850999839604,,,,,,,,,,,,,,,,,713,23,female,up_down_width,2024-06-04_15h04.08.761,exp1,2023.1.0,59.98965781598123,
,,,,,,,,,,,,,,,,4,8.9,9.633333333333333,10.366666666666667,11.1,0,0.7333333333333333,0.18333333333333326,0.55,2.75,10,match,36.05,321,347,374,400,0,9,9,9,9,0,,,,,,,0,0,0,0,0,28,28,1,,,,,,,,,,,,num_4,1.14734230004251,num_4,0.4,1.1,0.4,0.7,15.2822,26.74385,return,1.946037100162357,,,,,,,,,,,,,,,,,713,23,female,up_down_width,2024-06-04_15h04.08.761,exp1,2023.1.0,59.98965781598123,
,,,,,,,,,,,,,,,,3,9.1,10,10.9,0,0,0.9,0.5,0.4,2.2,10,initial,36.05,328,361,393,0,0,9,9,9,0,0,,,,,,,0,0,0,0,0,29,29,15,,,,,,,,,,,,num_3,0.8983601001091301,num_3,0.2,0.9,0.44999999999999996,0.9,17.19248,34.38495,return,1.7209644000977278,,,,,,,,,,,,,,,,,713,23,female,up_down_width,2024-06-04_15h04.08.761,exp1,2023.1.0,59.98965781598123,
,,,,,,,,,,,,,,,,3,8.525,10,11.475,0,0,1.475,1.225,0.25,3.2,10,match,36.05,307,361,414,0,0,9,9,9,0,0,,,,,,,0,0,0,0,0,30,30,45,,,,,,,,,,,,num_3,0.8324247002601624,num_3,0.5,0.6,0.20000000000000007,1.15,7.6411,43.93633,return,3.8185191000811756,,,,,,,,,,,,,,,,,713,23,female,up_down_width,2024-06-04_15h04.08.761,exp1,2023.1.0,59.98965781598123,
,,,,,,,,,,,,,,,,3,8.6,10,11.4,0,0,1.4,1.15,0.25,3.05,10,match,36.05,310,361,411,0,0,9,9,9,0,0,,,,,,,0,0,0,0,0,31,31,43,,,,,,,,,,,,num_3,0.847790600033477,num_3,0.25,1.3,0.25,1.3,9.55138,49.66716,return,0.8249205001629889,,,,,,,,,,,,,,,,,713,23,female,up_down_width,2024-06-04_15h04.08.761,exp1,2023.1.0,59.98965781598123,
,,,,,,,,,,,,,,,,3,9.3,10,10.7,0,0,0.7,0.1499999999999999,0.55,1.95,10,initial,36.05,335,361,386,0,0,9,9,9,0,0,,,,,,,0,0,0,0,0,32,32,6,,,,,,,,,,,,num_3,0.808935800101608,num_3,0.45,0.9,0.6000000000000001,0.8,22.9233,30.5644,return,3.383094800170511,,,,,,,,,,,,,,,,,713,23,female,up_down_width,2024-06-04_15h04.08.761,exp1,2023.1.0,59.98965781598123,
,,,,,,,,,,,,,,,,3,8.9,10,11.1,0,0,1.1,0.55,0.55,2.75,10,initial,36.05,321,361,400,0,0,9,9,9,0,0,,,,,,,0,0,0,0,0,33,33,0,,,,,,,,,,,,num_3,0.9728379999287426,num_3,0.25,1.1,0.65,1.1,24.83358,42.02605,return,2.2927824002690613,,,,,,,,,,,,,,,,,713,23,female,up_down_width,2024-06-04_15h04.08.761,exp1,2023.1.0,59.98965781598123,
,,,,,,,,,,,,,,,,5,7.8,8.9,10,11.1,12.2,1.1,0.8500000000000001,0.25,4.65,10,initial,36.05,281,321,361,400,440,9,9,9,9,9,,,,,,,0,0,0,0,0,34,34,36,,,,,,,,,,,,num_6,1.2448625001125038,num_6,0.2,0.4,0.15000000000000002,1.0,5.73083,38.2055,return,3.3004596000537276,,,,,,,,,,,,,,,,,713,23,female,up_down_width,2024-06-04_15h04.08.761,exp1,2023.1.0,59.98965781598123,
,,,,,,,,,,,,,,,,5,8.275,9.1375,10,10.8625,11.725,0.8625,0.6125,0.25,3.7,10,match,36.05,298,329,361,392,423,9,9,9,9,9,,,,,,,0,0,0,0,0,35,35,22,,,,,,,,,,,,num_5,1.0147107001394033,num_5,0.45,0.6,0.15000000000000008,0.75,5.73083,28.65413,return,2.844319000141695,,,,,,,,,,,,,,,,,713,23,female,up_down_width,2024-06-04_15h04.08.761,exp1,2023.1.0,59.98965781598123,
,,,,,,,,,,,,,,,,4,9.3,9.766666666666667,10.233333333333333,10.7,0,0.4666666666666667,0.21666666666666665,0.25,1.65,10,match,36.05,335,352,369,386,0,9,9,9,9,0,,,,,,,0,0,0,0,0,36,36,8,,,,,,,,,,,,num_4,1.0844716001302004,num_4,0.25,0.4,0.2,0.8,7.6411,30.5644,return,4.5917601003311574,,,,,,,,,,,,,,,,,713,23,female,up_down_width,2024-06-04_15h04.08.761,exp1,2023.1.0,59.98965781598123,
,,,,,,,,,,,,,,,,5,8.6,9.3,10,10.7,11.4,0.7,0.44999999999999996,0.25,3.05,10,initial,36.05,310,335,361,386,411,9,9,9,9,9,,,,,,,0,0,0,0,0,37,37,42,,,,,,,,,,,,num_4,0.9394548002164811,num_4,0.5,0.6,0.15000000000000008,1.0,5.73083,38.2055,return,3.746968600200489,,,,,,,,,,,,,,,,,713,23,female,up_down_width,2024-06-04_15h04.08.761,exp1,2023.1.0,59.98965781598123,
,,,,,,,,,,,,,,,,3,7.8,10,12.2,0,0,2.2,1.65,0.55,4.95,10,match,36.05,281,361,440,0,0,9,9,9,0,0,,,,,,,0,0,0,0,0,38,38,35,,,,,,,,,,,,num_3,0.99971460015513,num_3,0.55,0.9,0.6000000000000001,1.75,22.9233,66.85963,return,4.879169899970293,,,,,,,,,,,,,,,,,713,23,female,up_down_width,2024-06-04_15h04.08.761,exp1,2023.1.0,59.98965781598123,
,,,,,,,,,,,,,,,,4,8.35,9.45,10.55,11.65,0,1.1,0.55,0.55,3.8500000000000005,10,initial,36.05,301,341,380,420,0,9,9,9,9,0,,,,,,,0,0,0,0,0,39,39,17,,,,,,,,,,,,num_4,0.8348126001656055,num_4,0.2,0.8,0.6,1.3,22.9233,49.66716,return,2.880401900038123,,,,,,,,,,,,,,,,,713,23,female,up_down_width,2024-06-04_15h04.08.761,exp1,2023.1.0,59.98965781598123,
,,,,,,,,,,,,,,,,3,8.9,10,11.1,0,0,1.1,0.8500000000000001,0.25,2.45,10,initial,36.05,321,361,400,0,0,9,9,9,0,0,,,,,,,0,0,0,0,0,40,40,2,,,,,,,,,,,,num_3,1.0125035000965,num_3,0.35,1.2,0.25,1.4,9.55138,53.48771,return,2.5335213001817465,,,,,,,,,,,,,,,,,713,23,female,up_down_width,2024-06-04_15h04.08.761,exp1,2023.1.0,59.98965781598123,
,,,,,,,,,,,,,,,,4,9.1,9.7,10.3,10.9,0,0.6000000000000001,0.20000000000000004,0.4,2.2,10,match,36.05,328,350,371,393,0,9,9,9,9,0,,,,,,,0,0,0,0,0,41,41,16,,,,,,,,,,,,num_3,0.8386749001219869,num_3,0.35,1,0.35,0.65,13.37193,24.83358,return,2.051749500213191,,,,,,,,,,,,,,,,,713,23,female,up_down_width,2024-06-04_15h04.08.761,exp1,2023.1.0,59.98965781598123,
,,,,,,,,,,,,,,,,4,8.65,9.55,10.45,11.35,0,0.9,0.35,0.55,3.25,10,initial,36.05,312,344,377,409,0,9,9,9,9,0,,,,,,,0,0,0,0,0,42,42,28,,,,,,,,,,,,num_4,0.8098348001949489,num_4,0.45,1.0,0.45,1.0,17.19248,38.2055,return,0.7738628999795765,,,,,,,,,,,,,,,,,713,23,female,up_down_width,2024-06-04_15h04.08.761,exp1,2023.1.0,59.98965781598123,
,,,,,,,,,,,,,,,,5,8.2,9.1,10,10.9,11.8,0.9,0.65,0.25,3.85,10,initial,36.05,296,328,361,393,425,9,9,9,9,9,,,,,,,0,0,0,0,0,43,43,48,,,,,,,,,,,,num_5,0.9656279003247619,num_5,0.2,0.6,0.2,0.6,7.6411,22.9233,return,0.6860713001806289,,,,,,,,,,,,,,,,,713,23,female,up_down_width,2024-06-04_15h04.08.761,exp1,2023.1.0,59.98965781598123,
,,,,,,,,,,,,,,,,4,8.65,9.55,10.45,11.35,0,0.9,0.65,0.25,2.95,10,initial,36.05,312,344,377,409,0,9,9,9,9,0,,,,,,,0,0,0,0,0,44,44,30,,,,,,,,,,,,num_4,0.8593123001046479,num_4,0.45,1.2,0.15000000000000008,0.7,5.73083,26.74385,return,2.4395851001609117,,,,,,,,,,,,,,,,,713,23,female,up_down_width,2024-06-04_15h04.08.761,exp1,2023.1.0,59.98965781598123,
,,,,,,,,,,,,,,,,5,8.65,9.325,10,10.675,11.35,0.675,0.125,0.55,3.25,10,match,36.05,312,336,361,385,409,9,9,9,9,9,,,,,,,0,0,0,0,0,45,45,29,,,,,,,,,,,,num_5,0.9024343001656234,num_5,0.3,1.3,0.7000000000000001,1.05,26.74385,40.11578,return,3.2179180001839995,,,,,,,,,,,,,,,,,713,23,female,up_down_width,2024-06-04_15h04.08.761,exp1,2023.1.0,59.98965781598123,
,,,,,,,,,,,,,,,,3,8.2,10,11.8,0,0,1.7999999999999998,1.4,0.4,4,10,match,36.05,296,361,425,0,0,9,9,9,0,0,,,,,,,0,0,0,0,0,46,46,51,,,,,,,,,,,,num_3,1.3057708002161235,num_3,0.5,0.6,0.5,1.45,19.10275,55.39798,return,3.7645244002342224,,,,,,,,,,,,,,,,,713,23,female,up_down_width,2024-06-04_15h04.08.761,exp1,2023.1.0,59.98965781598123,
,,,,,,,,,,,,,,,,4,8.825,9.608333333333333,10.391666666666667,11.175,0,0.7833333333333333,0.5333333333333333,0.25,2.6,10,match,36.05,318,346,375,403,0,9,9,9,9,0,,,,,,,0,0,0,0,0,47,47,5,,,,,,,,,,,,num_4,0.9561011001933366,num_4,0.5,1.2,0.25000000000000006,0.8,9.55138,30.5644,return,4.385902600130066,,,,,,,,,,,,,,,,,713,23,female,up_down_width,2024-06-04_15h04.08.761,exp1,2023.1.0,59.98965781598123,
,,,,,,,,,,,,,,,,5,8.2,9.1,10,10.9,11.8,0.9,0.35,0.55,4.15,10,initial,36.05,296,328,361,393,425,9,9,9,9,9,,,,,,,0,0,0,0,0,48,48,46,,,,,,,,,,,,num_5,0.8291819000151008,num_5,0.45,1.3,0.45,0.95,17.19248,36.29523,return,2.1229787999764085,,,,,,,,,,,,,,,,,713,23,female,up_down_width,2024-06-04_15h04.08.761,exp1,2023.1.0,59.98965781598123,
,,,,,,,,,,,,,,,,4,8.35,9.45,10.55,11.65,0,1.1,0.7000000000000001,0.4,3.7,10,initial,36.05,301,341,380,420,0,9,9,9,9,0,,,,,,,0,0,0,0,0,49,49,21,,,,,,,,,,,,num_4,0.9599529001861811,num_4,0.5,1.3,0.35000000000000003,0.9,13.37193,34.38495,return,2.0025484000798315,,,,,,,,,,,,,,,,,713,23,female,up_down_width,2024-06-04_15h04.08.761,exp1,2023.1.0,59.98965781598123,
,,,,,,,,,,,,,,,,4,8.95,9.65,10.35,11.05,0,0.7,0.1499999999999999,0.55,2.65,10,initial,36.05,323,348,373,398,0,9,9,9,9,0,,,,,,,0,0,0,0,0,50,50,23,,,,,,,,,,,,num_4,0.8371625002473593,num_4,0.4,0.5,0.4,0.9,15.2822,34.38495,return,1.927975700236857,,,,,,,,,,,,,,,,,713,23,female,up_down_width,2024-06-04_15h04.08.761,exp1,2023.1.0,59.98965781598123,
,,,,,,,,,,,,,,,,5,8.6,9.3,10,10.7,11.4,0.7,0.1499999999999999,0.55,3.3499999999999996,10,initial,36.05,310,335,361,386,411,9,9,9,9,9,,,,,,,0,0,0,0,0,51,51,40,,,,,,,,,,,,num_5,0.9832339000422508,num_5,0.2,1.2,0.6,0.9,22.9233,34.38495,return,3.6447911001741886,,,,,,,,,,,,,,,,,713,23,female,up_down_width,2024-06-04_15h04.08.761,exp1,2023.1.0,59.98965781598123,
,,,,,,,,,,,,,,,,,,,,,,,,,,,,,,,,,,,,,,,,,,,,,0,0,0,0,,,,,,,,,,,,,,,,,,,,,,,,,,,,,1082.9631705000065,1082.9631705000065,1082.9631705000065,,,,,,,,,,,,713,23,female,up_down_width,2024-06-04_15h04.08.761,exp1,2023.1.0,59.98965781598123,
,,,,,,,,,,,,,,,,3,9.1,10,10.9,0,0,0.9,0.5,0.4,2.2,10,initial,36.05,328,361,393,0,0,9,9,9,0,0,,,,,,,1,0,1,0,0,0,0,15,,,,,,,,,,,,num_3,1.9287093002349138,num_3,0.4,1.3,0.4,1.05,15.2822,40.11578,return,2.135344800306484,,,,,,,,,,,,,,,,,713,23,female,up_down_width,2024-06-04_15h04.08.761,exp1,2023.1.0,59.98965781598123,
,,,,,,,,,,,,,,,,3,8.9,10,11.1,0,0,1.1,0.55,0.55,2.75,10,initial,36.05,321,361,400,0,0,9,9,9,0,0,,,,,,,1,0,1,0,0,1,1,0,,,,,,,,,,,,num_3,0.8347122000996023,num_3,0.3,0.7,0.6,1.0,22.9233,38.2055,return,3.0867198002524674,,,,,,,,,,,,,,,,,713,23,female,up_down_width,2024-06-04_15h04.08.761,exp1,2023.1.0,59.98965781598123,
,,,,,,,,,,,,,,,,4,8.35,9.45,10.55,11.65,0,1.1,0.55,0.55,3.8500000000000005,10,initial,36.05,301,341,380,420,0,9,9,9,9,0,,,,,,,1,0,1,0,0,2,2,17,,,,,,,,,,,,num_4,0.8757330002263188,num_4,0.3,1.2,0.6,1.1,22.9233,42.02605,return,2.2452932002488524,,,,,,,,,,,,,,,,,713,23,female,up_down_width,2024-06-04_15h04.08.761,exp1,2023.1.0,59.98965781598123,
,,,,,,,,,,,,,,,,4,9.1,9.7,10.3,10.9,0,0.5999999999999999,0.3499999999999999,0.25,2.05,10,match,36.05,328,350,371,393,0,9,9,9,9,0,,,,,,,1,0,1,0,0,3,3,14,,,,,,,,,,,,num_4,0.8911953000351787,num_4,0.35,0.7,0.35,1.0,13.37193,38.2055,return,1.2543017002753913,,,,,,,,,,,,,,,,,713,23,female,up_down_width,2024-06-04_15h04.08.761,exp1,2023.1.0,59.98965781598123,
,,,,,,,,,,,,,,,,3,8.6,10,11.4,0,0,1.4,0.85,0.55,3.35,10,match,36.05,310,361,411,0,0,9,9,9,0,0,,,,,,,1,0,1,0,0,4,4,41,,,,,,,,,,,,num_3,0.8646257002837956,num_3,0.2,0.9,0.6,1.15,22.9233,43.93633,return,2.9090365001466125,,,,,,,,,,,,,,,,,713,23,female,up_down_width,2024-06-04_15h04.08.761,exp1,2023.1.0,59.98965781598123,
,,,,,,,,,,,,,,,,4,8.65,9.55,10.45,11.35,0,0.9,0.65,0.25,2.95,10,initial,36.05,312,344,377,409,0,9,9,9,9,0,,,,,,,1,0,1,0,0,5,5,30,,,,,,,,,,,,num_4,0.9084819001145661,num_4,0.55,0.7,0.20000000000000007,1.0,7.6411,38.2055,return,2.565594600047916,,,,,,,,,,,,,,,,,713,23,female,up_down_width,2024-06-04_15h04.08.761,exp1,2023.1.0,59.98965781598123,
,,,,,,,,,,,,,,,,4,8.65,9.55,10.45,11.35,0,0.9,0.5,0.4,3.1,10,initial,36.05,312,344,377,409,0,9,9,9,9,0,,,,,,,1,0,1,0,0,6,6,32,,,,,,,,,,,,num_4,0.8514185003004968,num_4,0.3,0.9,0.49999999999999994,0.9,19.10275,34.38495,return,1.5622216002084315,,,,,,,,,,,,,,,,,713,23,female,up_down_width,2024-06-04_15h04.08.761,exp1,2023.1.0,59.98965781598123,
,,,,,,,,,,,,,,,,5,8.275,9.1375,10,10.8625,11.725,0.8625,0.6125,0.25,3.7,10,match,36.05,298,329,361,392,423,9,9,9,9,9,,,,,,,1,0,1,0,0,7,7,22,,,,,,,,,,,,num_5,1.182731400243938,num_5,0.2,0.8,0.2,0.8,7.6411,30.5644,return,1.0011721001937985,,,,,,,,,,,,,,,,,713,23,female,up_down_width,2024-06-04_15h04.08.761,exp1,2023.1.0,59.98965781598123,
,,,,,,,,,,,,,,,,5,8.6,9.3,10,10.7,11.4,0.7,0.29999999999999993,0.4,3.1999999999999997,10,initial,36.05,310,335,361,386,411,9,9,9,9,9,,,,,,,1,0,1,0,0,8,8,44,,,,,,,,,,,,num_5,1.5818828002084047,num_5,0.25,0.6,0.39999999999999997,0.65,15.2822,24.83358,return,1.9270558001007885,,,,,,,,,,,,,,,,,713,23,female,up_down_width,2024-06-04_15h04.08.761,exp1,2023.1.0,59.98965781598123,
,,,,,,,,,,,,,,,,3,8.9,10,11.1,0,0,1.1,0.7000000000000001,0.4,2.6000000000000005,10,initial,36.05,321,361,400,0,0,9,9,9,0,0,,,,,,,1,0,1,0,0,9,9,4,,,,,,,,,,,,num_3,1.5014733001589775,num_3,0.5,0.6,0.5,1.0,19.10275,38.2055,return,2.3518872000277042,,,,,,,,,,,,,,,,,713,23,female,up_down_width,2024-06-04_15h04.08.761,exp1,2023.1.0,59.98965781598123,
,,,,,,,,,,,,,,,,4,8.9,9.633333333333333,10.366666666666667,11.1,0,0.7333333333333333,0.18333333333333326,0.55,2.75,10,match,36.05,321,347,374,400,0,9,9,9,9,0,,,,,,,1,0,1,0,0,10,10,1,,,,,,,,,,,,num_4,0.7795609002932906,num_4,0.35,1.1,0.6,0.9,22.9233,34.38495,return,2.6348900001030415,,,,,,,,,,,,,,,,,713,23,female,up_down_width,2024-06-04_15h04.08.761,exp1,2023.1.0,59.98965781598123,
,,,,,,,,,,,,,,,,3,9.3,10,10.7,0,0,0.7,0.1499999999999999,0.55,1.95,10,initial,36.05,335,361,386,0,0,9,9,9,0,0,,,,,,,1,0,1,0,0,11,11,6,,,,,,,,,,,,num_3,1.1073601001407951,num_3,0.3,0.7,0.49999999999999994,0.8,19.10275,30.5644,return,2.3024255002383143,,,,,,,,,,,,,,,,,713,23,female,up_down_width,2024-06-04_15h04.08.761,exp1,2023.1.0,59.98965781598123,
,,,,,,,,,,,,,,,,5,8.6,9.3,10,10.7,11.4,0.7,0.44999999999999996,0.25,3.05,10,initial,36.05,310,335,361,386,411,9,9,9,9,9,,,,,,,1,0,1,0,0,12,12,42,,,,,,,,,,,,num_4,0.8865774001460522,num_4,0.3,0.8,0.3,0.8,11.46165,30.5644,return,0.8115052999928594,,,,,,,,,,,,,,,,,713,23,female,up_down_width,2024-06-04_15h04.08.761,exp1,2023.1.0,59.98965781598123,
,,,,,,,,,,,,,,,,4,8.65,9.55,10.45,11.35,0,0.9,0.35,0.55,3.25,10,initial,36.05,312,344,377,409,0,9,9,9,9,0,,,,,,,1,0,1,0,0,13,13,28,,,,,,,,,,,,num_4,0.7510693001095206,num_4,0.45,0.7,0.45,0.7,17.19248,26.74385,return,0.7512250002473593,,,,,,,,,,,,,,,,,713,23,female,up_down_width,2024-06-04_15h04.08.761,exp1,2023.1.0,59.98965781598123,
,,,,,,,,,,,,,,,,3,9.3,10,10.7,0,0,0.7,0.29999999999999993,0.4,1.8,10,initial,36.05,335,361,386,0,0,9,9,9,0,0,,,,,,,1,0,1,0,0,14,14,9,,,,,,,,,,,,num_3,0.8347378000617027,num_3,0.3,0.9,0.6,0.9,22.9233,34.38495,return,2.0424176000524312,,,,,,,,,,,,,,,,,713,23,female,up_down_width,2024-06-04_15h04.08.761,exp1,2023.1.0,59.98965781598123,
,,,,,,,,,,,,,,,,4,8.95,9.65,10.35,11.05,0,0.7,0.1499999999999999,0.55,2.65,10,initial,36.05,323,348,373,398,0,9,9,9,9,0,,,,,,,1,0,1,0,0,15,15,23,,,,,,,,,,,,num_4,0.7473620001692325,num_4,0.45,1.1,0.55,0.8,21.01303,30.5644,return,3.1457190001383424,,,,,,,,,,,,,,,,,713,23,female,up_down_width,2024-06-04_15h04.08.761,exp1,2023.1.0,59.98965781598123,
,,,,,,,,,,,,,,,,3,8.6,10,11.4,0,0,1.4,1.15,0.25,3.05,10,match,36.05,310,361,411,0,0,9,9,9,0,0,,,,,,,1,0,1,0,0,16,16,43,,,,,,,,,,,,num_3,1.185020700097084,num_3,0.5,0.7,0.30000000000000004,0.8,11.46165,30.5644,return,2.2362221002113074,,,,,,,,,,,,,,,,,713,23,female,up_down_width,2024-06-04_15h04.08.761,exp1,2023.1.0,59.98965781598123,
,,,,,,,,,,,,,,,,3,8.2,10,11.8,0,0,1.8,1.25,0.55,4.15,10,match,36.05,296,361,425,0,0,9,9,9,0,0,,,,,,,1,0,1,0,0,17,17,47,,,,,,,,,,,,num_3,0.8470218000002205,num_3,0.25,0.8,0.49999999999999994,1.05,19.10275,40.11578,return,2.364262300077826,,,,,,,,,,,,,,,,,713,23,female,up_down_width,2024-06-04_15h04.08.761,exp1,2023.1.0,59.98965781598123,
,,,,,,,,,,,,,,,,5,7.8,8.9,10,11.1,12.2,1.1,0.7000000000000001,0.4,4.800000000000001,10,initial,36.05,281,321,361,400,440,9,9,9,9,9,,,,,,,1,0,1,0,0,18,18,38,,,,,,,,,,,,num_4,0.9112654000055045,num_4,0.55,1.2,0.35000000000000003,0.9,13.37193,34.38495,return,2.2755740000866354,,,,,,,,,,,,,,,,,713,23,female,up_down_width,2024-06-04_15h04.08.761,exp1,2023.1.0,59.98965781598123,
,,,,,,,,,,,,,,,,5,8.95,9.475,10,10.525,11.05,0.525,0.125,0.4,2.5,10,match,36.05,323,342,361,379,398,9,9,9,9,9,,,,,,,1,0,1,0,0,19,19,27,,,,,,,,,,,,num_4,0.7682839001063257,num_4,0.2,1.3,0.6,0.9,22.9233,34.38495,return,3.0732106000650674,,,,,,,,,,,,,,,,,713,23,female,up_down_width,2024-06-04_15h04.08.761,exp1,2023.1.0,59.98965781598123,
,,,,,,,,,,,,,,,,3,7.8,10,12.2,0,0,2.2,1.9500000000000002,0.25,4.65,10,match,36.05,281,361,440,0,0,9,9,9,0,0,,,,,,,1,0,1,0,0,20,20,37,,,,,,,,,,,,num_3,1.213516800198704,num_3,0.55,1,0.25000000000000006,1.5,9.55138,57.30826,return,3.4988186999689788,,,,,,,,,,,,,,,,,713,23,female,up_down_width,2024-06-04_15h04.08.761,exp1,2023.1.0,59.98965781598123,
,,,,,,,,,,,,,,,,3,8.9,10,11.1,0,0,1.1,0.8500000000000001,0.25,2.45,10,initial,36.05,321,361,400,0,0,9,9,9,0,0,,,,,,,1,0,1,0,0,21,21,2,,,,,,,,,,,,num_3,0.74342570011504,num_3,0.25,0.7,0.25,1.0,9.55138,38.2055,return,3.9729929000604898,,,,,,,,,,,,,,,,,713,23,female,up_down_width,2024-06-04_15h04.08.761,exp1,2023.1.0,59.98965781598123,
,,,,,,,,,,,,,,,,4,8.825,9.608333333333333,10.391666666666667,11.175,0,0.7833333333333333,0.5333333333333333,0.25,2.6,10,match,36.05,318,346,375,403,0,9,9,9,9,0,,,,,,,1,0,1,0,0,22,22,5,,,,,,,,,,,,num_4,0.9564619001466781,num_4,0.55,0.9,0.20000000000000007,0.9,7.6411,34.38495,return,2.198108399985358,,,,,,,,,,,,,,,,,713,23,female,up_down_width,2024-06-04_15h04.08.761,exp1,2023.1.0,59.98965781598123,
,,,,,,,,,,,,,,,,4,9.1,9.7,10.3,10.9,0,0.6,0.04999999999999997,0.55,2.35,10,match,36.05,328,350,371,393,0,9,9,9,9,0,,,,,,,1,0,1,0,0,23,23,12,,,,,,,,,,,,num_4,0.9181668001692742,num_4,0.2,0.3,0.5499999999999999,0.9,21.01303,34.38495,return,3.9199584000743926,,,,,,,,,,,,,,,,,713,23,female,up_down_width,2024-06-04_15h04.08.761,exp1,2023.1.0,59.98965781598123,
,,,,,,,,,,,,,,,,3,9.1,10,10.9,0,0,0.9,0.65,0.25,2.05,10,initial,36.05,328,361,393,0,0,9,9,9,0,0,,,,,,,1,0,1,0,0,24,24,13,,,,,,,,,,,,num_3,0.9328867001459002,num_3,0.4,1,0.25000000000000006,1,9.55138,38.2055,return,1.9272579001262784,,,,,,,,,,,,,,,,,713,23,female,up_down_width,2024-06-04_15h04.08.761,exp1,2023.1.0,59.98965781598123,
,,,,,,,,,,,,,,,,5,7.8,8.9,10,11.1,12.2,1.1,0.8500000000000001,0.25,4.65,10,initial,36.05,281,321,361,400,440,9,9,9,9,9,,,,,,,1,0,1,0,0,25,25,36,,,,,,,,,,,,num_5,0.9059469001367688,num_5,0.25,0.3,0.25,0.95,9.55138,36.29523,return,3.3458476001396775,,,,,,,,,,,,,,,,,713,23,female,up_down_width,2024-06-04_15h04.08.761,exp1,2023.1.0,59.98965781598123,
,,,,,,,,,,,,,,,,5,8.6,9.3,10,10.7,11.4,0.7,0.1499999999999999,0.55,3.3499999999999996,10,initial,36.05,310,335,361,386,411,9,9,9,9,9,,,,,,,1,0,1,0,0,26,26,40,,,,,,,,,,,,num_4,0.8340061001945287,num_4,0.35,0.5,0.49999999999999994,0.8,19.10275,30.5644,return,2.095259200083092,,,,,,,,,,,,,,,,,713,23,female,up_down_width,2024-06-04_15h04.08.761,exp1,2023.1.0,59.98965781598123,
,,,,,,,,,,,,,,,,3,7.8,10,12.2,0,0,2.2,1.65,0.55,4.95,10,match,36.05,281,361,440,0,0,9,9,9,0,0,,,,,,,1,0,1,0,0,27,27,35,,,,,,,,,,,,num_3,1.0051659001037478,num_3,0.45,0.7,0.5,1.1,19.10275,42.02605,return,3.363536600023508,,,,,,,,,,,,,,,,,713,23,female,up_down_width,2024-06-04_15h04.08.761,exp1,2023.1.0,59.98965781598123,
,,,,,,,,,,,,,,,,4,8.35,9.45,10.55,11.65,0,1.1,0.7000000000000001,0.4,3.7,10,initial,36.05,301,341,380,420,0,9,9,9,9,0,,,,,,,1,0,1,0,0,28,28,21,,,,,,,,,,,,num_4,0.8648934999946505,num_4,0.5,1.1,0.5,1.1,19.10275,42.02605,return,1.0027319001965225,,,,,,,,,,,,,,,,,713,23,female,up_down_width,2024-06-04_15h04.08.761,exp1,2023.1.0,59.98965781598123,
,,,,,,,,,,,,,,,,3,8.525,10,11.475,0,0,1.475,1.225,0.25,3.2,10,match,36.05,307,361,414,0,0,9,9,9,0,0,,,,,,,1,0,1,0,0,29,29,45,,,,,,,,,,,,num_3,0.8599956000689417,num_3,0.4,0.6,0.30000000000000004,1.0,11.46165,38.2055,return,2.6773693000432104,,,,,,,,,,,,,,,,,713,23,female,up_down_width,2024-06-04_15h04.08.761,exp1,2023.1.0,59.98965781598123,
,,,,,,,,,,,,,,,,4,8.35,9.45,10.55,11.65,0,1.1,0.8500000000000001,0.25,3.5500000000000003,10,initial,36.05,301,341,380,420,0,9,9,9,9,0,,,,,,,1,0,1,0,0,30,30,19,,,,,,,,,,,,num_4,0.912678100168705,num_4,0.5,1.0,0.15000000000000008,1.0,5.73083,38.2055,return,2.8906739000231028,,,,,,,,,,,,,,,,,713,23,female,up_down_width,2024-06-04_15h04.08.761,exp1,2023.1.0,59.98965781598123,
,,,,,,,,,,,,,,,,5,8.35,9.175,10,10.825,11.65,0.8250000000000001,0.275,0.55,3.85,10,match,36.05,301,331,361,390,420,9,9,9,9,9,,,,,,,1,0,1,0,0,31,31,18,,,,,,,,,,,,num_5,0.9516742001287639,num_5,0.35,0.9,0.35,0.9,13.37193,34.38495,return,0.8310047001577914,,,,,,,,,,,,,,,,,713,23,female,up_down_width,2024-06-04_15h04.08.761,exp1,2023.1.0,59.98965781598123,
,,,,,,,,,,,,,,,,4,8.95,9.65,10.35,11.05,0,0.7,0.44999999999999996,0.25,2.3499999999999996,10,initial,36.05,323,348,373,398,0,9,9,9,9,0,,,,,,,1,0,1,0,0,32,32,24,,,,,,,,,,,,num_4,0.8162509999237955,num_4,0.4,1.2,0.25000000000000006,0.9,9.55138,34.38495,return,2.121306300163269,,,,,,,,,,,,,,,,,713,23,female,up_down_width,2024-06-04_15h04.08.761,exp1,2023.1.0,59.98965781598123,
,,,,,,,,,,,,,,,,4,8.9,9.633333333333333,10.366666666666667,11.1,0,0.7333333333333334,0.4833333333333334,0.25,2.45,10,match,36.05,321,347,374,400,0,9,9,9,9,0,,,,,,,1,0,1,0,0,33,33,3,,,,,,,,,,,,num_4,0.7493732001166791,num_4,0.3,0.5,0.3,0.9,11.46165,34.38495,return,1.2888690002728254,,,,,,,,,,,,,,,,,713,23,female,up_down_width,2024-06-04_15h04.08.761,exp1,2023.1.0,59.98965781598123,
,,,,,,,,,,,,,,,,5,8.65,9.325,10,10.675,11.35,0.675,0.275,0.4,3.1,10,match,36.05,312,336,361,385,409,9,9,9,9,9,,,,,,,1,0,1,0,0,34,34,33,,,,,,,,,,,,num_5,0.8768960002344102,num_5,0.35,0.6,0.35,0.7,13.37193,26.74385,return,1.362489900086075,,,,,,,,,,,,,,,,,713,23,female,up_down_width,2024-06-04_15h04.08.761,exp1,2023.1.0,59.98965781598123,
,,,,,,,,,,,,,,,,5,8.2,9.1,10,10.9,11.8,0.9,0.5,0.4,4,10,initial,36.05,296,328,361,393,425,9,9,9,9,9,,,,,,,1,0,1,0,0,35,35,50,,,,,,,,,,,,num_5,0.9316412000916898,num_5,0.55,0.8,0.30000000000000004,0.8,11.46165,30.5644,return,2.2179136001504958,,,,,,,,,,,,,,,,,713,23,female,up_down_width,2024-06-04_15h04.08.761,exp1,2023.1.0,59.98965781598123,
,,,,,,,,,,,,,,,,4,8.95,9.65,10.35,11.05,0,0.7,0.29999999999999993,0.4,2.5,10,initial,36.05,323,348,373,398,0,9,9,9,9,0,,,,,,,1,0,1,0,0,36,36,26,,,,,,,,,,,,num_4,0.8778404002077878,num_4,0.2,1.0,0.5499999999999999,0.9,21.01303,34.38495,return,3.075555100105703,,,,,,,,,,,,,,,,,713,23,female,up_down_width,2024-06-04_15h04.08.761,exp1,2023.1.0,59.98965781598123,
,,,,,,,,,,,,,,,,5,8.65,9.325,10,10.675,11.35,0.675,0.125,0.55,3.25,10,match,36.05,312,336,361,385,409,9,9,9,9,9,,,,,,,1,0,1,0,0,37,37,29,,,,,,,,,,,,num_5,0.783071800135076,num_5,0.4,1.1,0.4,0.75,15.2822,28.65413,return,2.035803700098768,,,,,,,,,,,,,,,,,713,23,female,up_down_width,2024-06-04_15h04.08.761,exp1,2023.1.0,59.98965781598123,
,,,,,,,,,,,,,,,,5,8.2,9.1,10,10.9,11.8,0.9,0.35,0.55,4.15,10,initial,36.05,296,328,361,393,425,9,9,9,9,9,,,,,,,1,0,1,0,0,38,38,46,,,,,,,,,,,,num_3,1.35866570007056,num_3,0.4,0.8,0.4,0.8,15.2822,30.5644,return,0.8065908001735806,,,,,,,,,,,,,,,,,713,23,female,up_down_width,2024-06-04_15h04.08.761,exp1,2023.1.0,59.98965781598123,
,,,,,,,,,,,,,,,,3,9.3,10,10.7,0,0,0.7,0.44999999999999996,0.25,1.65,10,initial,36.05,335,361,386,0,0,9,9,9,0,0,,,,,,,1,0,1,0,0,39,39,7,,,,,,,,,,,,num_3,0.7778428001329303,num_3,0.35,1,0.25,0.75,9.55138,28.65413,return,1.9712522001937032,,,,,,,,,,,,,,,,,713,23,female,up_down_width,2024-06-04_15h04.08.761,exp1,2023.1.0,59.98965781598123,
,,,,,,,,,,,,,,,,4,9.3,9.766666666666667,10.233333333333333,10.7,0,0.4666666666666667,0.21666666666666665,0.25,1.65,10,match,36.05,335,352,369,386,0,9,9,9,9,0,,,,,,,1,0,1,0,0,40,40,8,,,,,,,,,,,,num_4,2.3717682000715286,num_4,0.55,0.9,0.20000000000000007,0.5,7.6411,19.10275,return,2.9761228999122977,,,,,,,,,,,,,,,,,713,23,female,up_down_width,2024-06-04_15h04.08.761,exp1,2023.1.0,59.98965781598123,
,,,,,,,,,,,,,,,,3,9.1,10,10.9,0,0,0.9,0.35,0.55,2.35,10,initial,36.05,328,361,393,0,0,9,9,9,0,0,,,,,,,1,0,1,0,0,41,41,11,,,,,,,,,,,,num_3,0.8682756000198424,num_3,0.45,1.1,0.45,0.95,17.19248,36.29523,return,1.5676045001018792,,,,,,,,,,,,,,,,,713,23,female,up_down_width,2024-06-04_15h04.08.761,exp1,2023.1.0,59.98965781598123,
,,,,,,,,,,,,,,,,5,8.65,9.325,10,10.675,11.35,0.675,0.42500000000000004,0.25,2.95,10,match,36.05,312,336,361,385,409,9,9,9,9,9,,,,,,,1,0,1,0,0,42,42,31,,,,,,,,,,,,num_5,1.0184717001393437,num_5,0.35,0.6,0.15000000000000002,0.6,5.73083,22.9233,return,1.6761245001107454,,,,,,,,,,,,,,,,,713,23,female,up_down_width,2024-06-04_15h04.08.761,exp1,2023.1.0,59.98965781598123,
,,,,,,,,,,,,,,,,3,8.2,10,11.8,0,0,1.8,1.55,0.25,3.85,10,match,36.05,296,361,425,0,0,9,9,9,0,0,,,,,,,1,0,1,0,0,43,43,49,,,,,,,,,,,,num_3,0.8787478001322597,num_3,0.3,0.5,0.10000000000000002,1.5,3.82055,57.30826,return,5.482972700148821,,,,,,,,,,,,,,,,,713,23,female,up_down_width,2024-06-04_15h04.08.761,exp1,2023.1.0,59.98965781598123,
,,,,,,,,,,,,,,,,3,7.800000000000001,10,12.2,0,0,2.1999999999999997,1.7999999999999998,0.4,4.8,10,match,36.05,281,361,440,0,0,9,9,9,0,0,,,,,,,1,0,1,0,0,44,44,39,,,,,,,,,,,,num_3,1.7026649001054466,num_3,0.25,0.4,0.39999999999999997,1.2,15.2822,45.8466,return,3.8996501001529396,,,,,,,,,,,,,,,,,713,23,female,up_down_width,2024-06-04_15h04.08.761,exp1,2023.1.0,59.98965781598123,
,,,,,,,,,,,,,,,,4,9.3,9.766666666666667,10.233333333333333,10.7,0,0.4666666666666667,0.06666666666666665,0.4,1.8,10,match,36.05,335,352,369,386,0,9,9,9,9,0,,,,,,,1,0,1,0,0,45,45,10,,,,,,,,,,,,num_4,1.1529606999829412,num_4,0.2,0.4,0.49999999999999994,0.9,19.10275,34.38495,return,2.9914248001296073,,,,,,,,,,,,,,,,,713,23,female,up_down_width,2024-06-04_15h04.08.761,exp1,2023.1.0,59.98965781598123,
,,,,,,,,,,,,,,,,3,8.2,10,11.8,0,0,1.7999999999999998,1.4,0.4,4,10,match,36.05,296,361,425,0,0,9,9,9,0,0,,,,,,,1,0,1,0,0,46,46,51,,,,,,,,,,,,num_3,0.8458293001167476,num_3,0.4,1.2,0.4,1.2,15.2822,45.8466,return,1.0632923000957817,,,,,,,,,,,,,,,,,713,23,female,up_down_width,2024-06-04_15h04.08.761,exp1,2023.1.0,59.98965781598123,
,,,,,,,,,,,,,,,,5,8.35,9.175,10,10.825,11.65,0.825,0.575,0.25,3.55,10,match,36.05,301,331,361,390,420,9,9,9,9,9,,,,,,,1,0,1,0,0,47,47,20,,,,,,,,,,,,num_5,1.0258394002448767,num_5,0.2,0.6,0.2,0.6,7.6411,22.9233,return,0.910712799988687,,,,,,,,,,,,,,,,,713,23,female,up_down_width,2024-06-04_15h04.08.761,exp1,2023.1.0,59.98965781598123,
,,,,,,,,,,,,,,,,5,8.95,9.475,10,10.525,11.05,0.525,0.275,0.25,2.35,10,match,36.05,323,342,361,379,398,9,9,9,9,9,,,,,,,1,0,1,0,0,48,48,25,,,,,,,,,,,,num_5,0.9182427001651376,num_5,0.5,1.1,0.20000000000000007,0.8,7.6411,30.5644,return,3.469368000049144,,,,,,,,,,,,,,,,,713,23,female,up_down_width,2024-06-04_15h04.08.761,exp1,2023.1.0,59.98965781598123,
,,,,,,,,,,,,,,,,5,7.8,8.9,10,11.1,12.2,1.1,0.55,0.55,4.95,10,initial,36.05,281,321,361,400,440,9,9,9,9,9,,,,,,,1,0,1,0,0,49,49,34,,,,,,,,,,,,num_5,0.8498021003324538,num_5,0.45,1.2,0.45,1.1,17.19248,42.02605,return,1.2328034001402557,,,,,,,,,,,,,,,,,713,23,female,up_down_width,2024-06-04_15h04.08.761,exp1,2023.1.0,59.98965781598123,
,,,,,,,,,,,,,,,,4,9.1,9.7,10.3,10.9,0,0.6000000000000001,0.20000000000000004,0.4,2.2,10,match,36.05,328,350,371,393,0,9,9,9,9,0,,,,,,,1,0,1,0,0,50,50,16,,,,,,,,,,,,num_4,0.8278155000880361,num_4,0.4,0.9,0.4,0.6,15.2822,22.9233,return,1.3666419002693146,,,,,,,,,,,,,,,,,713,23,female,up_down_width,2024-06-04_15h04.08.761,exp1,2023.1.0,59.98965781598123,
,,,,,,,,,,,,,,,,5,8.2,9.1,10,10.9,11.8,0.9,0.65,0.25,3.85,10,initial,36.05,296,328,361,393,425,9,9,9,9,9,,,,,,,1,0,1,0,0,51,51,48,,,,,,,,,,,,num_5,0.8387851000297815,num_5,0.55,1.3,0.25000000000000006,0.9,9.55138,34.38495,return,3.0748934000730515,,,,,,,,,,,,,,,,,713,23,female,up_down_width,2024-06-04_15h04.08.761,exp1,2023.1.0,59.98965781598123,
,,,,,,,,,,,,,,,,,,,,,,,,,,,,,,,,,,,,,,,,,,,,,1,0,1,0,,,,,,,,,,,,,,,,,,,,,,,,,,,,,1404.2799714999273,1404.2799714999273,1404.2799714999273,,,,,,,,,,,,713,23,female,up_down_width,2024-06-04_15h04.08.761,exp1,2023.1.0,59.98965781598123,
,,,,,,,,,,,,,,,,3,8.9,10,11.1,0,0,1.1,0.7000000000000001,0.4,2.6000000000000005,10,initial,36.05,321,361,400,0,0,9,9,9,0,0,,,,,,,2,0,2,0,0,0,0,4,,,,,,,,,,,,num_3,1.5494761001318693,num_3,0.25,1.2,0.65,1.2,24.83358,45.8466,return,2.1837548001203686,,,,,,,,,,,,,,,,,713,23,female,up_down_width,2024-06-04_15h04.08.761,exp1,2023.1.0,59.98965781598123,
,,,,,,,,,,,,,,,,5,8.65,9.325,10,10.675,11.35,0.675,0.42500000000000004,0.25,2.95,10,match,36.05,312,336,361,385,409,9,9,9,9,9,,,,,,,2,0,2,0,0,1,1,31,,,,,,,,,,,,num_5,0.9058460001833737,num_5,0.35,0.5,0.35,0.8,13.37193,30.5644,return,1.6154563000891358,,,,,,,,,,,,,,,,,713,23,female,up_down_width,2024-06-04_15h04.08.761,exp1,2023.1.0,59.98965781598123,
,,,,,,,,,,,,,,,,5,8.6,9.3,10,10.7,11.4,0.7,0.1499999999999999,0.55,3.3499999999999996,10,initial,36.05,310,335,361,386,411,9,9,9,9,9,,,,,,,2,0,2,0,0,2,2,40,,,,,,,,,,,,num_5,0.8554244001861662,num_5,0.25,1.3,0.65,1.1,24.83358,42.02605,return,2.498448200058192,,,,,,,,,,,,,,,,,713,23,female,up_down_width,2024-06-04_15h04.08.761,exp1,2023.1.0,59.98965781598123,
,,,,,,,,,,,,,,,,5,8.65,9.325,10,10.675,11.35,0.675,0.275,0.4,3.1,10,match,36.05,312,336,361,385,409,9,9,9,9,9,,,,,,,2,0,2,0,0,3,3,33,,,,,,,,,,,,num_5,0.7377505002077669,num_5,0.25,0.8,0.25,0.65,9.55138,24.83358,return,1.459366800263524,,,,,,,,,,,,,,,,,713,23,female,up_down_width,2024-06-04_15h04.08.761,exp1,2023.1.0,59.98965781598123,
,,,,,,,,,,,,,,,,5,8.275,9.1375,10,10.8625,11.725,0.8625,0.6125,0.25,3.7,10,match,36.05,298,329,361,392,423,9,9,9,9,9,,,,,,,2,0,2,0,0,4,4,22,,,,,,,,,,,,num_5,0.7472513001412153,num_5,0.4,0.9,0.20000000000000007,0.85,7.6411,32.47468,return,1.73713060002774,,,,,,,,,,,,,,,,,713,23,female,up_down_width,2024-06-04_15h04.08.761,exp1,2023.1.0,59.98965781598123,
,,,,,,,,,,,,,,,,4,8.95,9.65,10.35,11.05,0,0.7,0.29999999999999993,0.4,2.5,10,initial,36.05,323,348,373,398,0,9,9,9,9,0,,,,,,,2,0,2,0,0,5,5,26,,,,,,,,,,,,num_4,0.7499172000680119,num_4,0.55,0.9,0.30000000000000004,0.7,11.46165,26.74385,return,1.4759071001317352,,,,,,,,,,,,,,,,,713,23,female,up_down_width,2024-06-04_15h04.08.761,exp1,2023.1.0,59.98965781598123,
,,,,,,,,,,,,,,,,4,8.825,9.608333333333333,10.391666666666667,11.175,0,0.7833333333333333,0.5333333333333333,0.25,2.6,10,match,36.05,318,346,375,403,0,9,9,9,9,0,,,,,,,2,0,2,0,0,6,6,5,,,,,,,,,,,,num_4,0.8610610000323504,num_4,0.45,1.0,0.35000000000000003,0.7,13.37193,26.74385,return,1.4309573001228273,,,,,,,,,,,,,,,,,713,23,female,up_down_width,2024-06-04_15h04.08.761,exp1,2023.1.0,59.98965781598123,
,,,,,,,,,,,,,,,,3,9.3,10,10.7,0,0,0.7,0.29999999999999993,0.4,1.8,10,initial,36.05,335,361,386,0,0,9,9,9,0,0,,,,,,,2,0,2,0,0,7,7,9,,,,,,,,,,,,num_3,0.9482948000077158,num_3,0.55,1,0.4,0.9,15.2822,34.38495,return,1.5931902001611888,,,,,,,,,,,,,,,,,713,23,female,up_down_width,2024-06-04_15h04.08.761,exp1,2023.1.0,59.98965781598123,
,,,,,,,,,,,,,,,,5,8.65,9.325,10,10.675,11.35,0.675,0.125,0.55,3.25,10,match,36.05,312,336,361,385,409,9,9,9,9,9,,,,,,,2,0,2,0,0,8,8,29,,,,,,,,,,,,num_4,1.7770819999277592,num_4,0.25,1.1,0.5499999999999999,0.9,21.01303,34.38495,return,2.5423615002073348,,,,,,,,,,,,,,,,,713,23,female,up_down_width,2024-06-04_15h04.08.761,exp1,2023.1.0,59.98965781598123,
,,,,,,,,,,,,,,,,4,8.9,9.633333333333333,10.366666666666667,11.1,0,0.7333333333333333,0.18333333333333326,0.55,2.75,10,match,36.05,321,347,374,400,0,9,9,9,9,0,,,,,,,2,0,2,0,0,9,9,1,,,,,,,,,,,,num_4,0.7100896001793444,num_4,0.25,0.9,0.6,0.8,22.9233,30.5644,return,2.4545348999090493,,,,,,,,,,,,,,,,,713,23,female,up_down_width,2024-06-04_15h04.08.761,exp1,2023.1.0,59.98965781598123,
,,,,,,,,,,,,,,,,3,8.9,10,11.1,0,0,1.1,0.8500000000000001,0.25,2.45,10,initial,36.05,321,361,400,0,0,9,9,9,0,0,,,,,,,2,0,2,0,0,10,10,2,,,,,,,,,,,,num_3,0.7905482002533972,num_3,0.3,1,0.3,1,11.46165,38.2055,return,0.7558573000133038,,,,,,,,,,,,,,,,,713,23,female,up_down_width,2024-06-04_15h04.08.761,exp1,2023.1.0,59.98965781598123,
,,,,,,,,,,,,,,,,3,7.8,10,12.2,0,0,2.2,1.9500000000000002,0.25,4.65,10,match,36.05,281,361,440,0,0,9,9,9,0,0,,,,,,,2,0,2,0,0,11,11,37,,,,,,,,,,,,num_3,0.7289403001777828,num_3,0.5,0.7,0.15000000000000008,1.7,5.73083,64.94936,return,5.637190300039947,,,,,,,,,,,,,,,,,713,23,female,up_down_width,2024-06-04_15h04.08.761,exp1,2023.1.0,59.98965781598123,
,,,,,,,,,,,,,,,,4,8.35,9.45,10.55,11.65,0,1.1,0.7000000000000001,0.4,3.7,10,initial,36.05,301,341,380,420,0,9,9,9,9,0,,,,,,,2,0,2,0,0,12,12,21,,,,,,,,,,,,num_4,0.835258400067687,num_4,0.55,0.9,0.35000000000000003,1.0,13.37193,38.2055,return,3.0076297000050545,,,,,,,,,,,,,,,,,713,23,female,up_down_width,2024-06-04_15h04.08.761,exp1,2023.1.0,59.98965781598123,
,,,,,,,,,,,,,,,,4,9.3,9.766666666666667,10.233333333333333,10.7,0,0.4666666666666667,0.21666666666666665,0.25,1.65,10,match,36.05,335,352,369,386,0,9,9,9,9,0,,,,,,,2,0,2,0,0,13,13,8,,,,,,,,,,,,num_3,0.7659355001524091,num_3,0.45,1.1,0.25000000000000006,1.0,9.55138,38.2055,return,2.489771499997005,,,,,,,,,,,,,,,,,713,23,female,up_down_width,2024-06-04_15h04.08.761,exp1,2023.1.0,59.98965781598123,
,,,,,,,,,,,,,,,,4,8.95,9.65,10.35,11.05,0,0.7,0.44999999999999996,0.25,2.3499999999999996,10,initial,36.05,323,348,373,398,0,9,9,9,9,0,,,,,,,2,0,2,0,0,14,14,24,,,,,,,,,,,,num_4,0.9273057002574205,num_4,0.45,0.5,0.10000000000000007,0.9,3.82055,34.38495,return,3.493231700034812,,,,,,,,,,,,,,,,,713,23,female,up_down_width,2024-06-04_15h04.08.761,exp1,2023.1.0,59.98965781598123,
,,,,,,,,,,,,,,,,4,8.9,9.633333333333333,10.366666666666667,11.1,0,0.7333333333333334,0.4833333333333334,0.25,2.45,10,match,36.05,321,347,374,400,0,9,9,9,9,0,,,,,,,2,0,2,0,0,15,15,3,,,,,,,,,,,,num_4,0.8744357000105083,num_4,0.25,0.9,0.25,0.8,9.55138,30.5644,return,1.5099760999437422,,,,,,,,,,,,,,,,,713,23,female,up_down_width,2024-06-04_15h04.08.761,exp1,2023.1.0,59.98965781598123,
,,,,,,,,,,,,,,,,3,7.8,10,12.2,0,0,2.2,1.65,0.55,4.95,10,match,36.05,281,361,440,0,0,9,9,9,0,0,,,,,,,2,0,2,0,0,16,16,35,,,,,,,,,,,,num_3,0.8857460001017898,num_3,0.35,1,0.44999999999999996,1.45,17.19248,55.39798,return,3.649116200162098,,,,,,,,,,,,,,,,,713,23,female,up_down_width,2024-06-04_15h04.08.761,exp1,2023.1.0,59.98965781598123,
,,,,,,,,,,,,,,,,5,7.8,8.9,10,11.1,12.2,1.1,0.55,0.55,4.95,10,initial,36.05,281,321,361,400,440,9,9,9,9,9,,,,,,,2,0,2,0,0,17,17,34,,,,,,,,,,,,num_5,0.845398599980399,num_5,0.3,0.4,0.44999999999999996,1.2,17.19248,45.8466,return,3.960579500067979,,,,,,,,,,,,,,,,,713,23,female,up_down_width,2024-06-04_15h04.08.761,exp1,2023.1.0,59.98965781598123,
,,,,,,,,,,,,,,,,5,8.95,9.475,10,10.525,11.05,0.525,0.275,0.25,2.35,10,match,36.05,323,342,361,379,398,9,9,9,9,9,,,,,,,2,0,2,0,0,18,18,25,,,,,,,,,,,,num_3,2.5256272999104112,num_3,0.5,1.3,0.45,1.3,17.19248,49.66716,return,1.3349983000662178,,,,,,,,,,,,,,,,,713,23,female,up_down_width,2024-06-04_15h04.08.761,exp1,2023.1.0,59.98965781598123,
,,,,,,,,,,,,,,,,4,9.1,9.7,10.3,10.9,0,0.6000000000000001,0.20000000000000004,0.4,2.2,10,match,36.05,328,350,371,393,0,9,9,9,9,0,,,,,,,2,0,2,0,0,19,19,16,,,,,,,,,,,,num_3,0.9121535001322627,num_3,0.35,0.6,0.35,0.6,13.37193,22.9233,return,0.8073018002323806,,,,,,,,,,,,,,,,,713,23,female,up_down_width,2024-06-04_15h04.08.761,exp1,2023.1.0,59.98965781598123,
,,,,,,,,,,,,,,,,3,9.3,10,10.7,0,0,0.7,0.44999999999999996,0.25,1.65,10,initial,36.05,335,361,386,0,0,9,9,9,0,0,,,,,,,2,0,2,0,0,20,20,7,,,,,,,,,,,,num_3,0.7150553001556545,num_3,0.45,0.5,0.10000000000000007,0.5,3.82055,19.10275,return,2.3491040002554655,,,,,,,,,,,,,,,,,713,23,female,up_down_width,2024-06-04_15h04.08.761,exp1,2023.1.0,59.98965781598123,
,,,,,,,,,,,,,,,,5,8.35,9.175,10,10.825,11.65,0.8250000000000001,0.275,0.55,3.85,10,match,36.05,301,331,361,390,420,9,9,9,9,9,,,,,,,2,0,2,0,0,21,21,18,,,,,,,,,,,,num_5,0.8390426002442837,num_5,0.35,1.2,0.35,0.85,13.37193,32.47468,return,1.99883360019885,,,,,,,,,,,,,,,,,713,23,female,up_down_width,2024-06-04_15h04.08.761,exp1,2023.1.0,59.98965781598123,
,,,,,,,,,,,,,,,,4,9.1,9.7,10.3,10.9,0,0.5999999999999999,0.3499999999999999,0.25,2.05,10,match,36.05,328,350,371,393,0,9,9,9,9,0,,,,,,,2,0,2,0,0,22,22,14,,,,,,,,,,,,num_4,1.068693800130859,num_4,0.5,0.6,0.30000000000000004,0.6,11.46165,22.9233,return,1.579045600257814,,,,,,,,,,,,,,,,,713,23,female,up_down_width,2024-06-04_15h04.08.761,exp1,2023.1.0,59.98965781598123,
,,,,,,,,,,,,,,,,5,8.2,9.1,10,10.9,11.8,0.9,0.35,0.55,4.15,10,initial,36.05,296,328,361,393,425,9,9,9,9,9,,,,,,,2,0,2,0,0,23,23,46,,,,,,,,,,,,num_5,0.7799456000793725,num_5,0.5,1.1,0.5,1.1,19.10275,42.02605,return,0.8996280001010746,,,,,,,,,,,,,,,,,713,23,female,up_down_width,2024-06-04_15h04.08.761,exp1,2023.1.0,59.98965781598123,
,,,,,,,,,,,,,,,,5,8.35,9.175,10,10.825,11.65,0.825,0.575,0.25,3.55,10,match,36.05,301,331,361,390,420,9,9,9,9,9,,,,,,,2,0,2,0,0,24,24,20,,,,,,,,,,,,num_4,0.7132008001208305,num_4,0.3,0.4,0.3,0.4,11.46165,15.2822,return,0.5725103002041578,,,,,,,,,,,,,,,,,713,23,female,up_down_width,2024-06-04_15h04.08.761,exp1,2023.1.0,59.98965781598123,
,,,,,,,,,,,,,,,,4,8.65,9.55,10.45,11.35,0,0.9,0.35,0.55,3.25,10,initial,36.05,312,344,377,409,0,9,9,9,9,0,,,,,,,2,0,2,0,0,25,25,28,,,,,,,,,,,,num_4,0.7445378999691457,num_4,0.3,0.5,0.3,0.9,11.46165,34.38495,return,1.2368241001386195,,,,,,,,,,,,,,,,,713,23,female,up_down_width,2024-06-04_15h04.08.761,exp1,2023.1.0,59.98965781598123,
,,,,,,,,,,,,,,,,5,7.8,8.9,10,11.1,12.2,1.1,0.8500000000000001,0.25,4.65,10,initial,36.05,281,321,361,400,440,9,9,9,9,9,,,,,,,2,0,2,0,0,26,26,36,,,,,,,,,,,,num_5,0.7527373000048101,num_5,0.2,0.7,0.2,0.7,7.6411,26.74385,return,0.6893929000943899,,,,,,,,,,,,,,,,,713,23,female,up_down_width,2024-06-04_15h04.08.761,exp1,2023.1.0,59.98965781598123,
,,,,,,,,,,,,,,,,4,9.1,9.7,10.3,10.9,0,0.6,0.04999999999999997,0.55,2.35,10,match,36.05,328,350,371,393,0,9,9,9,9,0,,,,,,,2,0,2,0,0,27,27,12,,,,,,,,,,,,num_4,0.8473139002453536,num_4,0.25,0.6,0.5499999999999999,0.6,21.01303,22.9233,return,3.0207684002816677,,,,,,,,,,,,,,,,,713,23,female,up_down_width,2024-06-04_15h04.08.761,exp1,2023.1.0,59.98965781598123,
,,,,,,,,,,,,,,,,4,8.65,9.55,10.45,11.35,0,0.9,0.65,0.25,2.95,10,initial,36.05,312,344,377,409,0,9,9,9,9,0,,,,,,,2,0,2,0,0,28,28,30,,,,,,,,,,,,num_4,0.8060838002711535,num_4,0.2,1.0,0.2,1.0,7.6411,38.2055,return,0.6567358002066612,,,,,,,,,,,,,,,,,713,23,female,up_down_width,2024-06-04_15h04.08.761,exp1,2023.1.0,59.98965781598123,
,,,,,,,,,,,,,,,,3,8.2,10,11.8,0,0,1.8,1.55,0.25,3.85,10,match,36.05,296,361,425,0,0,9,9,9,0,0,,,,,,,2,0,2,0,0,29,29,49,,,,,,,,,,,,num_3,1.0529891001060605,num_3,0.35,1.2,0.15000000000000002,1.2,5.73083,45.8466,return,1.6277197001036257,,,,,,,,,,,,,,,,,713,23,female,up_down_width,2024-06-04_15h04.08.761,exp1,2023.1.0,59.98965781598123,
,,,,,,,,,,,,,,,,3,8.9,10,11.1,0,0,1.1,0.55,0.55,2.75,10,initial,36.05,321,361,400,0,0,9,9,9,0,0,,,,,,,2,0,2,0,0,30,30,0,,,,,,,,,,,,num_3,0.8184555000625551,num_3,0.3,0.9,0.5499999999999999,0.9,21.01303,34.38495,return,1.6764656000304967,,,,,,,,,,,,,,,,,713,23,female,up_down_width,2024-06-04_15h04.08.761,exp1,2023.1.0,59.98965781598123,
,,,,,,,,,,,,,,,,3,7.800000000000001,10,12.2,0,0,2.1999999999999997,1.7999999999999998,0.4,4.8,10,match,36.05,281,361,440,0,0,9,9,9,0,0,,,,,,,2,0,2,0,0,31,31,39,,,,,,,,,,,,num_3,0.731002900050953,num_3,0.5,0.7,0.5,1.65,19.10275,63.03908,return,4.107654300052673,,,,,,,,,,,,,,,,,713,23,female,up_down_width,2024-06-04_15h04.08.761,exp1,2023.1.0,59.98965781598123,
,,,,,,,,,,,,,,,,5,8.6,9.3,10,10.7,11.4,0.7,0.44999999999999996,0.25,3.05,10,initial,36.05,310,335,361,386,411,9,9,9,9,9,,,,,,,2,0,2,0,0,32,32,42,,,,,,,,,,,,num_5,0.8752341000363231,num_5,0.35,1.1,0.25,1.1,9.55138,42.02605,return,1.2385689001530409,,,,,,,,,,,,,,,,,713,23,female,up_down_width,2024-06-04_15h04.08.761,exp1,2023.1.0,59.98965781598123,
,,,,,,,,,,,,,,,,3,8.6,10,11.4,0,0,1.4,0.85,0.55,3.35,10,match,36.05,310,361,411,0,0,9,9,9,0,0,,,,,,,2,0,2,0,0,33,33,41,,,,,,,,,,,,num_3,0.7289335001260042,num_3,0.2,0.7,0.6,1.4,22.9233,53.48771,return,4.362837300170213,,,,,,,,,,,,,,,,,713,23,female,up_down_width,2024-06-04_15h04.08.761,exp1,2023.1.0,59.98965781598123,
,,,,,,,,,,,,,,,,4,8.65,9.55,10.45,11.35,0,0.9,0.5,0.4,3.1,10,initial,36.05,312,344,377,409,0,9,9,9,9,0,,,,,,,2,0,2,0,0,34,34,32,,,,,,,,,,,,num_4,0.8689479001332074,num_4,0.2,1.1,0.44999999999999996,1.1,17.19248,42.02605,return,1.7881771002430469,,,,,,,,,,,,,,,,,713,23,female,up_down_width,2024-06-04_15h04.08.761,exp1,2023.1.0,59.98965781598123,
,,,,,,,,,,,,,,,,3,9.3,10,10.7,0,0,0.7,0.1499999999999999,0.55,1.95,10,initial,36.05,335,361,386,0,0,9,9,9,0,0,,,,,,,2,0,2,0,0,35,35,6,,,,,,,,,,,,num_3,0.7110406002029777,num_3,0.3,1.2,0.7500000000000001,1.2,28.65413,45.8466,return,2.4853448001667857,,,,,,,,,,,,,,,,,713,23,female,up_down_width,2024-06-04_15h04.08.761,exp1,2023.1.0,59.98965781598123,
,,,,,,,,,,,,,,,,3,8.6,10,11.4,0,0,1.4,1.15,0.25,3.05,10,match,36.05,310,361,411,0,0,9,9,9,0,0,,,,,,,2,0,2,0,0,36,36,43,,,,,,,,,,,,num_3,0.7012141000013798,num_3,0.3,1.3,0.2,1.3,7.6411,49.66716,return,1.2451177001930773,,,,,,,,,,,,,,,,,713,23,female,up_down_width,2024-06-04_15h04.08.761,exp1,2023.1.0,59.98965781598123,
,,,,,,,,,,,,,,,,3,8.2,10,11.8,0,0,1.8,1.25,0.55,4.15,10,match,36.05,296,361,425,0,0,9,9,9,0,0,,,,,,,2,0,2,0,0,37,37,47,,,,,,,,,,,,num_3,0.6824211999773979,num_3,0.55,0.8,0.55,1.85,21.01303,70.68018,return,4.2545726001262665,,,,,,,,,,,,,,,,,713,23,female,up_down_width,2024-06-04_15h04.08.761,exp1,2023.1.0,59.98965781598123,
,,,,,,,,,,,,,,,,4,8.35,9.45,10.55,11.65,0,1.1,0.8500000000000001,0.25,3.5500000000000003,10,initial,36.05,301,341,380,420,0,9,9,9,9,0,,,,,,,2,0,2,0,0,38,38,19,,,,,,,,,,,,num_4,0.987883300287649,num_4,0.35,1.3,0.35,1.5,13.37193,57.30826,return,2.111892000073567,,,,,,,,,,,,,,,,,713,23,female,up_down_width,2024-06-04_15h04.08.761,exp1,2023.1.0,59.98965781598123,
,,,,,,,,,,,,,,,,4,8.95,9.65,10.35,11.05,0,0.7,0.1499999999999999,0.55,2.65,10,initial,36.05,323,348,373,398,0,9,9,9,9,0,,,,,,,2,0,2,0,0,39,39,23,,,,,,,,,,,,num_4,0.8815993999596685,num_4,0.5,0.6,0.5,0.8,19.10275,30.5644,return,1.2577135001774877,,,,,,,,,,,,,,,,,713,23,female,up_down_width,2024-06-04_15h04.08.761,exp1,2023.1.0,59.98965781598123,
,,,,,,,,,,,,,,,,3,9.1,10,10.9,0,0,0.9,0.5,0.4,2.2,10,initial,36.05,328,361,393,0,0,9,9,9,0,0,,,,,,,2,0,2,0,0,40,40,15,,,,,,,,,,,,num_3,1.0325599999632686,num_3,0.35,1,0.39999999999999997,0.95,15.2822,36.29523,return,2.3149591002147645,,,,,,,,,,,,,,,,,713,23,female,up_down_width,2024-06-04_15h04.08.761,exp1,2023.1.0,59.98965781598123,
,,,,,,,,,,,,,,,,3,8.2,10,11.8,0,0,1.7999999999999998,1.4,0.4,4,10,match,36.05,296,361,425,0,0,9,9,9,0,0,,,,,,,2,0,2,0,0,41,41,51,,,,,,,,,,,,num_4,1.7041881999466568,num_4,0.25,0.4,0.3,1.2,11.46165,45.8466,return,3.2283535001333803,,,,,,,,,,,,,,,,,713,23,female,up_down_width,2024-06-04_15h04.08.761,exp1,2023.1.0,59.98965781598123,
,,,,,,,,,,,,,,,,4,9.3,9.766666666666667,10.233333333333333,10.7,0,0.4666666666666667,0.06666666666666665,0.4,1.8,10,match,36.05,335,352,369,386,0,9,9,9,9,0,,,,,,,2,0,2,0,0,42,42,10,,,,,,,,,,,,num_4,0.8161917000543326,num_4,0.25,0.7,0.25,0.4,9.55138,15.2822,return,1.469741600099951,,,,,,,,,,,,,,,,,713,23,female,up_down_width,2024-06-04_15h04.08.761,exp1,2023.1.0,59.98965781598123,
,,,,,,,,,,,,,,,,3,8.525,10,11.475,0,0,1.475,1.225,0.25,3.2,10,match,36.05,307,361,414,0,0,9,9,9,0,0,,,,,,,2,0,2,0,0,43,43,45,,,,,,,,,,,,num_3,1.0438010001089424,num_3,0.35,1.3,0.15000000000000002,1.3,5.73083,49.66716,return,1.5558436000719666,,,,,,,,,,,,,,,,,713,23,female,up_down_width,2024-06-04_15h04.08.761,exp1,2023.1.0,59.98965781598123,
,,,,,,,,,,,,,,,,5,7.8,8.9,10,11.1,12.2,1.1,0.7000000000000001,0.4,4.800000000000001,10,initial,36.05,281,321,361,400,440,9,9,9,9,9,,,,,,,2,0,2,0,0,44,44,38,,,,,,,,,,,,num_5,0.8207105002366006,num_5,0.2,1.2,0.2,0.8,7.6411,30.5644,return,2.210674400208518,,,,,,,,,,,,,,,,,713,23,female,up_down_width,2024-06-04_15h04.08.761,exp1,2023.1.0,59.98965781598123,
,,,,,,,,,,,,,,,,5,8.95,9.475,10,10.525,11.05,0.525,0.125,0.4,2.5,10,match,36.05,323,342,361,379,398,9,9,9,9,9,,,,,,,2,0,2,0,0,45,45,27,,,,,,,,,,,,num_5,0.8398657001089305,num_5,0.4,1.0,0.4,0.75,15.2822,28.65413,return,1.6459900999907404,,,,,,,,,,,,,,,,,713,23,female,up_down_width,2024-06-04_15h04.08.761,exp1,2023.1.0,59.98965781598123,
,,,,,,,,,,,,,,,,3,9.1,10,10.9,0,0,0.9,0.65,0.25,2.05,10,initial,36.05,328,361,393,0,0,9,9,9,0,0,,,,,,,2,0,2,0,0,46,46,13,,,,,,,,,,,,num_2,1.1086622001603246,num_2,0.35,1.0,0.35,1.0,13.37193,38.2055,return,1.5735981001053005,,,,,,,,,,,,,,,,,713,23,female,up_down_width,2024-06-04_15h04.08.761,exp1,2023.1.0,59.98965781598123,
,,,,,,,,,,,,,,,,5,8.2,9.1,10,10.9,11.8,0.9,0.5,0.4,4,10,initial,36.05,296,328,361,393,425,9,9,9,9,9,,,,,,,2,0,2,0,0,47,47,50,,,,,,,,,,,,num_5,0.7053182001691312,num_5,0.3,1.0,0.3,0.75,11.46165,28.65413,return,1.264501300174743,,,,,,,,,,,,,,,,,713,23,female,up_down_width,2024-06-04_15h04.08.761,exp1,2023.1.0,59.98965781598123,
,,,,,,,,,,,,,,,,4,8.35,9.45,10.55,11.65,0,1.1,0.55,0.55,3.8500000000000005,10,initial,36.05,301,341,380,420,0,9,9,9,9,0,,,,,,,2,0,2,0,0,48,48,17,,,,,,,,,,,,num_4,0.7662249002605677,num_4,0.55,0.6,0.55,1.3,21.01303,49.66716,return,2.4938797000795603,,,,,,,,,,,,,,,,,713,23,female,up_down_width,2024-06-04_15h04.08.761,exp1,2023.1.0,59.98965781598123,
,,,,,,,,,,,,,,,,5,8.6,9.3,10,10.7,11.4,0.7,0.29999999999999993,0.4,3.1999999999999997,10,initial,36.05,310,335,361,386,411,9,9,9,9,9,,,,,,,2,0,2,0,0,49,49,44,,,,,,,,,,,,num_5,0.7952676001004875,num_5,0.55,1.1,0.55,0.95,21.01303,36.29523,return,1.1306125002447516,,,,,,,,,,,,,,,,,713,23,female,up_down_width,2024-06-04_15h04.08.761,exp1,2023.1.0,59.98965781598123,
,,,,,,,,,,,,,,,,3,9.1,10,10.9,0,0,0.9,0.35,0.55,2.35,10,initial,36.05,328,361,393,0,0,9,9,9,0,0,,,,,,,2,0,2,0,0,50,50,11,,,,,,,,,,,,num_3,0.7638434001710266,num_3,0.5,1.1,0.5,0.95,19.10275,36.29523,return,1.8276552001480013,,,,,,,,,,,,,,,,,713,23,female,up_down_width,2024-06-04_15h04.08.761,exp1,2023.1.0,59.98965781598123,
,,,,,,,,,,,,,,,,5,8.2,9.1,10,10.9,11.8,0.9,0.65,0.25,3.85,10,initial,36.05,296,328,361,393,425,9,9,9,9,9,,,,,,,2,0,2,0,0,51,51,48,,,,,,,,,,,,num_5,0.725877100136131,num_5,0.3,1.3,0.3,1.0,11.46165,38.2055,return,2.312032800167799,,,,,,,,,,,,,,,,,713,23,female,up_down_width,2024-06-04_15h04.08.761,exp1,2023.1.0,59.98965781598123,
,,,,,,,,,,,,,,,,,,,,,,,,,,,,,,,,,,,,,,,,,,,,,2,0,2,0,,,,,,,,,,,,,,,,,,,,,,,,,,,,,1763.8134176000021,1763.8134176000021,1763.8134176000021,,,,,,,,,,,,713,23,female,up_down_width,2024-06-04_15h04.08.761,exp1,2023.1.0,59.98965781598123,
,,,,,,,,,,,,,,,,5,8.2,9.1,10,10.9,11.8,0.9,0.65,0.25,3.85,10,initial,36.05,296,328,361,393,425,9,9,9,9,9,,,,,,,3,0,3,0,0,0,0,48,,,,,,,,,,,,num_4,1.058053100015968,num_4,0.25,0.3,0.25,1.2,9.55138,45.8466,return,3.1872459000442177,,,,,,,,,,,,,,,,,713,23,female,up_down_width,2024-06-04_15h04.08.761,exp1,2023.1.0,59.98965781598123,
,,,,,,,,,,,,,,,,4,8.65,9.55,10.45,11.35,0,0.9,0.35,0.55,3.25,10,initial,36.05,312,344,377,409,0,9,9,9,9,0,,,,,,,3,0,3,0,0,1,1,28,,,,,,,,,,,,num_4,0.8240316999144852,num_4,0.4,1.1,0.5,1.0,19.10275,38.2055,return,2.3704530000686646,,,,,,,,,,,,,,,,,713,23,female,up_down_width,2024-06-04_15h04.08.761,exp1,2023.1.0,59.98965781598123,
,,,,,,,,,,,,,,,,3,9.3,10,10.7,0,0,0.7,0.1499999999999999,0.55,1.95,10,initial,36.05,335,361,386,0,0,9,9,9,0,0,,,,,,,3,0,3,0,0,2,2,6,,,,,,,,,,,,num_3,0.911866300040856,num_3,0.3,0.6,0.5499999999999999,0.7,21.01303,26.74385,return,2.2022633999586105,,,,,,,,,,,,,,,,,713,23,female,up_down_width,2024-06-04_15h04.08.761,exp1,2023.1.0,59.98965781598123,
,,,,,,,,,,,,,,,,3,7.8,10,12.2,0,0,2.2,1.65,0.55,4.95,10,match,36.05,281,361,440,0,0,9,9,9,0,0,,,,,,,3,0,3,0,0,3,3,35,,,,,,,,,,,,num_3,0.6623174000997096,num_3,0.35,0.6,0.6,1.45,22.9233,55.39798,return,4.260429400252178,,,,,,,,,,,,,,,,,713,23,female,up_down_width,2024-06-04_15h04.08.761,exp1,2023.1.0,59.98965781598123,
,,,,,,,,,,,,,,,,4,8.35,9.45,10.55,11.65,0,1.1,0.55,0.55,3.8500000000000005,10,initial,36.05,301,341,380,420,0,9,9,9,9,0,,,,,,,3,0,3,0,0,4,4,17,,,,,,,,,,,,num_4,0.7104105001781136,num_4,0.2,0.8,0.5499999999999999,1.1,21.01303,42.02605,return,3.6729751001112163,,,,,,,,,,,,,,,,,713,23,female,up_down_width,2024-06-04_15h04.08.761,exp1,2023.1.0,59.98965781598123,
,,,,,,,,,,,,,,,,4,9.3,9.766666666666667,10.233333333333333,10.7,0,0.4666666666666667,0.06666666666666665,0.4,1.8,10,match,36.05,335,352,369,386,0,9,9,9,9,0,,,,,,,3,0,3,0,0,5,5,10,,,,,,,,,,,,num_3,1.471921999938786,num_3,0.45,1.3,0.30000000000000004,0.5,11.46165,19.10275,return,4.291247999994084,,,,,,,,,,,,,,,,,713,23,female,up_down_width,2024-06-04_15h04.08.761,exp1,2023.1.0,59.98965781598123,
,,,,,,,,,,,,,,,,5,8.6,9.3,10,10.7,11.4,0.7,0.44999999999999996,0.25,3.05,10,initial,36.05,310,335,361,386,411,9,9,9,9,9,,,,,,,3,0,3,0,0,6,6,42,,,,,,,,,,,,num_5,0.7957461001351476,num_5,0.3,1.3,0.25,0.65,9.55138,24.83358,return,3.347271899925545,,,,,,,,,,,,,,,,,713,23,female,up_down_width,2024-06-04_15h04.08.761,exp1,2023.1.0,59.98965781598123,
,,,,,,,,,,,,,,,,5,8.65,9.325,10,10.675,11.35,0.675,0.42500000000000004,0.25,2.95,10,match,36.05,312,336,361,385,409,9,9,9,9,9,,,,,,,3,0,3,0,0,7,7,31,,,,,,,,,,,,num_4,0.766022700117901,num_4,0.55,1.1,0.20000000000000007,0.6,7.6411,22.9233,return,3.194415200036019,,,,,,,,,,,,,,,,,713,23,female,up_down_width,2024-06-04_15h04.08.761,exp1,2023.1.0,59.98965781598123,
,,,,,,,,,,,,,,,,4,8.35,9.45,10.55,11.65,0,1.1,0.7000000000000001,0.4,3.7,10,initial,36.05,301,341,380,420,0,9,9,9,9,0,,,,,,,3,0,3,0,0,8,8,21,,,,,,,,,,,,num_4,1.146453000139445,num_4,0.3,1.3,0.3,1.3,11.46165,49.66716,return,0.6977289000060409,,,,,,,,,,,,,,,,,713,23,female,up_down_width,2024-06-04_15h04.08.761,exp1,2023.1.0,59.98965781598123,
,,,,,,,,,,,,,,,,4,8.9,9.633333333333333,10.366666666666667,11.1,0,0.7333333333333334,0.4833333333333334,0.25,2.45,10,match,36.05,321,347,374,400,0,9,9,9,9,0,,,,,,,3,0,3,0,0,9,9,3,,,,,,,,,,,,num_4,0.765929999994114,num_4,0.35,0.6,0.35,0.6,13.37193,22.9233,return,0.7782378001138568,,,,,,,,,,,,,,,,,713,23,female,up_down_width,2024-06-04_15h04.08.761,exp1,2023.1.0,59.98965781598123,
,,,,,,,,,,,,,,,,3,8.525,10,11.475,0,0,1.475,1.225,0.25,3.2,10,match,36.05,307,361,414,0,0,9,9,9,0,0,,,,,,,3,0,3,0,0,10,10,45,,,,,,,,,,,,num_3,0.7553208000026643,num_3,0.35,1.1,0.35,1.1,13.37193,42.02605,return,0.7346002000849694,,,,,,,,,,,,,,,,,713,23,female,up_down_width,2024-06-04_15h04.08.761,exp1,2023.1.0,59.98965781598123,
,,,,,,,,,,,,,,,,4,9.1,9.7,10.3,10.9,0,0.6000000000000001,0.20000000000000004,0.4,2.2,10,match,36.05,328,350,371,393,0,9,9,9,9,0,,,,,,,3,0,3,0,0,11,11,16,,,,,,,,,,,,num_4,0.79059540014714,num_4,0.5,1.0,0.5,1.0,19.10275,38.2055,return,0.6717189000919461,,,,,,,,,,,,,,,,,713,23,female,up_down_width,2024-06-04_15h04.08.761,exp1,2023.1.0,59.98965781598123,
,,,,,,,,,,,,,,,,5,7.8,8.9,10,11.1,12.2,1.1,0.8500000000000001,0.25,4.65,10,initial,36.05,281,321,361,400,440,9,9,9,9,9,,,,,,,3,0,3,0,0,12,12,36,,,,,,,,,,,,num_4,0.8084197000134736,num_4,0.5,1.3,0.30000000000000004,1.3,11.46165,49.66716,return,1.5698417001403868,,,,,,,,,,,,,,,,,713,23,female,up_down_width,2024-06-04_15h04.08.761,exp1,2023.1.0,59.98965781598123,
,,,,,,,,,,,,,,,,3,9.1,10,10.9,0,0,0.9,0.65,0.25,2.05,10,initial,36.05,328,361,393,0,0,9,9,9,0,0,,,,,,,3,0,3,0,0,13,13,13,,,,,,,,,,,,num_3,0.776716300053522,num_3,0.55,1.3,0.25000000000000006,1.3,9.55138,49.66716,return,1.8972178001422435,,,,,,,,,,,,,,,,,713,23,female,up_down_width,2024-06-04_15h04.08.761,exp1,2023.1.0,59.98965781598123,
,,,,,,,,,,,,,,,,5,8.95,9.475,10,10.525,11.05,0.525,0.275,0.25,2.35,10,match,36.05,323,342,361,379,398,9,9,9,9,9,,,,,,,3,0,3,0,0,14,14,25,,,,,,,,,,,,num_4,0.7258030001539737,num_4,0.3,0.7,0.3,0.6,11.46165,22.9233,return,1.121488800039515,,,,,,,,,,,,,,,,,713,23,female,up_down_width,2024-06-04_15h04.08.761,exp1,2023.1.0,59.98965781598123,
,,,,,,,,,,,,,,,,5,8.65,9.325,10,10.675,11.35,0.675,0.275,0.4,3.1,10,match,36.05,312,336,361,385,409,9,9,9,9,9,,,,,,,3,0,3,0,0,15,15,33,,,,,,,,,,,,num_4,0.8301429999992251,num_4,0.25,1.3,0.39999999999999997,0.8,15.2822,30.5644,return,2.140707900049165,,,,,,,,,,,,,,,,,713,23,female,up_down_width,2024-06-04_15h04.08.761,exp1,2023.1.0,59.98965781598123,
,,,,,,,,,,,,,,,,4,9.1,9.7,10.3,10.9,0,0.5999999999999999,0.3499999999999999,0.25,2.05,10,match,36.05,328,350,371,393,0,9,9,9,9,0,,,,,,,3,0,3,0,0,16,16,14,,,,,,,,,,,,num_3,0.8071761003229767,num_3,0.3,0.5,0.3,0.7,11.46165,26.74385,return,2.4972553001716733,,,,,,,,,,,,,,,,,713,23,female,up_down_width,2024-06-04_15h04.08.761,exp1,2023.1.0,59.98965781598123,
,,,,,,,,,,,,,,,,3,8.2,10,11.8,0,0,1.7999999999999998,1.4,0.4,4,10,match,36.05,296,361,425,0,0,9,9,9,0,0,,,,,,,3,0,3,0,0,17,17,51,,,,,,,,,,,,num_3,0.7321488000452518,num_3,0.4,0.5,0.4,1.5,15.2822,57.30826,return,5.128612800035626,,,,,,,,,,,,,,,,,713,23,female,up_down_width,2024-06-04_15h04.08.761,exp1,2023.1.0,59.98965781598123,
,,,,,,,,,,,,,,,,4,8.65,9.55,10.45,11.35,0,0.9,0.65,0.25,2.95,10,initial,36.05,312,344,377,409,0,9,9,9,9,0,,,,,,,3,0,3,0,0,18,18,30,,,,,,,,,,,,num_4,0.8174610999412835,num_4,0.4,0.6,0.15000000000000008,1.4,5.73083,53.48771,return,5.036480200011283,,,,,,,,,,,,,,,,,713,23,female,up_down_width,2024-06-04_15h04.08.761,exp1,2023.1.0,59.98965781598123,
,,,,,,,,,,,,,,,,3,8.9,10,11.1,0,0,1.1,0.7000000000000001,0.4,2.6000000000000005,10,initial,36.05,321,361,400,0,0,9,9,9,0,0,,,,,,,3,0,3,0,0,19,19,4,,,,,,,,,,,,num_3,0.8023580000735819,num_3,0.3,0.7,0.3,1.05,11.46165,40.11578,return,1.996587899979204,,,,,,,,,,,,,,,,,713,23,female,up_down_width,2024-06-04_15h04.08.761,exp1,2023.1.0,59.98965781598123,
,,,,,,,,,,,,,,,,4,8.95,9.65,10.35,11.05,0,0.7,0.1499999999999999,0.55,2.65,10,initial,36.05,323,348,373,398,0,9,9,9,9,0,,,,,,,3,0,3,0,0,20,20,23,,,,,,,,,,,,num_3,0.8103972002863884,num_3,0.5,1,0.8500000000000003,1.05,32.47468,40.11578,return,2.0656664001289755,,,,,,,,,,,,,,,,,713,23,female,up_down_width,2024-06-04_15h04.08.761,exp1,2023.1.0,59.98965781598123,
,,,,,,,,,,,,,,,,5,8.95,9.475,10,10.525,11.05,0.525,0.125,0.4,2.5,10,match,36.05,323,342,361,379,398,9,9,9,9,9,,,,,,,3,0,3,0,0,21,21,27,,,,,,,,,,,,num_5,0.8579742000438273,num_5,0.25,0.4,0.35,0.5,13.37193,19.10275,return,3.0939915000926703,,,,,,,,,,,,,,,,,713,23,female,up_down_width,2024-06-04_15h04.08.761,exp1,2023.1.0,59.98965781598123,
,,,,,,,,,,,,,,,,5,8.35,9.175,10,10.825,11.65,0.8250000000000001,0.275,0.55,3.85,10,match,36.05,301,331,361,390,420,9,9,9,9,9,,,,,,,3,0,3,0,0,22,22,18,,,,,,,,,,,,num_5,0.7159236001316458,num_5,0.2,1.1,0.65,1.1,24.83358,42.02605,return,3.1625315002165735,,,,,,,,,,,,,,,,,713,23,female,up_down_width,2024-06-04_15h04.08.761,exp1,2023.1.0,59.98965781598123,
,,,,,,,,,,,,,,,,3,9.1,10,10.9,0,0,0.9,0.35,0.55,2.35,10,initial,36.05,328,361,393,0,0,9,9,9,0,0,,,,,,,3,0,3,0,0,23,23,11,,,,,,,,,,,,num_3,0.8163780001923442,num_3,0.25,0.9,0.5499999999999999,0.9,21.01303,34.38495,return,2.7989702001214027,,,,,,,,,,,,,,,,,713,23,female,up_down_width,2024-06-04_15h04.08.761,exp1,2023.1.0,59.98965781598123,
,,,,,,,,,,,,,,,,4,9.1,9.7,10.3,10.9,0,0.6,0.04999999999999997,0.55,2.35,10,match,36.05,328,350,371,393,0,9,9,9,9,0,,,,,,,3,0,3,0,0,24,24,12,,,,,,,,,,,,num_4,0.8825896000489593,num_4,0.5,1.2,0.8500000000000003,1.2,32.47468,45.8466,return,1.627947400091216,,,,,,,,,,,,,,,,,713,23,female,up_down_width,2024-06-04_15h04.08.761,exp1,2023.1.0,59.98965781598123,
,,,,,,,,,,,,,,,,5,7.8,8.9,10,11.1,12.2,1.1,0.7000000000000001,0.4,4.800000000000001,10,initial,36.05,281,321,361,400,440,9,9,9,9,9,,,,,,,3,0,3,0,0,25,25,38,,,,,,,,,,,,num_5,0.8328869000542909,num_5,0.2,1.0,0.5499999999999999,1.0,21.01303,38.2055,return,2.1906849001534283,,,,,,,,,,,,,,,,,713,23,female,up_down_width,2024-06-04_15h04.08.761,exp1,2023.1.0,59.98965781598123,
,,,,,,,,,,,,,,,,3,8.9,10,11.1,0,0,1.1,0.55,0.55,2.75,10,initial,36.05,321,361,400,0,0,9,9,9,0,0,,,,,,,3,0,3,0,0,26,26,0,,,,,,,,,,,,num_3,0.8639720999635756,num_3,0.3,0.7,0.35,0.8,13.37193,30.5644,return,1.7503577000461519,,,,,,,,,,,,,,,,,713,23,female,up_down_width,2024-06-04_15h04.08.761,exp1,2023.1.0,59.98965781598123,
,,,,,,,,,,,,,,,,3,8.6,10,11.4,0,0,1.4,1.15,0.25,3.05,10,match,36.05,310,361,411,0,0,9,9,9,0,0,,,,,,,3,0,3,0,0,27,27,43,,,,,,,,,,,,num_2,0.6540267001837492,num_2,0.2,0.8,0.2,0.8,7.6411,30.5644,return,1.4218109000939876,,,,,,,,,,,,,,,,,713,23,female,up_down_width,2024-06-04_15h04.08.761,exp1,2023.1.0,59.98965781598123,
,,,,,,,,,,,,,,,,3,8.6,10,11.4,0,0,1.4,0.85,0.55,3.35,10,match,36.05,310,361,411,0,0,9,9,9,0,0,,,,,,,3,0,3,0,0,28,28,41,,,,,,,,,,,,num_3,0.839329699985683,num_3,0.2,0.4,0.6,1.25,22.9233,47.75688,return,6.400409700116143,,,,,,,,,,,,,,,,,713,23,female,up_down_width,2024-06-04_15h04.08.761,exp1,2023.1.0,59.98965781598123,
,,,,,,,,,,,,,,,,4,8.35,9.45,10.55,11.65,0,1.1,0.8500000000000001,0.25,3.5500000000000003,10,initial,36.05,301,341,380,420,0,9,9,9,9,0,,,,,,,3,0,3,0,0,29,29,19,,,,,,,,,,,,num_4,1.1735431000124663,num_4,0.3,0.3,0.3,0.8,11.46165,30.5644,return,3.1530965003184974,,,,,,,,,,,,,,,,,713,23,female,up_down_width,2024-06-04_15h04.08.761,exp1,2023.1.0,59.98965781598123,
,,,,,,,,,,,,,,,,3,9.3,10,10.7,0,0,0.7,0.29999999999999993,0.4,1.8,10,initial,36.05,335,361,386,0,0,9,9,9,0,0,,,,,,,3,0,3,0,0,30,30,9,,,,,,,,,,,,num_2,0.9899754000362009,num_2,0.3,0.8,0.3,0.8,11.46165,30.5644,return,0.8311492002103478,,,,,,,,,,,,,,,,,713,23,female,up_down_width,2024-06-04_15h04.08.761,exp1,2023.1.0,59.98965781598123,
,,,,,,,,,,,,,,,,5,8.65,9.325,10,10.675,11.35,0.675,0.125,0.55,3.25,10,match,36.05,312,336,361,385,409,9,9,9,9,9,,,,,,,3,0,3,0,0,31,31,29,,,,,,,,,,,,num_4,0.7493644002825022,num_4,0.25,0.4,0.39999999999999997,0.7,15.2822,26.74385,return,2.5107082000467926,,,,,,,,,,,,,,,,,713,23,female,up_down_width,2024-06-04_15h04.08.761,exp1,2023.1.0,59.98965781598123,
,,,,,,,,,,,,,,,,5,8.275,9.1375,10,10.8625,11.725,0.8625,0.6125,0.25,3.7,10,match,36.05,298,329,361,392,423,9,9,9,9,9,,,,,,,3,0,3,0,0,32,32,22,,,,,,,,,,,,num_4,0.8020452002529055,num_4,0.25,0.5,0.25,1.2,9.55138,45.8466,return,1.6964884002227336,,,,,,,,,,,,,,,,,713,23,female,up_down_width,2024-06-04_15h04.08.761,exp1,2023.1.0,59.98965781598123,
,,,,,,,,,,,,,,,,3,8.2,10,11.8,0,0,1.8,1.25,0.55,4.15,10,match,36.05,296,361,425,0,0,9,9,9,0,0,,,,,,,3,0,3,0,0,33,33,47,,,,,,,,,,,,num_3,0.815993000054732,num_3,0.2,1.2,0.7500000000000001,1.8,28.65413,68.76991,return,4.874486500164494,,,,,,,,,,,,,,,,,713,23,female,up_down_width,2024-06-04_15h04.08.761,exp1,2023.1.0,59.98965781598123,
,,,,,,,,,,,,,,,,4,8.9,9.633333333333333,10.366666666666667,11.1,0,0.7333333333333333,0.18333333333333326,0.55,2.75,10,match,36.05,321,347,374,400,0,9,9,9,9,0,,,,,,,3,0,3,0,0,34,34,1,,,,,,,,,,,,num_4,0.7654786000493914,num_4,0.25,0.3,0.49999999999999994,1.1,19.10275,42.02605,return,3.5814006000291556,,,,,,,,,,,,,,,,,713,23,female,up_down_width,2024-06-04_15h04.08.761,exp1,2023.1.0,59.98965781598123,
,,,,,,,,,,,,,,,,3,8.9,10,11.1,0,0,1.1,0.8500000000000001,0.25,2.45,10,initial,36.05,321,361,400,0,0,9,9,9,0,0,,,,,,,3,0,3,0,0,35,35,2,,,,,,,,,,,,num_3,0.9891771001275629,num_3,0.5,1.1,0.25000000000000006,1.1,9.55138,42.02605,return,3.2991692000068724,,,,,,,,,,,,,,,,,713,23,female,up_down_width,2024-06-04_15h04.08.761,exp1,2023.1.0,59.98965781598123,
,,,,,,,,,,,,,,,,4,8.95,9.65,10.35,11.05,0,0.7,0.29999999999999993,0.4,2.5,10,initial,36.05,323,348,373,398,0,9,9,9,9,0,,,,,,,3,0,3,0,0,36,36,26,,,,,,,,,,,,num_4,0.7561667000409216,num_4,0.45,1.1,0.35000000000000003,0.7,13.37193,26.74385,return,2.0012632000725716,,,,,,,,,,,,,,,,,713,23,female,up_down_width,2024-06-04_15h04.08.761,exp1,2023.1.0,59.98965781598123,
,,,,,,,,,,,,,,,,3,7.8,10,12.2,0,0,2.2,1.9500000000000002,0.25,4.65,10,match,36.05,281,361,440,0,0,9,9,9,0,0,,,,,,,3,0,3,0,0,37,37,37,,,,,,,,,,,,num_4,0.8913982000667602,num_4,0.3,0.8,0.25,1.2,9.55138,45.8466,return,1.5199290001764894,,,,,,,,,,,,,,,,,713,23,female,up_down_width,2024-06-04_15h04.08.761,exp1,2023.1.0,59.98965781598123,
,,,,,,,,,,,,,,,,4,9.3,9.766666666666667,10.233333333333333,10.7,0,0.4666666666666667,0.21666666666666665,0.25,1.65,10,match,36.05,335,352,369,386,0,9,9,9,9,0,,,,,,,3,0,3,0,0,38,38,8,,,,,,,,,,,,num_4,1.024558100150898,num_4,0.4,0.6,0.20000000000000007,0.4,7.6411,15.2822,return,4.229800200322643,,,,,,,,,,,,,,,,,713,23,female,up_down_width,2024-06-04_15h04.08.761,exp1,2023.1.0,59.98965781598123,
,,,,,,,,,,,,,,,,5,8.35,9.175,10,10.825,11.65,0.825,0.575,0.25,3.55,10,match,36.05,301,331,361,390,420,9,9,9,9,9,,,,,,,3,0,3,0,0,39,39,20,,,,,,,,,,,,num_5,0.8103622002527118,num_5,0.3,1.2,0.3,1.05,11.46165,40.11578,return,1.3044505999423563,,,,,,,,,,,,,,,,,713,23,female,up_down_width,2024-06-04_15h04.08.761,exp1,2023.1.0,59.98965781598123,
,,,,,,,,,,,,,,,,4,8.95,9.65,10.35,11.05,0,0.7,0.44999999999999996,0.25,2.3499999999999996,10,initial,36.05,323,348,373,398,0,9,9,9,9,0,,,,,,,3,0,3,0,0,40,40,24,,,,,,,,,,,,num_4,0.7438007001765072,num_4,0.45,0.5,0.25000000000000006,0.9,9.55138,34.38495,return,3.843791900202632,,,,,,,,,,,,,,,,,713,23,female,up_down_width,2024-06-04_15h04.08.761,exp1,2023.1.0,59.98965781598123,
,,,,,,,,,,,,,,,,5,7.8,8.9,10,11.1,12.2,1.1,0.55,0.55,4.95,10,initial,36.05,281,321,361,400,440,9,9,9,9,9,,,,,,,3,0,3,0,0,41,41,34,,,,,,,,,,,,num_5,0.7374217002652586,num_5,0.2,0.4,0.44999999999999996,0.95,17.19248,36.29523,return,4.09528600028716,,,,,,,,,,,,,,,,,713,23,female,up_down_width,2024-06-04_15h04.08.761,exp1,2023.1.0,59.98965781598123,
,,,,,,,,,,,,,,,,5,8.2,9.1,10,10.9,11.8,0.9,0.35,0.55,4.15,10,initial,36.05,296,328,361,393,425,9,9,9,9,9,,,,,,,3,0,3,0,0,42,42,46,,,,,,,,,,,,num_5,0.785718200262636,num_5,0.3,1.1,0.65,1.1,24.83358,42.02605,return,1.8692526000086218,,,,,,,,,,,,,,,,,713,23,female,up_down_width,2024-06-04_15h04.08.761,exp1,2023.1.0,59.98965781598123,
,,,,,,,,,,,,,,,,5,8.2,9.1,10,10.9,11.8,0.9,0.5,0.4,4,10,initial,36.05,296,328,361,393,425,9,9,9,9,9,,,,,,,3,0,3,0,0,43,43,50,,,,,,,,,,,,num_5,0.6807746002450585,num_5,0.4,0.9,0.4,0.9,15.2822,34.38495,return,0.8400230000261217,,,,,,,,,,,,,,,,,713,23,female,up_down_width,2024-06-04_15h04.08.761,exp1,2023.1.0,59.98965781598123,
,,,,,,,,,,,,,,,,3,9.1,10,10.9,0,0,0.9,0.5,0.4,2.2,10,initial,36.05,328,361,393,0,0,9,9,9,0,0,,,,,,,3,0,3,0,0,44,44,15,,,,,,,,,,,,num_3,0.7818938000127673,num_3,0.3,1.1,0.44999999999999996,1.1,17.19248,42.02605,return,1.2875606999732554,,,,,,,,,,,,,,,,,713,23,female,up_down_width,2024-06-04_15h04.08.761,exp1,2023.1.0,59.98965781598123,
,,,,,,,,,,,,,,,,5,8.6,9.3,10,10.7,11.4,0.7,0.1499999999999999,0.55,3.3499999999999996,10,initial,36.05,310,335,361,386,411,9,9,9,9,9,,,,,,,3,0,3,0,0,45,45,40,,,,,,,,,,,,num_4,0.721240600105375,num_4,0.35,0.7,0.5499999999999999,0.8,21.01303,30.5644,return,1.9063152000308037,,,,,,,,,,,,,,,,,713,23,female,up_down_width,2024-06-04_15h04.08.761,exp1,2023.1.0,59.98965781598123,
,,,,,,,,,,,,,,,,4,8.65,9.55,10.45,11.35,0,0.9,0.5,0.4,3.1,10,initial,36.05,312,344,377,409,0,9,9,9,9,0,,,,,,,3,0,3,0,0,46,46,32,,,,,,,,,,,,num_4,0.8039603000506759,num_4,0.25,0.5,0.44999999999999996,0.8,17.19248,30.5644,return,1.8704599002376199,,,,,,,,,,,,,,,,,713,23,female,up_down_width,2024-06-04_15h04.08.761,exp1,2023.1.0,59.98965781598123,
,,,,,,,,,,,,,,,,4,8.825,9.608333333333333,10.391666666666667,11.175,0,0.7833333333333333,0.5333333333333333,0.25,2.6,10,match,36.05,318,346,375,403,0,9,9,9,9,0,,,,,,,3,0,3,0,0,47,47,5,,,,,,,,,,,,num_4,0.6873298001009971,num_4,0.4,0.7,0.20000000000000007,0.7,7.6411,26.74385,return,1.1519126000348479,,,,,,,,,,,,,,,,,713,23,female,up_down_width,2024-06-04_15h04.08.761,exp1,2023.1.0,59.98965781598123,
,,,,,,,,,,,,,,,,3,8.2,10,11.8,0,0,1.8,1.55,0.25,3.85,10,match,36.05,296,361,425,0,0,9,9,9,0,0,,,,,,,3,0,3,0,0,48,48,49,,,,,,,,,,,,num_3,0.8448060001246631,num_3,0.45,0.7,0.25000000000000006,1.75,9.55138,66.85963,return,5.569745300104842,,,,,,,,,,,,,,,,,713,23,female,up_down_width,2024-06-04_15h04.08.761,exp1,2023.1.0,59.98965781598123,
,,,,,,,,,,,,,,,,3,9.3,10,10.7,0,0,0.7,0.44999999999999996,0.25,1.65,10,initial,36.05,335,361,386,0,0,9,9,9,0,0,,,,,,,3,0,3,0,0,49,49,7,,,,,,,,,,,,num_3,0.9349096000660211,num_3,0.5,0.9,0.25000000000000006,0.8,9.55138,30.5644,return,1.7443242000881582,,,,,,,,,,,,,,,,,713,23,female,up_down_width,2024-06-04_15h04.08.761,exp1,2023.1.0,59.98965781598123,
,,,,,,,,,,,,,,,,3,7.800000000000001,10,12.2,0,0,2.1999999999999997,1.7999999999999998,0.4,4.8,10,match,36.05,281,361,440,0,0,9,9,9,0,0,,,,,,,3,0,3,0,0,50,50,39,,,,,,,,,,,,num_3,0.6582136002834886,num_3,0.55,0.7,0.35000000000000003,1.85,13.37193,70.68018,return,5.713390000164509,,,,,,,,,,,,,,,,,713,23,female,up_down_width,2024-06-04_15h04.08.761,exp1,2023.1.0,59.98965781598123,
,,,,,,,,,,,,,,,,5,8.6,9.3,10,10.7,11.4,0.7,0.29999999999999993,0.4,3.1999999999999997,10,initial,36.05,310,335,361,386,411,9,9,9,9,9,,,,,,,3,0,3,0,0,51,51,44,,,,,,,,,,,,num_5,0.8187716000247747,num_5,0.55,1.1,0.35000000000000003,0.85,13.37193,32.47468,return,3.6979514001868665,,,,,,,,,,,,,,,,,713,23,female,up_down_width,2024-06-04_15h04.08.761,exp1,2023.1.0,59.98965781598123,
,,,,,,,,,,,,,,,,,,,,,,,,,,,,,,,,,,,,,,,,,,,,,3,0,3,0,,,,,,,,,,,,,,,,,,,,,,,,,,,,,2036.1636198998895,2036.1636198998895,2036.1636198998895,,,,,,,,,,,,713,23,female,up_down_width,2024-06-04_15h04.08.761,exp1,2023.1.0,59.98965781598123,
,,,,,,,,,,,,,,,,5,8.65,9.325,10,10.675,11.35,0.675,0.125,0.55,3.25,10,match,36.05,312,336,361,385,409,9,9,9,9,9,,,,,,,4,0,4,0,0,0,0,29,,,,,,,,,,,,num_4,1.0113851001951844,num_4,0.2,0.9,0.65,0.9,24.83358,34.38495,return,2.4665345000103116,,,,,,,,,,,,,,,,,713,23,female,up_down_width,2024-06-04_15h04.08.761,exp1,2023.1.0,59.98965781598123,
,,,,,,,,,,,,,,,,3,8.6,10,11.4,0,0,1.4,0.85,0.55,3.35,10,match,36.05,310,361,411,0,0,9,9,9,0,0,,,,,,,4,0,4,0,0,1,1,41,,,,,,,,,,,,num_3,0.7817173001822084,num_3,0.5,0.8,0.5,1.35,19.10275,51.57743,return,2.7928120002616197,,,,,,,,,,,,,,,,,713,23,female,up_down_width,2024-06-04_15h04.08.761,exp1,2023.1.0,59.98965781598123,
,,,,,,,,,,,,,,,,3,8.2,10,11.8,0,0,1.8,1.55,0.25,3.85,10,match,36.05,296,361,425,0,0,9,9,9,0,0,,,,,,,4,0,4,0,0,2,2,49,,,,,,,,,,,,num_3,0.6249787001870573,num_3,0.5,1.1,0.20000000000000007,1.45,7.6411,55.39798,return,3.2625766000710428,,,,,,,,,,,,,,,,,713,23,female,up_down_width,2024-06-04_15h04.08.761,exp1,2023.1.0,59.98965781598123,
,,,,,,,,,,,,,,,,3,9.1,10,10.9,0,0,0.9,0.65,0.25,2.05,10,initial,36.05,328,361,393,0,0,9,9,9,0,0,,,,,,,4,0,4,0,0,3,3,13,,,,,,,,,,,,num_3,0.6299566000234336,num_3,0.55,1.2,0.20000000000000007,1.2,7.6411,45.8466,return,1.9574720000382513,,,,,,,,,,,,,,,,,713,23,female,up_down_width,2024-06-04_15h04.08.761,exp1,2023.1.0,59.98965781598123,
,,,,,,,,,,,,,,,,4,8.65,9.55,10.45,11.35,0,0.9,0.5,0.4,3.1,10,initial,36.05,312,344,377,409,0,9,9,9,9,0,,,,,,,4,0,4,0,0,4,4,32,,,,,,,,,,,,num_4,0.8897101001348346,num_4,0.3,0.7,0.3,1.1,11.46165,42.02605,return,1.3621360000688583,,,,,,,,,,,,,,,,,713,23,female,up_down_width,2024-06-04_15h04.08.761,exp1,2023.1.0,59.98965781598123,
,,,,,,,,,,,,,,,,4,8.825,9.608333333333333,10.391666666666667,11.175,0,0.7833333333333333,0.5333333333333333,0.25,2.6,10,match,36.05,318,346,375,403,0,9,9,9,9,0,,,,,,,4,0,4,0,0,5,5,5,,,,,,,,,,,,num_4,0.6898655002005398,num_4,0.5,1.2,0.20000000000000007,1.2,7.6411,45.8466,return,2.0532492001075298,,,,,,,,,,,,,,,,,713,23,female,up_down_width,2024-06-04_15h04.08.761,exp1,2023.1.0,59.98965781598123,
,,,,,,,,,,,,,,,,4,9.1,9.7,10.3,10.9,0,0.6000000000000001,0.20000000000000004,0.4,2.2,10,match,36.05,328,350,371,393,0,9,9,9,9,0,,,,,,,4,0,4,0,0,6,6,16,,,,,,,,,,,,num_4,0.7808654999826103,num_4,0.55,0.8,0.35000000000000003,0.8,13.37193,30.5644,return,1.7841279001440853,,,,,,,,,,,,,,,,,713,23,female,up_down_width,2024-06-04_15h04.08.761,exp1,2023.1.0,59.98965781598123,
,,,,,,,,,,,,,,,,5,8.65,9.325,10,10.675,11.35,0.675,0.42500000000000004,0.25,2.95,10,match,36.05,312,336,361,385,409,9,9,9,9,9,,,,,,,4,0,4,0,0,7,7,31,,,,,,,,,,,,num_4,0.8176898001693189,num_4,0.5,0.6,0.25000000000000006,0.7,9.55138,26.74385,return,2.1682694000191987,,,,,,,,,,,,,,,,,713,23,female,up_down_width,2024-06-04_15h04.08.761,exp1,2023.1.0,59.98965781598123,
,,,,,,,,,,,,,,,,4,9.1,9.7,10.3,10.9,0,0.5999999999999999,0.3499999999999999,0.25,2.05,10,match,36.05,328,350,371,393,0,9,9,9,9,0,,,,,,,4,0,4,0,0,8,8,14,,,,,,,,,,,,num_4,0.6397713001351804,num_4,0.55,0.6,0.25000000000000006,0.7,9.55138,26.74385,return,2.1971510001458228,,,,,,,,,,,,,,,,,713,23,female,up_down_width,2024-06-04_15h04.08.761,exp1,2023.1.0,59.98965781598123,
,,,,,,,,,,,,,,,,4,8.95,9.65,10.35,11.05,0,0.7,0.29999999999999993,0.4,2.5,10,initial,36.05,323,348,373,398,0,9,9,9,9,0,,,,,,,4,0,4,0,0,9,9,26,,,,,,,,,,,,num_3,1.0607816001866013,num_3,0.5,1.2,0.35000000000000003,1.15,13.37193,43.93633,return,1.9775163000449538,,,,,,,,,,,,,,,,,713,23,female,up_down_width,2024-06-04_15h04.08.761,exp1,2023.1.0,59.98965781598123,
,,,,,,,,,,,,,,,,3,9.1,10,10.9,0,0,0.9,0.5,0.4,2.2,10,initial,36.05,328,361,393,0,0,9,9,9,0,0,,,,,,,4,0,4,0,0,10,10,15,,,,,,,,,,,,num_3,0.7174457001965493,num_3,0.3,0.5,0.35,0.75,13.37193,28.65413,return,2.7795480000786483,,,,,,,,,,,,,,,,,713,23,female,up_down_width,2024-06-04_15h04.08.761,exp1,2023.1.0,59.98965781598123,
,,,,,,,,,,,,,,,,3,8.9,10,11.1,0,0,1.1,0.7000000000000001,0.4,2.6000000000000005,10,initial,36.05,321,361,400,0,0,9,9,9,0,0,,,,,,,4,0,4,0,0,11,11,4,,,,,,,,,,,,num_3,0.659768900135532,num_3,0.4,1,0.4,1,15.2822,38.2055,return,0.9307816000655293,,,,,,,,,,,,,,,,,713,23,female,up_down_width,2024-06-04_15h04.08.761,exp1,2023.1.0,59.98965781598123,
,,,,,,,,,,,,,,,,5,8.35,9.175,10,10.825,11.65,0.8250000000000001,0.275,0.55,3.85,10,match,36.05,301,331,361,390,420,9,9,9,9,9,,,,,,,4,0,4,0,0,12,12,18,,,,,,,,,,,,num_4,0.7675142001826316,num_4,0.45,0.9,0.4,0.8,15.2822,30.5644,return,1.7234109002165496,,,,,,,,,,,,,,,,,713,23,female,up_down_width,2024-06-04_15h04.08.761,exp1,2023.1.0,59.98965781598123,
,,,,,,,,,,,,,,,,5,8.6,9.3,10,10.7,11.4,0.7,0.1499999999999999,0.55,3.3499999999999996,10,initial,36.05,310,335,361,386,411,9,9,9,9,9,,,,,,,4,0,4,0,0,13,13,40,,,,,,,,,,,,num_5,0.8464558003470302,num_5,0.3,0.8,0.39999999999999997,0.75,15.2822,28.65413,return,3.0487609000410885,,,,,,,,,,,,,,,,,713,23,female,up_down_width,2024-06-04_15h04.08.761,exp1,2023.1.0,59.98965781598123,
,,,,,,,,,,,,,,,,3,8.9,10,11.1,0,0,1.1,0.55,0.55,2.75,10,initial,36.05,321,361,400,0,0,9,9,9,0,0,,,,,,,4,0,4,0,0,14,14,0,,,,,,,,,,,,num_3,1.0748165000695735,num_3,0.55,0.7,0.55,0.7,21.01303,26.74385,return,0.8483110000379384,,,,,,,,,,,,,,,,,713,23,female,up_down_width,2024-06-04_15h04.08.761,exp1,2023.1.0,59.98965781598123,
,,,,,,,,,,,,,,,,4,8.95,9.65,10.35,11.05,0,0.7,0.1499999999999999,0.55,2.65,10,initial,36.05,323,348,373,398,0,9,9,9,9,0,,,,,,,4,0,4,0,0,15,15,23,,,,,,,,,,,,num_4,0.8705285000614822,num_4,0.3,1.1,0.6,1.0,22.9233,38.2055,return,2.802881400100887,,,,,,,,,,,,,,,,,713,23,female,up_down_width,2024-06-04_15h04.08.761,exp1,2023.1.0,59.98965781598123,
,,,,,,,,,,,,,,,,3,7.8,10,12.2,0,0,2.2,1.9500000000000002,0.25,4.65,10,match,36.05,281,361,440,0,0,9,9,9,0,0,,,,,,,4,0,4,0,0,16,16,37,,,,,,,,,,,,num_3,0.8043307000771165,num_3,0.5,0.7,0.5,1.2,19.10275,45.8466,return,4.058628400089219,,,,,,,,,,,,,,,,,713,23,female,up_down_width,2024-06-04_15h04.08.761,exp1,2023.1.0,59.98965781598123,
,,,,,,,,,,,,,,,,4,8.35,9.45,10.55,11.65,0,1.1,0.7000000000000001,0.4,3.7,10,initial,36.05,301,341,380,420,0,9,9,9,9,0,,,,,,,4,0,4,0,0,17,17,21,,,,,,,,,,,,num_4,0.9740838001016527,num_4,0.2,1.3,0.44999999999999996,1.0,17.19248,38.2055,return,2.6134103001095355,,,,,,,,,,,,,,,,,713,23,female,up_down_width,2024-06-04_15h04.08.761,exp1,2023.1.0,59.98965781598123,
,,,,,,,,,,,,,,,,4,8.95,9.65,10.35,11.05,0,0.7,0.44999999999999996,0.25,2.3499999999999996,10,initial,36.05,323,348,373,398,0,9,9,9,9,0,,,,,,,4,0,4,0,0,18,18,24,,,,,,,,,,,,num_4,0.7583766002207994,num_4,0.55,1.1,0.30000000000000004,0.9,11.46165,34.38495,return,2.608368900138885,,,,,,,,,,,,,,,,,713,23,female,up_down_width,2024-06-04_15h04.08.761,exp1,2023.1.0,59.98965781598123,
,,,,,,,,,,,,,,,,4,8.9,9.633333333333333,10.366666666666667,11.1,0,0.7333333333333333,0.18333333333333326,0.55,2.75,10,match,36.05,321,347,374,400,0,9,9,9,9,0,,,,,,,4,0,4,0,0,19,19,1,,,,,,,,,,,,num_4,0.8172991001047194,num_4,0.35,0.6,0.35,0.6,13.37193,22.9233,return,0.7817909000441432,,,,,,,,,,,,,,,,,713,23,female,up_down_width,2024-06-04_15h04.08.761,exp1,2023.1.0,59.98965781598123,
,,,,,,,,,,,,,,,,3,9.1,10,10.9,0,0,0.9,0.35,0.55,2.35,10,initial,36.05,328,361,393,0,0,9,9,9,0,0,,,,,,,4,0,4,0,0,20,20,11,,,,,,,,,,,,num_3,0.8262939001433551,num_3,0.55,1.3,0.55,1.3,21.01303,49.66716,return,0.7421132000163198,,,,,,,,,,,,,,,,,713,23,female,up_down_width,2024-06-04_15h04.08.761,exp1,2023.1.0,59.98965781598123,
,,,,,,,,,,,,,,,,5,8.95,9.475,10,10.525,11.05,0.525,0.125,0.4,2.5,10,match,36.05,323,342,361,379,398,9,9,9,9,9,,,,,,,4,0,4,0,0,21,21,27,,,,,,,,,,,,num_5,0.7819427000358701,num_5,0.45,0.5,0.4,0.55,15.2822,21.01303,return,2.701492300024256,,,,,,,,,,,,,,,,,713,23,female,up_down_width,2024-06-04_15h04.08.761,exp1,2023.1.0,59.98965781598123,
,,,,,,,,,,,,,,,,5,7.8,8.9,10,11.1,12.2,1.1,0.55,0.55,4.95,10,initial,36.05,281,321,361,400,440,9,9,9,9,9,,,,,,,4,0,4,0,0,22,22,34,,,,,,,,,,,,num_6,1.0830910000950098,num_6,0.45,0.7,0.45,0.7,17.19248,26.74385,return,0.7659497999120504,,,,,,,,,,,,,,,,,713,23,female,up_down_width,2024-06-04_15h04.08.761,exp1,2023.1.0,59.98965781598123,
,,,,,,,,,,,,,,,,3,7.800000000000001,10,12.2,0,0,2.1999999999999997,1.7999999999999998,0.4,4.8,10,match,36.05,281,361,440,0,0,9,9,9,0,0,,,,,,,4,0,4,0,0,23,23,39,,,,,,,,,,,,num_3,0.6530666002072394,num_3,0.5,1.1,0.35000000000000003,2.3,13.37193,87.87266,return,5.057521400041878,,,,,,,,,,,,,,,,,713,23,female,up_down_width,2024-06-04_15h04.08.761,exp1,2023.1.0,59.98965781598123,
,,,,,,,,,,,,,,,,5,8.6,9.3,10,10.7,11.4,0.7,0.29999999999999993,0.4,3.1999999999999997,10,initial,36.05,310,335,361,386,411,9,9,9,9,9,,,,,,,4,0,4,0,0,24,24,44,,,,,,,,,,,,num_5,0.7534245001152158,num_5,0.2,0.4,0.44999999999999996,0.85,17.19248,32.47468,return,3.152772900182754,,,,,,,,,,,,,,,,,713,23,female,up_down_width,2024-06-04_15h04.08.761,exp1,2023.1.0,59.98965781598123,
,,,,,,,,,,,,,,,,5,8.275,9.1375,10,10.8625,11.725,0.8625,0.6125,0.25,3.7,10,match,36.05,298,329,361,392,423,9,9,9,9,9,,,,,,,4,0,4,0,0,25,25,22,,,,,,,,,,,,num_5,0.8590804000850767,num_5,0.35,1.0,0.2,1.0,7.6411,38.2055,return,1.383034799946472,,,,,,,,,,,,,,,,,713,23,female,up_down_width,2024-06-04_15h04.08.761,exp1,2023.1.0,59.98965781598123,
,,,,,,,,,,,,,,,,4,9.1,9.7,10.3,10.9,0,0.6,0.04999999999999997,0.55,2.35,10,match,36.05,328,350,371,393,0,9,9,9,9,0,,,,,,,4,0,4,0,0,26,26,12,,,,,,,,,,,,num_4,0.8100688001140952,num_4,0.35,1.1,0.6,0.7,22.9233,26.74385,return,2.8198810000903904,,,,,,,,,,,,,,,,,713,23,female,up_down_width,2024-06-04_15h04.08.761,exp1,2023.1.0,59.98965781598123,
,,,,,,,,,,,,,,,,3,8.2,10,11.8,0,0,1.7999999999999998,1.4,0.4,4,10,match,36.05,296,361,425,0,0,9,9,9,0,0,,,,,,,4,0,4,0,0,27,27,51,,,,,,,,,,,,num_3,1.0328102002386004,num_3,0.25,1.1,0.25,1.1,9.55138,42.02605,return,0.5660490000154823,,,,,,,,,,,,,,,,,713,23,female,up_down_width,2024-06-04_15h04.08.761,exp1,2023.1.0,59.98965781598123,
,,,,,,,,,,,,,,,,4,9.3,9.766666666666667,10.233333333333333,10.7,0,0.4666666666666667,0.21666666666666665,0.25,1.65,10,match,36.05,335,352,369,386,0,9,9,9,9,0,,,,,,,4,0,4,0,0,28,28,8,,,,,,,,,,,,num_4,0.749193900031969,num_4,0.3,1.2,0.3,0.5,11.46165,19.10275,return,2.1701515002641827,,,,,,,,,,,,,,,,,713,23,female,up_down_width,2024-06-04_15h04.08.761,exp1,2023.1.0,59.98965781598123,
,,,,,,,,,,,,,,,,5,8.2,9.1,10,10.9,11.8,0.9,0.5,0.4,4,10,initial,36.05,296,328,361,393,425,9,9,9,9,9,,,,,,,4,0,4,0,0,29,29,50,,,,,,,,,,,,num_5,0.6935917001683265,num_5,0.55,1.1,0.5,1.05,19.10275,40.11578,return,1.880430200137198,,,,,,,,,,,,,,,,,713,23,female,up_down_width,2024-06-04_15h04.08.761,exp1,2023.1.0,59.98965781598123,
,,,,,,,,,,,,,,,,4,8.65,9.55,10.45,11.35,0,0.9,0.65,0.25,2.95,10,initial,36.05,312,344,377,409,0,9,9,9,9,0,,,,,,,4,0,4,0,0,30,30,30,,,,,,,,,,,,num_4,0.7679685999173671,num_4,0.25,0.3,0.25,1.3,9.55138,49.66716,return,2.3809525000397116,,,,,,,,,,,,,,,,,713,23,female,up_down_width,2024-06-04_15h04.08.761,exp1,2023.1.0,59.98965781598123,
,,,,,,,,,,,,,,,,5,8.65,9.325,10,10.675,11.35,0.675,0.275,0.4,3.1,10,match,36.05,312,336,361,385,409,9,9,9,9,9,,,,,,,4,0,4,0,0,31,31,33,,,,,,,,,,,,num_4,0.7454579002223909,num_4,0.35,0.9,0.44999999999999996,1.1,17.19248,42.02605,return,1.911625400185585,,,,,,,,,,,,,,,,,713,23,female,up_down_width,2024-06-04_15h04.08.761,exp1,2023.1.0,59.98965781598123,
,,,,,,,,,,,,,,,,5,8.95,9.475,10,10.525,11.05,0.525,0.275,0.25,2.35,10,match,36.05,323,342,361,379,398,9,9,9,9,9,,,,,,,4,0,4,0,0,32,32,25,,,,,,,,,,,,num_5,0.8786500000860542,num_5,0.5,1.2,0.20000000000000007,0.8,7.6411,30.5644,return,3.2742441000882536,,,,,,,,,,,,,,,,,713,23,female,up_down_width,2024-06-04_15h04.08.761,exp1,2023.1.0,59.98965781598123,
,,,,,,,,,,,,,,,,3,9.3,10,10.7,0,0,0.7,0.29999999999999993,0.4,1.8,10,initial,36.05,335,361,386,0,0,9,9,9,0,0,,,,,,,4,0,4,0,0,33,33,9,,,,,,,,,,,,num_3,1.3052250999026,num_3,0.4,0.8,0.4,0.85,15.2822,32.47468,return,1.2183386001270264,,,,,,,,,,,,,,,,,713,23,female,up_down_width,2024-06-04_15h04.08.761,exp1,2023.1.0,59.98965781598123,
,,,,,,,,,,,,,,,,5,8.35,9.175,10,10.825,11.65,0.825,0.575,0.25,3.55,10,match,36.05,301,331,361,390,420,9,9,9,9,9,,,,,,,4,0,4,0,0,34,34,20,,,,,,,,,,,,num_4,0.8106500001158565,num_4,0.35,0.9,0.35,0.9,13.37193,34.38495,return,0.7996189000550658,,,,,,,,,,,,,,,,,713,23,female,up_down_width,2024-06-04_15h04.08.761,exp1,2023.1.0,59.98965781598123,
,,,,,,,,,,,,,,,,3,8.6,10,11.4,0,0,1.4,1.15,0.25,3.05,10,match,36.05,310,361,411,0,0,9,9,9,0,0,,,,,,,4,0,4,0,0,35,35,43,,,,,,,,,,,,num_3,0.7854893000330776,num_3,0.2,1,0.2,1,7.6411,38.2055,return,0.7131963002029806,,,,,,,,,,,,,,,,,713,23,female,up_down_width,2024-06-04_15h04.08.761,exp1,2023.1.0,59.98965781598123,
,,,,,,,,,,,,,,,,4,8.9,9.633333333333333,10.366666666666667,11.1,0,0.7333333333333334,0.4833333333333334,0.25,2.45,10,match,36.05,321,347,374,400,0,9,9,9,9,0,,,,,,,4,0,4,0,0,36,36,3,,,,,,,,,,,,num_4,0.8383955000899732,num_4,0.4,1.3,0.20000000000000007,1.2,7.6411,45.8466,return,1.4888740002643317,,,,,,,,,,,,,,,,,713,23,female,up_down_width,2024-06-04_15h04.08.761,exp1,2023.1.0,59.98965781598123,
,,,,,,,,,,,,,,,,5,7.8,8.9,10,11.1,12.2,1.1,0.8500000000000001,0.25,4.65,10,initial,36.05,281,321,361,400,440,9,9,9,9,9,,,,,,,4,0,4,0,0,37,37,36,,,,,,,,,,,,num_5,0.7159408000297844,num_5,0.35,0.6,0.15000000000000002,0.7,5.73083,26.74385,return,2.7952997002284974,,,,,,,,,,,,,,,,,713,23,female,up_down_width,2024-06-04_15h04.08.761,exp1,2023.1.0,59.98965781598123,
,,,,,,,,,,,,,,,,5,8.2,9.1,10,10.9,11.8,0.9,0.35,0.55,4.15,10,initial,36.05,296,328,361,393,425,9,9,9,9,9,,,,,,,4,0,4,0,0,38,38,46,,,,,,,,,,,,num_4,0.8319191001355648,num_4,0.25,1.0,0.5499999999999999,1.1,21.01303,42.02605,return,2.278015200048685,,,,,,,,,,,,,,,,,713,23,female,up_down_width,2024-06-04_15h04.08.761,exp1,2023.1.0,59.98965781598123,
,,,,,,,,,,,,,,,,3,8.9,10,11.1,0,0,1.1,0.8500000000000001,0.25,2.45,10,initial,36.05,321,361,400,0,0,9,9,9,0,0,,,,,,,4,0,4,0,0,39,39,2,,,,,,,,,,,,num_3,0.7455546001438051,num_3,0.5,0.6,0.20000000000000007,0.95,7.6411,36.29523,return,3.238425800111145,,,,,,,,,,,,,,,,,713,23,female,up_down_width,2024-06-04_15h04.08.761,exp1,2023.1.0,59.98965781598123,
,,,,,,,,,,,,,,,,5,8.6,9.3,10,10.7,11.4,0.7,0.44999999999999996,0.25,3.05,10,initial,36.05,310,335,361,386,411,9,9,9,9,9,,,,,,,4,0,4,0,0,40,40,42,,,,,,,,,,,,num_4,0.8172114000190049,num_4,0.35,0.8,0.2,0.9,7.6411,34.38495,return,2.536192500265315,,,,,,,,,,,,,,,,,713,23,female,up_down_width,2024-06-04_15h04.08.761,exp1,2023.1.0,59.98965781598123,
,,,,,,,,,,,,,,,,3,9.3,10,10.7,0,0,0.7,0.44999999999999996,0.25,1.65,10,initial,36.05,335,361,386,0,0,9,9,9,0,0,,,,,,,4,0,4,0,0,41,41,7,,,,,,,,,,,,num_3,0.7767102001234889,num_3,0.25,0.7,0.2,0.7,7.6411,26.74385,return,1.380659000016749,,,,,,,,,,,,,,,,,713,23,female,up_down_width,2024-06-04_15h04.08.761,exp1,2023.1.0,59.98965781598123,
,,,,,,,,,,,,,,,,4,8.65,9.55,10.45,11.35,0,0.9,0.35,0.55,3.25,10,initial,36.05,312,344,377,409,0,9,9,9,9,0,,,,,,,4,0,4,0,0,42,42,28,,,,,,,,,,,,num_4,0.9462488000281155,num_4,0.45,0.8,0.45,0.8,17.19248,30.5644,return,0.777095700148493,,,,,,,,,,,,,,,,,713,23,female,up_down_width,2024-06-04_15h04.08.761,exp1,2023.1.0,59.98965781598123,
,,,,,,,,,,,,,,,,4,8.35,9.45,10.55,11.65,0,1.1,0.55,0.55,3.8500000000000005,10,initial,36.05,301,341,380,420,0,9,9,9,9,0,,,,,,,4,0,4,0,0,43,43,17,,,,,,,,,,,,num_4,0.7028053000103682,num_4,0.3,0.8,0.65,0.9,24.83358,34.38495,return,2.0163102000951767,,,,,,,,,,,,,,,,,713,23,female,up_down_width,2024-06-04_15h04.08.761,exp1,2023.1.0,59.98965781598123,
,,,,,,,,,,,,,,,,3,9.3,10,10.7,0,0,0.7,0.1499999999999999,0.55,1.95,10,initial,36.05,335,361,386,0,0,9,9,9,0,0,,,,,,,4,0,4,0,0,44,44,6,,,,,,,,,,,,num_3,0.7070840001106262,num_3,0.4,1.2,0.6000000000000001,1.05,22.9233,40.11578,return,1.8407862002495676,,,,,,,,,,,,,,,,,713,23,female,up_down_width,2024-06-04_15h04.08.761,exp1,2023.1.0,59.98965781598123,
,,,,,,,,,,,,,,,,5,8.2,9.1,10,10.9,11.8,0.9,0.65,0.25,3.85,10,initial,36.05,296,328,361,393,425,9,9,9,9,9,,,,,,,4,0,4,0,0,45,45,48,,,,,,,,,,,,num_5,0.7386793000623584,num_5,0.55,0.7,0.15000000000000008,0.7,5.73083,26.74385,return,2.1248860000632703,,,,,,,,,,,,,,,,,713,23,female,up_down_width,2024-06-04_15h04.08.761,exp1,2023.1.0,59.98965781598123,
,,,,,,,,,,,,,,,,4,8.35,9.45,10.55,11.65,0,1.1,0.8500000000000001,0.25,3.5500000000000003,10,initial,36.05,301,341,380,420,0,9,9,9,9,0,,,,,,,4,0,4,0,0,46,46,19,,,,,,,,,,,,num_4,0.6299991002306342,num_4,0.5,1.0,0.25000000000000006,1.0,9.55138,38.2055,return,2.5379762002266943,,,,,,,,,,,,,,,,,713,23,female,up_down_width,2024-06-04_15h04.08.761,exp1,2023.1.0,59.98965781598123,
,,,,,,,,,,,,,,,,3,8.2,10,11.8,0,0,1.8,1.25,0.55,4.15,10,match,36.05,296,361,425,0,0,9,9,9,0,0,,,,,,,4,0,4,0,0,47,47,47,,,,,,,,,,,,num_3,0.7184790000319481,num_3,0.4,0.5,0.45,1.6,17.19248,61.12881,return,4.796175700146705,,,,,,,,,,,,,,,,,713,23,female,up_down_width,2024-06-04_15h04.08.761,exp1,2023.1.0,59.98965781598123,
,,,,,,,,,,,,,,,,3,7.8,10,12.2,0,0,2.2,1.65,0.55,4.95,10,match,36.05,281,361,440,0,0,9,9,9,0,0,,,,,,,4,0,4,0,0,48,48,35,,,,,,,,,,,,num_3,0.6594492001459002,num_3,0.55,0.9,0.55,1.8,21.01303,68.76991,return,3.8087503002025187,,,,,,,,,,,,,,,,,713,23,female,up_down_width,2024-06-04_15h04.08.761,exp1,2023.1.0,59.98965781598123,
,,,,,,,,,,,,,,,,3,8.525,10,11.475,0,0,1.475,1.225,0.25,3.2,10,match,36.05,307,361,414,0,0,9,9,9,0,0,,,,,,,4,0,4,0,0,49,49,45,,,,,,,,,,,,num_2,0.8807316001038998,num_2,0.5,1.4,0.25000000000000006,1.9,9.55138,72.59046,return,2.611354000167921,,,,,,,,,,,,,,,,,713,23,female,up_down_width,2024-06-04_15h04.08.761,exp1,2023.1.0,59.98965781598123,
,,,,,,,,,,,,,,,,5,7.8,8.9,10,11.1,12.2,1.1,0.7000000000000001,0.4,4.800000000000001,10,initial,36.05,281,321,361,400,440,9,9,9,9,9,,,,,,,4,0,4,0,0,50,50,38,,,,,,,,,,,,num_4,0.8555333002004772,num_4,0.25,0.3,0.39999999999999997,1.4,15.2822,53.48771,return,3.7964752002153546,,,,,,,,,,,,,,,,,713,23,female,up_down_width,2024-06-04_15h04.08.761,exp1,2023.1.0,59.98965781598123,
,,,,,,,,,,,,,,,,4,9.3,9.766666666666667,10.233333333333333,10.7,0,0.4666666666666667,0.06666666666666665,0.4,1.8,10,match,36.05,335,352,369,386,0,9,9,9,9,0,,,,,,,4,0,4,0,0,51,51,10,,,,,,,,,,,,num_4,0.8728692000731826,num_4,0.3,0.7,0.3,0.4,11.46165,15.2822,return,2.164467600174248,,,,,,,,,,,,,,,,,713,23,female,up_down_width,2024-06-04_15h04.08.761,exp1,2023.1.0,59.98965781598123,
,,,,,,,,,,,,,,,,,,,,,,,,,,,,,,,,,,,,,,,,,,,,,4,0,4,0,,,,,,,,,,,,,,,,,,,,,,,,,,,,,2284.1471869999077,2284.1471869999077,2284.1471869999077,,,,,,,,,,,,713,23,female,up_down_width,2024-06-04_15h04.08.761,exp1,2023.1.0,59.98965781598123,
,,,,,,,,,,,,,,,,4,8.65,9.55,10.45,11.35,0,0.9,0.35,0.55,3.25,10,initial,36.05,312,344,377,409,0,9,9,9,9,0,,,,,,,5,0,5,0,0,0,0,28,,,,,,,,,,,,num_4,1.4517355000134557,num_4,0.3,0.4,0.3,0.7,11.46165,26.74385,return,1.6288587001617998,,,,,,,,,,,,,,,,,713,23,female,up_down_width,2024-06-04_15h04.08.761,exp1,2023.1.0,59.98965781598123,
,,,,,,,,,,,,,,,,5,8.2,9.1,10,10.9,11.8,0.9,0.5,0.4,4,10,initial,36.05,296,328,361,393,425,9,9,9,9,9,,,,,,,5,0,5,0,0,1,1,50,,,,,,,,,,,,num_5,1.0060289001557976,num_5,0.4,0.6,0.4,0.6,15.2822,22.9233,return,0.8319862002972513,,,,,,,,,,,,,,,,,713,23,female,up_down_width,2024-06-04_15h04.08.761,exp1,2023.1.0,59.98965781598123,
,,,,,,,,,,,,,,,,4,8.65,9.55,10.45,11.35,0,0.9,0.5,0.4,3.1,10,initial,36.05,312,344,377,409,0,9,9,9,9,0,,,,,,,5,0,5,0,0,2,2,32,,,,,,,,,,,,num_4,0.6404121001251042,num_4,0.55,1.1,0.4,0.9,15.2822,34.38495,return,1.9706908001098782,,,,,,,,,,,,,,,,,713,23,female,up_down_width,2024-06-04_15h04.08.761,exp1,2023.1.0,59.98965781598123,
,,,,,,,,,,,,,,,,3,9.1,10,10.9,0,0,0.9,0.35,0.55,2.35,10,initial,36.05,328,361,393,0,0,9,9,9,0,0,,,,,,,5,0,5,0,0,3,3,11,,,,,,,,,,,,num_3,0.8455487000755966,num_3,0.2,1.2,0.5499999999999999,1.15,21.01303,43.93633,return,3.095129100140184,,,,,,,,,,,,,,,,,713,23,female,up_down_width,2024-06-04_15h04.08.761,exp1,2023.1.0,59.98965781598123,
,,,,,,,,,,,,,,,,4,8.95,9.65,10.35,11.05,0,0.7,0.29999999999999993,0.4,2.5,10,initial,36.05,323,348,373,398,0,9,9,9,9,0,,,,,,,5,0,5,0,0,4,4,26,,,,,,,,,,,,num_4,0.7422724000643939,num_4,0.2,1.0,0.44999999999999996,0.7,17.19248,26.74385,return,2.229829400079325,,,,,,,,,,,,,,,,,713,23,female,up_down_width,2024-06-04_15h04.08.761,exp1,2023.1.0,59.98965781598123,
,,,,,,,,,,,,,,,,3,8.6,10,11.4,0,0,1.4,1.15,0.25,3.05,10,match,36.05,310,361,411,0,0,9,9,9,0,0,,,,,,,5,0,5,0,0,5,5,43,,,,,,,,,,,,num_3,0.8466128001455218,num_3,0.3,1.1,0.15000000000000002,1.2,5.73083,45.8466,return,2.869902400067076,,,,,,,,,,,,,,,,,713,23,female,up_down_width,2024-06-04_15h04.08.761,exp1,2023.1.0,59.98965781598123,
,,,,,,,,,,,,,,,,4,8.35,9.45,10.55,11.65,0,1.1,0.8500000000000001,0.25,3.5500000000000003,10,initial,36.05,301,341,380,420,0,9,9,9,9,0,,,,,,,5,0,5,0,0,6,6,19,,,,,,,,,,,,num_4,0.8180772000923753,num_4,0.2,0.9,0.2,1.4,7.6411,53.48771,return,2.2168902999255806,,,,,,,,,,,,,,,,,713,23,female,up_down_width,2024-06-04_15h04.08.761,exp1,2023.1.0,59.98965781598123,
,,,,,,,,,,,,,,,,3,9.1,10,10.9,0,0,0.9,0.65,0.25,2.05,10,initial,36.05,328,361,393,0,0,9,9,9,0,0,,,,,,,5,0,5,0,0,7,7,13,,,,,,,,,,,,num_3,0.5813076000194997,num_3,0.25,0.6,0.15000000000000002,1.15,5.73083,43.93633,return,3.8480847000610083,,,,,,,,,,,,,,,,,713,23,female,up_down_width,2024-06-04_15h04.08.761,exp1,2023.1.0,59.98965781598123,
,,,,,,,,,,,,,,,,3,8.2,10,11.8,0,0,1.8,1.25,0.55,4.15,10,match,36.05,296,361,425,0,0,9,9,9,0,0,,,,,,,5,0,5,0,0,8,8,47,,,,,,,,,,,,num_3,0.9850718001835048,num_3,0.2,1.2,0.65,1.85,24.83358,70.68018,return,5.311135300202295,,,,,,,,,,,,,,,,,713,23,female,up_down_width,2024-06-04_15h04.08.761,exp1,2023.1.0,59.98965781598123,
