amount_p,posx1_p,posx2_p,posx3_p,posx4_p,posx5_p,center_to_center_p,edge_to_edge_p,w_p,stim_lengt_p,eccentricity_p,line1_p,line2_p,line3_p,line4_p,line5_p,amount,posx1,posx2,posx3,posx4,posx5,center_to_center,edge_to_edge,w,stim_length,eccentricity,trial_type,deg_to_pix_index,posx1_in_pix,posx2_in_pix,posx3_in_pix,posx4_in_pix,posx5_in_pix,line1,line2,line3,line4,line5,posx,setsize_cobdi,trials.thisRepN,trials.thisTrialN,trials.thisN,trials.thisIndex,blocks.thisRepN,blocks.thisTrialN,blocks.thisN,blocks.thisIndex,loop.thisRepN,loop.thisTrialN,loop.thisN,loop.thisIndex,first.thisRepN,first.thisTrialN,first.thisN,first.thisIndex,second.thisRepN,second.thisTrialN,second.thisN,second.thisIndex,key_resp_3.started,key_resp_3.keys,key_resp_3.rt,key_resp.keys,key_resp.rt,response,starting_width_deg,starting_space_deg,response_width_degree,response_spacing_degree,response_width_pixel,response_spacing_pixel,next_5.keys,next_5.rt,key_resp_4.keys,key_resp_4.rt,text_3.started,text_4.started,key_resp_2.started,text_2.started,key_resp_2.keys,key_resp_2.rt,adjusting.started,next.keys,next.rt,text_control2.started,key_resp.started,key_resp.corr,text_bye.started,text_bye.stopped,participant,age,gender,resp_group,date,expName,psychopyVersion,frameRate,
,,,,,,,,,,,,,,,,,,,,,,,,,,,,,,,,,,,,,,,,,,,,,,,,,,,,,,,,,,,,,63.76074320000001,c,130.46704159999996,,,,,,,,,,,,,,,,,,,,,,,,,,,,714,22,male,up_down_width,2024-08-26_10h59.32.803,exp1,2023.1.0,59.83441424202769,
3,9.5,10,10.5,0,0,0.5,0.4,0.1,1.1,10,9,9,9,0,0,,,,,,,,,,,,,,,,,,,,,,,,,,0,0,0,0,,,,,,,,,,,,,,,,,,,,num_5,13.066005699999948,num_5,0.5,0.8,0.4,0.8,15.2822,30.5644,return,21.975366399999984,,,,,,,,,,,,,,,,,714,22,male,up_down_width,2024-08-26_10h59.32.803,exp1,2023.1.0,59.83441424202769,
3,9,10,11,0,0,1,0.9,0.1,2.1,10,9,9,9,0,0,,,,,,,,,,,,,,,,,,,,,,,,,,0,1,1,1,,,,,,,,,,,,,,,,,,,,num_3,1.7784685999999965,num_3,0.55,1.1,0.05000000000000007,1.1,1.91028,42.02605,return,5.337600099999975,,,,,,,,,,,,,,,,,714,22,male,up_down_width,2024-08-26_10h59.32.803,exp1,2023.1.0,59.83441424202769,
5,9.25,9.625,10,10.375,10.75,0.375,0.125,0.25,1.75,10,9,9,9,9,9,,,,,,,,,,,,,,,,,,,,,,,,,,0,2,2,6,,,,,,,,,,,,,,,,,,,,num_4,1.9249047999999789,num_4,0.55,0.7,0.30000000000000004,0.7,11.46165,26.74385,return,3.303266800000017,,,,,,,,,,,,,,,,,714,22,male,up_down_width,2024-08-26_10h59.32.803,exp1,2023.1.0,59.83441424202769,
4,8.65,9.55,10.45,11.35,0,0.9,0.5,0.4,3.1,10,9,9,9,9,0,,,,,,,,,,,,,,,,,,,,,,,,,,0,3,3,5,,,,,,,,,,,,,,,,,,,,num_4,1.4891855999999848,num_4,0.5,0.8,0.4,0.8,15.2822,30.5644,return,7.315934999999996,,,,,,,,,,,,,,,,,714,22,male,up_down_width,2024-08-26_10h59.32.803,exp1,2023.1.0,59.83441424202769,
4,9.25,9.75,10.25,10.75,0,0.5,0.25,0.25,1.75,10,9,9,9,9,0,,,,,,,,,,,,,,,,,,,,,,,,,,0,4,4,4,,,,,,,,,,,,,,,,,,,,num_4,2.115226299999989,num_4,0.45,0.7,0.25000000000000006,0.8,9.55138,30.5644,return,4.8615187999999705,,,,,,,,,,,,,,,,,714,22,male,up_down_width,2024-08-26_10h59.32.803,exp1,2023.1.0,59.83441424202769,
5,9,9.5,10,10.5,11,0.5,0.09999999999999998,0.4,2.4,10,9,9,9,9,9,,,,,,,,,,,,,,,,,,,,,,,,,,0,5,5,8,,,,,,,,,,,,,,,,,,,,num_4,1.4684263000000044,num_4,0.45,0.6,0.35000000000000003,0.7,13.37193,26.74385,return,8.78460830000003,,,,,,,,,,,,,,,,,714,22,male,up_down_width,2024-08-26_10h59.32.803,exp1,2023.1.0,59.83441424202769,
5,8.6,9.3,10,10.7,11.4,0.7,0.29999999999999993,0.4,3.1999999999999997,10,9,9,9,9,9,,,,,,,,,,,,,,,,,,,,,,,,,,0,6,6,7,,,,,,,,,,,,,,,,,,,,num_4,1.7948148999999773,num_4,0.5,0.8,0.35000000000000003,0.8,13.37193,30.5644,return,6.090202000000005,,,,,,,,,,,,,,,,,714,22,male,up_down_width,2024-08-26_10h59.32.803,exp1,2023.1.0,59.83441424202769,
3,8.2,10,11.8,0,0,1.7999999999999998,1.4,0.4,4,10,9,9,9,0,0,,,,,,,,,,,,,,,,,,,,,,,,,,0,7,7,2,,,,,,,,,,,,,,,,,,,,num_3,1.5012630000000229,num_3,0.3,0.4,0.35,1.0,13.37193,38.2055,return,9.964684199999994,,,,,,,,,,,,,,,,,714,22,male,up_down_width,2024-08-26_10h59.32.803,exp1,2023.1.0,59.83441424202769,
4,9.5,9.833333333333334,10.166666666666666,10.5,0,0.33333333333333337,0.23333333333333336,0.1,1.1,10,9,9,9,9,0,,,,,,,,,,,,,,,,,,,,,,,,,,0,8,8,3,,,,,,,,,,,,,,,,,,,,num_3,1.3749703999999667,num_3,0.2,1.2,0.15000000000000002,1.2,5.73083,45.8466,return,3.67848989999996,,,,,,,,,,,,,,,,,714,22,male,up_down_width,2024-08-26_10h59.32.803,exp1,2023.1.0,59.83441424202769,
,,,,,,,,,,,,,,,,,,,,,,,,,,,,,,,,,,,,,,,,,,,,,,,,,,,,,,,,,,,,,,,,,,,,,,,,,,,c,126.94428789999992,,,,,,,,,,,,,,,714,22,male,up_down_width,2024-08-26_10h59.32.803,exp1,2023.1.0,59.83441424202769,
,,,,,,,,,,,,,,,,4,8.65,9.55,10.45,11.35,0,0.9,0.35,0.55,3.25,10,initial,36.05,312,344,377,409,0,9,9,9,9,0,,,,,,,0,0,0,0,0,0,0,28,,,,,,,,,,,,num_4,1.075293999999957,num_4,0.25,0.6,0.39999999999999997,0.8,15.2822,30.5644,return,3.528365199999911,,,,,,,,,,,,,,,,,714,22,male,up_down_width,2024-08-26_10h59.32.803,exp1,2023.1.0,59.83441424202769,
,,,,,,,,,,,,,,,,4,8.65,9.55,10.45,11.35,0,0.9,0.5,0.4,3.1,10,initial,36.05,312,344,377,409,0,9,9,9,9,0,,,,,,,0,0,0,0,0,1,1,32,,,,,,,,,,,,num_4,1.011182899999966,num_4,0.35,1.2,0.35,0.8,13.37193,30.5644,return,3.433590799999905,,,,,,,,,,,,,,,,,714,22,male,up_down_width,2024-08-26_10h59.32.803,exp1,2023.1.0,59.83441424202769,
,,,,,,,,,,,,,,,,3,7.8,10,12.2,0,0,2.2,1.65,0.55,4.95,10,match,36.05,281,361,440,0,0,9,9,9,0,0,,,,,,,0,0,0,0,0,2,2,35,,,,,,,,,,,,num_3,1.333471899999921,num_3,0.2,0.8,0.39999999999999997,1.2,15.2822,45.8466,return,7.59795619999997,,,,,,,,,,,,,,,,,714,22,male,up_down_width,2024-08-26_10h59.32.803,exp1,2023.1.0,59.83441424202769,
,,,,,,,,,,,,,,,,4,8.65,9.55,10.45,11.35,0,0.9,0.65,0.25,2.95,10,initial,36.05,312,344,377,409,0,9,9,9,9,0,,,,,,,0,0,0,0,0,3,3,30,,,,,,,,,,,,num_4,0.8127006000000563,num_4,0.25,0.4,0.25,0.8,9.55138,30.5644,return,3.2745150999998884,,,,,,,,,,,,,,,,,714,22,male,up_down_width,2024-08-26_10h59.32.803,exp1,2023.1.0,59.83441424202769,
,,,,,,,,,,,,,,,,5,8.2,9.1,10,10.9,11.8,0.9,0.65,0.25,3.85,10,initial,36.05,296,328,361,393,425,9,9,9,9,9,,,,,,,0,0,0,0,0,4,4,48,,,,,,,,,,,,num_4,0.9759697000000358,num_4,0.25,1.3,0.25,1.3,9.55138,49.66716,return,1.1121783999999195,,,,,,,,,,,,,,,,,714,22,male,up_down_width,2024-08-26_10h59.32.803,exp1,2023.1.0,59.83441424202769,
,,,,,,,,,,,,,,,,5,8.6,9.3,10,10.7,11.4,0.7,0.1499999999999999,0.55,3.3499999999999996,10,initial,36.05,310,335,361,386,411,9,9,9,9,9,,,,,,,0,0,0,0,0,5,5,40,,,,,,,,,,,,num_4,1.5228812999999661,num_4,0.35,0.6,0.35,0.6,13.37193,22.9233,return,0.9003445000000454,,,,,,,,,,,,,,,,,714,22,male,up_down_width,2024-08-26_10h59.32.803,exp1,2023.1.0,59.83441424202769,
,,,,,,,,,,,,,,,,4,8.9,9.633333333333333,10.366666666666667,11.1,0,0.7333333333333333,0.18333333333333326,0.55,2.75,10,match,36.05,321,347,374,400,0,9,9,9,9,0,,,,,,,0,0,0,0,0,6,6,1,,,,,,,,,,,,num_4,0.9142526999999916,num_4,0.35,0.6,0.44999999999999996,0.7,17.19248,26.74385,return,4.141698300000002,,,,,,,,,,,,,,,,,714,22,male,up_down_width,2024-08-26_10h59.32.803,exp1,2023.1.0,59.83441424202769,
,,,,,,,,,,,,,,,,4,9.1,9.7,10.3,10.9,0,0.6000000000000001,0.20000000000000004,0.4,2.2,10,match,36.05,328,350,371,393,0,9,9,9,9,0,,,,,,,0,0,0,0,0,7,7,16,,,,,,,,,,,,num_4,0.8683889999999508,num_4,0.45,0.9,0.45,0.9,17.19248,34.38495,return,0.4640586999999812,,,,,,,,,,,,,,,,,714,22,male,up_down_width,2024-08-26_10h59.32.803,exp1,2023.1.0,59.83441424202769,
,,,,,,,,,,,,,,,,5,8.6,9.3,10,10.7,11.4,0.7,0.29999999999999993,0.4,3.1999999999999997,10,initial,36.05,310,335,361,386,411,9,9,9,9,9,,,,,,,0,0,0,0,0,8,8,44,,,,,,,,,,,,num_4,0.7625048999999251,num_4,0.5,0.6,0.30000000000000004,0.7,11.46165,26.74385,return,2.5871180999999694,,,,,,,,,,,,,,,,,714,22,male,up_down_width,2024-08-26_10h59.32.803,exp1,2023.1.0,59.83441424202769,
,,,,,,,,,,,,,,,,4,8.35,9.45,10.55,11.65,0,1.1,0.7000000000000001,0.4,3.7,10,initial,36.05,301,341,380,420,0,9,9,9,9,0,,,,,,,0,0,0,0,0,9,9,21,,,,,,,,,,,,num_4,0.7964483000000371,num_4,0.2,0.5,0.2,0.5,7.6411,19.10275,return,2.5717901999998674,,,,,,,,,,,,,,,,,714,22,male,up_down_width,2024-08-26_10h59.32.803,exp1,2023.1.0,59.83441424202769,
,,,,,,,,,,,,,,,,3,9.3,10,10.7,0,0,0.7,0.29999999999999993,0.4,1.8,10,initial,36.05,335,361,386,0,0,9,9,9,0,0,,,,,,,0,0,0,0,0,10,10,9,,,,,,,,,,,,num_3,0.8298254999999415,num_3,0.35,0.4,0.3,0.75,11.46165,28.65413,return,5.243653699999953,,,,,,,,,,,,,,,,,714,22,male,up_down_width,2024-08-26_10h59.32.803,exp1,2023.1.0,59.83441424202769,
,,,,,,,,,,,,,,,,4,8.35,9.45,10.55,11.65,0,1.1,0.55,0.55,3.8500000000000005,10,initial,36.05,301,341,380,420,0,9,9,9,9,0,,,,,,,0,0,0,0,0,11,11,17,,,,,,,,,,,,num_4,1.6029065999999546,num_4,0.45,0.7,0.35000000000000003,0.8,13.37193,30.5644,return,5.282494300000025,,,,,,,,,,,,,,,,,714,22,male,up_down_width,2024-08-26_10h59.32.803,exp1,2023.1.0,59.83441424202769,
,,,,,,,,,,,,,,,,5,8.65,9.325,10,10.675,11.35,0.675,0.42500000000000004,0.25,2.95,10,match,36.05,312,336,361,385,409,9,9,9,9,9,,,,,,,0,0,0,0,0,12,12,31,,,,,,,,,,,,num_4,1.039529999999985,num_4,0.3,0.8,0.3,0.8,11.46165,30.5644,return,0.9970481000000007,,,,,,,,,,,,,,,,,714,22,male,up_down_width,2024-08-26_10h59.32.803,exp1,2023.1.0,59.83441424202769,
,,,,,,,,,,,,,,,,3,8.525,10,11.475,0,0,1.475,1.225,0.25,3.2,10,match,36.05,307,361,414,0,0,9,9,9,0,0,,,,,,,0,0,0,0,0,13,13,45,,,,,,,,,,,,num_3,1.0149365999999134,num_3,0.55,1.3,0.15000000000000008,1.3,5.73083,49.66716,return,5.581667200000055,,,,,,,,,,,,,,,,,714,22,male,up_down_width,2024-08-26_10h59.32.803,exp1,2023.1.0,59.83441424202769,
,,,,,,,,,,,,,,,,4,8.825,9.608333333333333,10.391666666666667,11.175,0,0.7833333333333333,0.5333333333333333,0.25,2.6,10,match,36.05,318,346,375,403,0,9,9,9,9,0,,,,,,,0,0,0,0,0,14,14,5,,,,,,,,,,,,num_4,2.6254697999999905,num_4,0.4,0.5,0.10000000000000007,0.7,3.82055,26.74385,return,4.023632999999876,,,,,,,,,,,,,,,,,714,22,male,up_down_width,2024-08-26_10h59.32.803,exp1,2023.1.0,59.83441424202769,
,,,,,,,,,,,,,,,,4,8.95,9.65,10.35,11.05,0,0.7,0.1499999999999999,0.55,2.65,10,initial,36.05,323,348,373,398,0,9,9,9,9,0,,,,,,,0,0,0,0,0,15,15,23,,,,,,,,,,,,num_4,0.864432599999958,num_4,0.45,0.9,0.6000000000000001,1.0,22.9233,38.2055,return,3.1795872999999517,,,,,,,,,,,,,,,,,714,22,male,up_down_width,2024-08-26_10h59.32.803,exp1,2023.1.0,59.83441424202769,
,,,,,,,,,,,,,,,,3,8.9,10,11.1,0,0,1.1,0.8500000000000001,0.25,2.45,10,initial,36.05,321,361,400,0,0,9,9,9,0,0,,,,,,,0,0,0,0,0,16,16,2,,,,,,,,,,,,num_3,1.0067293000000461,num_3,0.5,0.9,0.25000000000000006,0.9,9.55138,34.38495,return,2.9173007999999925,,,,,,,,,,,,,,,,,714,22,male,up_down_width,2024-08-26_10h59.32.803,exp1,2023.1.0,59.83441424202769,
,,,,,,,,,,,,,,,,4,9.3,9.766666666666667,10.233333333333333,10.7,0,0.4666666666666667,0.06666666666666665,0.4,1.8,10,match,36.05,335,352,369,386,0,9,9,9,9,0,,,,,,,0,0,0,0,0,17,17,10,,,,,,,,,,,,num_3,1.0176710000000355,num_3,0.35,0.4,0.3,0.6,11.46165,22.9233,return,4.79955419999996,,,,,,,,,,,,,,,,,714,22,male,up_down_width,2024-08-26_10h59.32.803,exp1,2023.1.0,59.83441424202769,
,,,,,,,,,,,,,,,,3,9.3,10,10.7,0,0,0.7,0.44999999999999996,0.25,1.65,10,initial,36.05,335,361,386,0,0,9,9,9,0,0,,,,,,,0,0,0,0,0,18,18,7,,,,,,,,,,,,num_3,1.1176387999999804,num_3,0.55,0.9,0.20000000000000007,0.9,7.6411,34.38495,return,2.6713328000000445,,,,,,,,,,,,,,,,,714,22,male,up_down_width,2024-08-26_10h59.32.803,exp1,2023.1.0,59.83441424202769,
,,,,,,,,,,,,,,,,5,8.35,9.175,10,10.825,11.65,0.825,0.575,0.25,3.55,10,match,36.05,301,331,361,390,420,9,9,9,9,9,,,,,,,0,0,0,0,0,19,19,20,,,,,,,,,,,,num_4,1.0322347999999408,num_4,0.35,1.3,0.25,1.3,9.55138,49.66716,return,2.5735388999999884,,,,,,,,,,,,,,,,,714,22,male,up_down_width,2024-08-26_10h59.32.803,exp1,2023.1.0,59.83441424202769,
,,,,,,,,,,,,,,,,5,7.8,8.9,10,11.1,12.2,1.1,0.55,0.55,4.95,10,initial,36.05,281,321,361,400,440,9,9,9,9,9,,,,,,,0,0,0,0,0,20,20,34,,,,,,,,,,,,num_4,0.9851401999999041,num_4,0.3,1.3,0.39999999999999997,1.3,15.2822,49.66716,return,3.934341099999955,,,,,,,,,,,,,,,,,714,22,male,up_down_width,2024-08-26_10h59.32.803,exp1,2023.1.0,59.83441424202769,
,,,,,,,,,,,,,,,,5,8.95,9.475,10,10.525,11.05,0.525,0.125,0.4,2.5,10,match,36.05,323,342,361,379,398,9,9,9,9,9,,,,,,,0,0,0,0,0,21,21,27,,,,,,,,,,,,num_4,1.221549700000054,num_4,0.5,1.2,0.4,0.7,15.2822,26.74385,return,4.068352699999963,,,,,,,,,,,,,,,,,714,22,male,up_down_width,2024-08-26_10h59.32.803,exp1,2023.1.0,59.83441424202769,
,,,,,,,,,,,,,,,,3,9.1,10,10.9,0,0,0.9,0.35,0.55,2.35,10,initial,36.05,328,361,393,0,0,9,9,9,0,0,,,,,,,0,0,0,0,0,22,22,11,,,,,,,,,,,,num_3,0.8784454999999696,num_3,0.35,0.8,0.5499999999999999,0.95,21.01303,36.29523,return,3.419015099999882,,,,,,,,,,,,,,,,,714,22,male,up_down_width,2024-08-26_10h59.32.803,exp1,2023.1.0,59.83441424202769,
,,,,,,,,,,,,,,,,3,9.1,10,10.9,0,0,0.9,0.65,0.25,2.05,10,initial,36.05,328,361,393,0,0,9,9,9,0,0,,,,,,,0,0,0,0,0,23,23,13,,,,,,,,,,,,num_3,0.9159944000000166,num_3,0.55,1.2,0.20000000000000007,1.05,7.6411,40.11578,return,5.694190799999973,,,,,,,,,,,,,,,,,714,22,male,up_down_width,2024-08-26_10h59.32.803,exp1,2023.1.0,59.83441424202769,
,,,,,,,,,,,,,,,,5,8.65,9.325,10,10.675,11.35,0.675,0.275,0.4,3.1,10,match,36.05,312,336,361,385,409,9,9,9,9,9,,,,,,,0,0,0,0,0,24,24,33,,,,,,,,,,,,num_4,0.7911530999999457,num_4,0.3,0.8,0.3,0.8,11.46165,30.5644,return,2.1031173999999453,,,,,,,,,,,,,,,,,714,22,male,up_down_width,2024-08-26_10h59.32.803,exp1,2023.1.0,59.83441424202769,
,,,,,,,,,,,,,,,,5,8.95,9.475,10,10.525,11.05,0.525,0.275,0.25,2.35,10,match,36.05,323,342,361,379,398,9,9,9,9,9,,,,,,,0,0,0,0,0,25,25,25,,,,,,,,,,,,num_4,0.7783835999999553,num_4,0.45,0.9,0.25000000000000006,0.9,9.55138,34.38495,return,2.266031799999922,,,,,,,,,,,,,,,,,714,22,male,up_down_width,2024-08-26_10h59.32.803,exp1,2023.1.0,59.83441424202769,
,,,,,,,,,,,,,,,,5,8.35,9.175,10,10.825,11.65,0.8250000000000001,0.275,0.55,3.85,10,match,36.05,301,331,361,390,420,9,9,9,9,9,,,,,,,0,0,0,0,0,26,26,18,,,,,,,,,,,,num_4,0.7844162999999469,num_4,0.2,1.0,0.39999999999999997,1.0,15.2822,38.2055,return,2.0324053999999876,,,,,,,,,,,,,,,,,714,22,male,up_down_width,2024-08-26_10h59.32.803,exp1,2023.1.0,59.83441424202769,
,,,,,,,,,,,,,,,,3,8.2,10,11.8,0,0,1.8,1.55,0.25,3.85,10,match,36.05,296,361,425,0,0,9,9,9,0,0,,,,,,,0,0,0,0,0,27,27,49,,,,,,,,,,,,num_3,1.0785822999999652,num_3,0.2,0.4,0.15000000000000002,1.0,5.73083,38.2055,return,7.7702831,,,,,,,,,,,,,,,,,714,22,male,up_down_width,2024-08-26_10h59.32.803,exp1,2023.1.0,59.83441424202769,
,,,,,,,,,,,,,,,,5,8.65,9.325,10,10.675,11.35,0.675,0.125,0.55,3.25,10,match,36.05,312,336,361,385,409,9,9,9,9,9,,,,,,,0,0,0,0,0,28,28,29,,,,,,,,,,,,num_4,0.7418875999998988,num_4,0.5,0.6,0.5,1.1,19.10275,42.02605,return,2.5664977999999508,,,,,,,,,,,,,,,,,714,22,male,up_down_width,2024-08-26_10h59.32.803,exp1,2023.1.0,59.83441424202769,
,,,,,,,,,,,,,,,,4,8.95,9.65,10.35,11.05,0,0.7,0.44999999999999996,0.25,2.3499999999999996,10,initial,36.05,323,348,373,398,0,9,9,9,9,0,,,,,,,0,0,0,0,0,29,29,24,,,,,,,,,,,,num_4,1.202749599999919,num_4,0.55,0.9,0.15000000000000008,0.8,5.73083,30.5644,return,5.025822499999975,,,,,,,,,,,,,,,,,714,22,male,up_down_width,2024-08-26_10h59.32.803,exp1,2023.1.0,59.83441424202769,
,,,,,,,,,,,,,,,,3,8.2,10,11.8,0,0,1.7999999999999998,1.4,0.4,4,10,match,36.05,296,361,425,0,0,9,9,9,0,0,,,,,,,0,0,0,0,0,30,30,51,,,,,,,,,,,,num_3,0.9463394000000278,num_3,0.4,0.8,0.45,1.5,17.19248,57.30826,return,6.807872800000013,,,,,,,,,,,,,,,,,714,22,male,up_down_width,2024-08-26_10h59.32.803,exp1,2023.1.0,59.83441424202769,
,,,,,,,,,,,,,,,,5,7.8,8.9,10,11.1,12.2,1.1,0.7000000000000001,0.4,4.800000000000001,10,initial,36.05,281,321,361,400,440,9,9,9,9,9,,,,,,,0,0,0,0,0,31,31,38,,,,,,,,,,,,num_4,0.887782900000019,num_4,0.55,1.3,0.4,1.5,15.2822,57.30826,return,3.4596592000000044,,,,,,,,,,,,,,,,,714,22,male,up_down_width,2024-08-26_10h59.32.803,exp1,2023.1.0,59.83441424202769,
,,,,,,,,,,,,,,,,3,7.800000000000001,10,12.2,0,0,2.1999999999999997,1.7999999999999998,0.4,4.8,10,match,36.05,281,361,440,0,0,9,9,9,0,0,,,,,,,0,0,0,0,0,32,32,39,,,,,,,,,,,,num_3,0.8491984999999147,num_3,0.55,0.8,0.35000000000000003,2.0,13.37193,76.41101,return,6.31375199999988,,,,,,,,,,,,,,,,,714,22,male,up_down_width,2024-08-26_10h59.32.803,exp1,2023.1.0,59.83441424202769,
,,,,,,,,,,,,,,,,5,8.275,9.1375,10,10.8625,11.725,0.8625,0.6125,0.25,3.7,10,match,36.05,298,329,361,392,423,9,9,9,9,9,,,,,,,0,0,0,0,0,33,33,22,,,,,,,,,,,,num_4,0.7577934999999059,num_4,0.3,0.7,0.2,1.3,7.6411,49.66716,return,3.190325999999999,,,,,,,,,,,,,,,,,714,22,male,up_down_width,2024-08-26_10h59.32.803,exp1,2023.1.0,59.83441424202769,
,,,,,,,,,,,,,,,,3,8.9,10,11.1,0,0,1.1,0.7000000000000001,0.4,2.6000000000000005,10,initial,36.05,321,361,400,0,0,9,9,9,0,0,,,,,,,0,0,0,0,0,34,34,4,,,,,,,,,,,,num_3,0.9478675999999666,num_3,0.4,1.2,0.35000000000000003,1.45,13.37193,55.39798,return,4.858333399999964,,,,,,,,,,,,,,,,,714,22,male,up_down_width,2024-08-26_10h59.32.803,exp1,2023.1.0,59.83441424202769,
,,,,,,,,,,,,,,,,5,8.6,9.3,10,10.7,11.4,0.7,0.44999999999999996,0.25,3.05,10,initial,36.05,310,335,361,386,411,9,9,9,9,9,,,,,,,0,0,0,0,0,35,35,42,,,,,,,,,,,,num_5,1.1227427999999406,num_5,0.55,0.9,0.15000000000000008,0.95,5.73083,36.29523,return,3.488625699999915,,,,,,,,,,,,,,,,,714,22,male,up_down_width,2024-08-26_10h59.32.803,exp1,2023.1.0,59.83441424202769,
,,,,,,,,,,,,,,,,3,8.6,10,11.4,0,0,1.4,0.85,0.55,3.35,10,match,36.05,310,361,411,0,0,9,9,9,0,0,,,,,,,0,0,0,0,0,36,36,41,,,,,,,,,,,,num_3,0.841377299999948,num_3,0.25,0.4,0.44999999999999996,0.95,17.19248,36.29523,return,4.962395399999963,,,,,,,,,,,,,,,,,714,22,male,up_down_width,2024-08-26_10h59.32.803,exp1,2023.1.0,59.83441424202769,
,,,,,,,,,,,,,,,,3,8.9,10,11.1,0,0,1.1,0.55,0.55,2.75,10,initial,36.05,321,361,400,0,0,9,9,9,0,0,,,,,,,0,0,0,0,0,37,37,0,,,,,,,,,,,,num_3,1.0570736999999042,num_3,0.35,1,0.49999999999999994,1.15,19.10275,43.93633,return,2.8160948999999107,,,,,,,,,,,,,,,,,714,22,male,up_down_width,2024-08-26_10h59.32.803,exp1,2023.1.0,59.83441424202769,
,,,,,,,,,,,,,,,,4,9.1,9.7,10.3,10.9,0,0.5999999999999999,0.3499999999999999,0.25,2.05,10,match,36.05,328,350,371,393,0,9,9,9,9,0,,,,,,,0,0,0,0,0,38,38,14,,,,,,,,,,,,num_3,0.8012458000000322,num_3,0.5,1.1,0.4,1.1,15.2822,42.02605,return,1.693814299999957,,,,,,,,,,,,,,,,,714,22,male,up_down_width,2024-08-26_10h59.32.803,exp1,2023.1.0,59.83441424202769,
,,,,,,,,,,,,,,,,5,8.2,9.1,10,10.9,11.8,0.9,0.35,0.55,4.15,10,initial,36.05,296,328,361,393,425,9,9,9,9,9,,,,,,,0,0,0,0,0,39,39,46,,,,,,,,,,,,num_4,0.8482635000000016,num_4,0.25,0.6,0.44999999999999996,0.9,17.19248,34.38495,return,6.140842600000013,,,,,,,,,,,,,,,,,714,22,male,up_down_width,2024-08-26_10h59.32.803,exp1,2023.1.0,59.83441424202769,
,,,,,,,,,,,,,,,,3,8.2,10,11.8,0,0,1.8,1.25,0.55,4.15,10,match,36.05,296,361,425,0,0,9,9,9,0,0,,,,,,,0,0,0,0,0,40,40,47,,,,,,,,,,,,num_3,0.9859686999999155,num_3,0.45,1.1,0.55,1.4,21.01303,53.48771,return,4.091962399999915,,,,,,,,,,,,,,,,,714,22,male,up_down_width,2024-08-26_10h59.32.803,exp1,2023.1.0,59.83441424202769,
,,,,,,,,,,,,,,,,3,9.1,10,10.9,0,0,0.9,0.5,0.4,2.2,10,initial,36.05,328,361,393,0,0,9,9,9,0,0,,,,,,,0,0,0,0,0,41,41,15,,,,,,,,,,,,num_3,0.8393831999999009,num_3,0.5,1.1,0.45,1.1,17.19248,42.02605,return,3.1205763000000104,,,,,,,,,,,,,,,,,714,22,male,up_down_width,2024-08-26_10h59.32.803,exp1,2023.1.0,59.83441424202769,
,,,,,,,,,,,,,,,,3,9.3,10,10.7,0,0,0.7,0.1499999999999999,0.55,1.95,10,initial,36.05,335,361,386,0,0,9,9,9,0,0,,,,,,,0,0,0,0,0,42,42,6,,,,,,,,,,,,num_3,0.9547075999999777,num_3,0.4,0.6,0.55,0.8,21.01303,30.5644,return,2.690585499999969,,,,,,,,,,,,,,,,,714,22,male,up_down_width,2024-08-26_10h59.32.803,exp1,2023.1.0,59.83441424202769,
,,,,,,,,,,,,,,,,4,8.95,9.65,10.35,11.05,0,0.7,0.29999999999999993,0.4,2.5,10,initial,36.05,323,348,373,398,0,9,9,9,9,0,,,,,,,0,0,0,0,0,43,43,26,,,,,,,,,,,,num_3,0.9772975000000486,num_3,0.55,0.6,0.4,0.6,15.2822,22.9233,return,2.4403236000000277,,,,,,,,,,,,,,,,,714,22,male,up_down_width,2024-08-26_10h59.32.803,exp1,2023.1.0,59.83441424202769,
,,,,,,,,,,,,,,,,4,9.1,9.7,10.3,10.9,0,0.6,0.04999999999999997,0.55,2.35,10,match,36.05,328,350,371,393,0,9,9,9,9,0,,,,,,,0,0,0,0,0,44,44,12,,,,,,,,,,,,num_3,0.6963044999998544,num_3,0.25,0.8,0.5499999999999999,1.05,21.01303,40.11578,return,2.998809699999896,,,,,,,,,,,,,,,,,714,22,male,up_down_width,2024-08-26_10h59.32.803,exp1,2023.1.0,59.83441424202769,
,,,,,,,,,,,,,,,,5,8.2,9.1,10,10.9,11.8,0.9,0.5,0.4,4,10,initial,36.05,296,328,361,393,425,9,9,9,9,9,,,,,,,0,0,0,0,0,45,45,50,,,,,,,,,,,,num_4,0.9659555000000353,num_4,0.35,0.7,0.39999999999999997,1.0,15.2822,38.2055,return,4.268861299999884,,,,,,,,,,,,,,,,,714,22,male,up_down_width,2024-08-26_10h59.32.803,exp1,2023.1.0,59.83441424202769,
,,,,,,,,,,,,,,,,3,8.6,10,11.4,0,0,1.4,1.15,0.25,3.05,10,match,36.05,310,361,411,0,0,9,9,9,0,0,,,,,,,0,0,0,0,0,46,46,43,,,,,,,,,,,,num_3,0.9456946999999616,num_3,0.4,0.6,0.25000000000000006,0.9,9.55138,34.38495,return,4.692599899999976,,,,,,,,,,,,,,,,,714,22,male,up_down_width,2024-08-26_10h59.32.803,exp1,2023.1.0,59.83441424202769,
,,,,,,,,,,,,,,,,4,9.3,9.766666666666667,10.233333333333333,10.7,0,0.4666666666666667,0.21666666666666665,0.25,1.65,10,match,36.05,335,352,369,386,0,9,9,9,9,0,,,,,,,0,0,0,0,0,47,47,8,,,,,,,,,,,,num_4,1.4084520999999484,num_4,0.3,1.0,0.15000000000000002,0.9,5.73083,34.38495,return,5.152062499999914,,,,,,,,,,,,,,,,,714,22,male,up_down_width,2024-08-26_10h59.32.803,exp1,2023.1.0,59.83441424202769,
,,,,,,,,,,,,,,,,3,7.8,10,12.2,0,0,2.2,1.9500000000000002,0.25,4.65,10,match,36.05,281,361,440,0,0,9,9,9,0,0,,,,,,,0,0,0,0,0,48,48,37,,,,,,,,,,,,num_3,0.8973069999999268,num_3,0.2,0.3,0.2,1.65,7.6411,63.03908,return,8.584772999999899,,,,,,,,,,,,,,,,,714,22,male,up_down_width,2024-08-26_10h59.32.803,exp1,2023.1.0,59.83441424202769,
,,,,,,,,,,,,,,,,4,8.35,9.45,10.55,11.65,0,1.1,0.8500000000000001,0.25,3.5500000000000003,10,initial,36.05,301,341,380,420,0,9,9,9,9,0,,,,,,,0,0,0,0,0,49,49,19,,,,,,,,,,,,num_4,1.1257877999999835,num_4,0.45,1.0,0.20000000000000007,1.4,7.6411,53.48771,return,4.147729899999916,,,,,,,,,,,,,,,,,714,22,male,up_down_width,2024-08-26_10h59.32.803,exp1,2023.1.0,59.83441424202769,
,,,,,,,,,,,,,,,,4,8.9,9.633333333333333,10.366666666666667,11.1,0,0.7333333333333334,0.4833333333333334,0.25,2.45,10,match,36.05,321,347,374,400,0,9,9,9,9,0,,,,,,,0,0,0,0,0,50,50,3,,,,,,,,,,,,num_4,0.8052921000000595,num_4,0.2,0.4,0.25,0.8,9.55138,30.5644,return,4.414271599999978,,,,,,,,,,,,,,,,,714,22,male,up_down_width,2024-08-26_10h59.32.803,exp1,2023.1.0,59.83441424202769,
,,,,,,,,,,,,,,,,5,7.8,8.9,10,11.1,12.2,1.1,0.8500000000000001,0.25,4.65,10,initial,36.05,281,321,361,400,440,9,9,9,9,9,,,,,,,0,0,0,0,0,51,51,36,,,,,,,,,,,,num_5,1.5355834999998876,num_5,0.2,1.3,0.2,1.3,7.6411,49.66716,return,1.0515019999998856,,,,,,,,,,,,,,,,,714,22,male,up_down_width,2024-08-26_10h59.32.803,exp1,2023.1.0,59.83441424202769,
,,,,,,,,,,,,,,,,,,,,,,,,,,,,,,,,,,,,,,,,,,,,,0,0,0,0,,,,,,,,,,,,,,,,,,,,,,,,,,,,,773.629092,773.629092,773.629092,,,,,,,,,,,,714,22,male,up_down_width,2024-08-26_10h59.32.803,exp1,2023.1.0,59.83441424202769,
,,,,,,,,,,,,,,,,5,7.8,8.9,10,11.1,12.2,1.1,0.7000000000000001,0.4,4.800000000000001,10,initial,36.05,281,321,361,400,440,9,9,9,9,9,,,,,,,1,0,1,0,0,0,0,38,,,,,,,,,,,,num_4,0.8525470999998959,num_4,0.45,1.0,0.4,1.0,15.2822,38.2055,return,1.403746899999959,,,,,,,,,,,,,,,,,714,22,male,up_down_width,2024-08-26_10h59.32.803,exp1,2023.1.0,59.83441424202769,
,,,,,,,,,,,,,,,,5,8.65,9.325,10,10.675,11.35,0.675,0.275,0.4,3.1,10,match,36.05,312,336,361,385,409,9,9,9,9,9,,,,,,,1,0,1,0,0,1,1,33,,,,,,,,,,,,num_4,0.7899025999999765,num_4,0.45,1.1,0.30000000000000004,1.1,11.46165,42.02605,return,1.6691014999999823,,,,,,,,,,,,,,,,,714,22,male,up_down_width,2024-08-26_10h59.32.803,exp1,2023.1.0,59.83441424202769,
,,,,,,,,,,,,,,,,4,9.1,9.7,10.3,10.9,0,0.6000000000000001,0.20000000000000004,0.4,2.2,10,match,36.05,328,350,371,393,0,9,9,9,9,0,,,,,,,1,0,1,0,0,2,2,16,,,,,,,,,,,,num_4,1.0018533999999306,num_4,0.5,1.0,0.30000000000000004,1.0,11.46165,38.2055,return,1.5840530999999771,,,,,,,,,,,,,,,,,714,22,male,up_down_width,2024-08-26_10h59.32.803,exp1,2023.1.0,59.83441424202769,
,,,,,,,,,,,,,,,,4,8.35,9.45,10.55,11.65,0,1.1,0.8500000000000001,0.25,3.5500000000000003,10,initial,36.05,301,341,380,420,0,9,9,9,9,0,,,,,,,1,0,1,0,0,3,3,19,,,,,,,,,,,,num_4,0.7510179000000505,num_4,0.2,0.5,0.2,1.2,7.6411,45.8466,return,3.4321108999999694,,,,,,,,,,,,,,,,,714,22,male,up_down_width,2024-08-26_10h59.32.803,exp1,2023.1.0,59.83441424202769,
,,,,,,,,,,,,,,,,5,8.275,9.1375,10,10.8625,11.725,0.8625,0.6125,0.25,3.7,10,match,36.05,298,329,361,392,423,9,9,9,9,9,,,,,,,1,0,1,0,0,4,4,22,,,,,,,,,,,,num_4,0.7659130999998922,num_4,0.25,1.3,0.25,1.3,9.55138,49.66716,return,1.1958853999999235,,,,,,,,,,,,,,,,,714,22,male,up_down_width,2024-08-26_10h59.32.803,exp1,2023.1.0,59.83441424202769,
,,,,,,,,,,,,,,,,4,9.3,9.766666666666667,10.233333333333333,10.7,0,0.4666666666666667,0.06666666666666665,0.4,1.8,10,match,36.05,335,352,369,386,0,9,9,9,9,0,,,,,,,1,0,1,0,0,5,5,10,,,,,,,,,,,,num_3,0.855559199999874,num_3,0.5,1.3,0.35000000000000003,0.85,13.37193,32.47468,return,3.620166699999885,,,,,,,,,,,,,,,,,714,22,male,up_down_width,2024-08-26_10h59.32.803,exp1,2023.1.0,59.83441424202769,
,,,,,,,,,,,,,,,,3,7.800000000000001,10,12.2,0,0,2.1999999999999997,1.7999999999999998,0.4,4.8,10,match,36.05,281,361,440,0,0,9,9,9,0,0,,,,,,,1,0,1,0,0,6,6,39,,,,,,,,,,,,num_3,0.9609162999999796,num_3,0.2,1,0.35,1.75,13.37193,66.85963,return,7.349393999999933,,,,,,,,,,,,,,,,,714,22,male,up_down_width,2024-08-26_10h59.32.803,exp1,2023.1.0,59.83441424202769,
,,,,,,,,,,,,,,,,3,8.6,10,11.4,0,0,1.4,0.85,0.55,3.35,10,match,36.05,310,361,411,0,0,9,9,9,0,0,,,,,,,1,0,1,0,0,7,7,41,,,,,,,,,,,,num_3,1.334577400000029,num_3,0.25,0.4,0.39999999999999997,0.9,15.2822,34.38495,return,4.013478099999901,,,,,,,,,,,,,,,,,714,22,male,up_down_width,2024-08-26_10h59.32.803,exp1,2023.1.0,59.83441424202769,
,,,,,,,,,,,,,,,,5,8.35,9.175,10,10.825,11.65,0.8250000000000001,0.275,0.55,3.85,10,match,36.05,301,331,361,390,420,9,9,9,9,9,,,,,,,1,0,1,0,0,8,8,18,,,,,,,,,,,,num_4,0.6852327000000002,num_4,0.25,1.0,0.49999999999999994,1.2,19.10275,45.8466,return,2.6871137999999917,,,,,,,,,,,,,,,,,714,22,male,up_down_width,2024-08-26_10h59.32.803,exp1,2023.1.0,59.83441424202769,
,,,,,,,,,,,,,,,,5,8.6,9.3,10,10.7,11.4,0.7,0.44999999999999996,0.25,3.05,10,initial,36.05,310,335,361,386,411,9,9,9,9,9,,,,,,,1,0,1,0,0,9,9,42,,,,,,,,,,,,num_4,1.169727399999914,num_4,0.4,0.6,0.4,1.0,15.2822,38.2055,return,5.068175099999934,,,,,,,,,,,,,,,,,714,22,male,up_down_width,2024-08-26_10h59.32.803,exp1,2023.1.0,59.83441424202769,
,,,,,,,,,,,,,,,,3,8.525,10,11.475,0,0,1.475,1.225,0.25,3.2,10,match,36.05,307,361,414,0,0,9,9,9,0,0,,,,,,,1,0,1,0,0,10,10,45,,,,,,,,,,,,num_3,0.6850345999999661,num_3,0.25,1,0.2,1.2,7.6411,45.8466,return,3.452964899999955,,,,,,,,,,,,,,,,,714,22,male,up_down_width,2024-08-26_10h59.32.803,exp1,2023.1.0,59.83441424202769,
,,,,,,,,,,,,,,,,4,8.35,9.45,10.55,11.65,0,1.1,0.7000000000000001,0.4,3.7,10,initial,36.05,301,341,380,420,0,9,9,9,9,0,,,,,,,1,0,1,0,0,11,11,21,,,,,,,,,,,,num_3,0.6638202000000035,num_3,0.45,0.7,0.30000000000000004,1.25,11.46165,47.75688,return,4.156376399999971,,,,,,,,,,,,,,,,,714,22,male,up_down_width,2024-08-26_10h59.32.803,exp1,2023.1.0,59.83441424202769,
,,,,,,,,,,,,,,,,4,8.825,9.608333333333333,10.391666666666667,11.175,0,0.7833333333333333,0.5333333333333333,0.25,2.6,10,match,36.05,318,346,375,403,0,9,9,9,9,0,,,,,,,1,0,1,0,0,12,12,5,,,,,,,,,,,,num_3,5.663539999999983,num_3,0.3,0.4,0.25,0.95,9.55138,36.29523,return,3.4895296999997925,,,,,,,,,,,,,,,,,714,22,male,up_down_width,2024-08-26_10h59.32.803,exp1,2023.1.0,59.83441424202769,
,,,,,,,,,,,,,,,,3,9.1,10,10.9,0,0,0.9,0.65,0.25,2.05,10,initial,36.05,328,361,393,0,0,9,9,9,0,0,,,,,,,1,0,1,0,0,13,13,13,,,,,,,,,,,,num_3,1.0109867000000747,num_3,0.4,0.9,0.20000000000000007,0.95,7.6411,36.29523,return,2.6601436999999066,,,,,,,,,,,,,,,,,714,22,male,up_down_width,2024-08-26_10h59.32.803,exp1,2023.1.0,59.83441424202769,
,,,,,,,,,,,,,,,,5,8.6,9.3,10,10.7,11.4,0.7,0.1499999999999999,0.55,3.3499999999999996,10,initial,36.05,310,335,361,386,411,9,9,9,9,9,,,,,,,1,0,1,0,0,14,14,40,,,,,,,,,,,,num_4,0.7588001999999676,num_4,0.25,0.9,0.5499999999999999,1.0,21.01303,38.2055,return,2.3863644000000193,,,,,,,,,,,,,,,,,714,22,male,up_down_width,2024-08-26_10h59.32.803,exp1,2023.1.0,59.83441424202769,
,,,,,,,,,,,,,,,,3,9.1,10,10.9,0,0,0.9,0.35,0.55,2.35,10,initial,36.05,328,361,393,0,0,9,9,9,0,0,,,,,,,1,0,1,0,0,15,15,11,,,,,,,,,,,,num_3,0.6992784999999628,num_3,0.2,0.4,0.39999999999999997,0.6,15.2822,22.9233,return,3.367134299999833,,,,,,,,,,,,,,,,,714,22,male,up_down_width,2024-08-26_10h59.32.803,exp1,2023.1.0,59.83441424202769,
,,,,,,,,,,,,,,,,3,8.6,10,11.4,0,0,1.4,1.15,0.25,3.05,10,match,36.05,310,361,411,0,0,9,9,9,0,0,,,,,,,1,0,1,0,0,16,16,43,,,,,,,,,,,,num_3,0.8356327999999564,num_3,0.45,0.8,0.25000000000000006,0.85,9.55138,32.47468,return,4.173152399999907,,,,,,,,,,,,,,,,,714,22,male,up_down_width,2024-08-26_10h59.32.803,exp1,2023.1.0,59.83441424202769,
,,,,,,,,,,,,,,,,5,8.65,9.325,10,10.675,11.35,0.675,0.42500000000000004,0.25,2.95,10,match,36.05,312,336,361,385,409,9,9,9,9,9,,,,,,,1,0,1,0,0,17,17,31,,,,,,,,,,,,num_4,2.411160300000091,num_4,0.35,0.6,0.35,0.6,13.37193,22.9233,return,14.644731699999937,,,,,,,,,,,,,,,,,714,22,male,up_down_width,2024-08-26_10h59.32.803,exp1,2023.1.0,59.83441424202769,
,,,,,,,,,,,,,,,,4,8.95,9.65,10.35,11.05,0,0.7,0.1499999999999999,0.55,2.65,10,initial,36.05,323,348,373,398,0,9,9,9,9,0,,,,,,,1,0,1,0,0,18,18,23,,,,,,,,,,,,num_4,1.4815061999999841,num_4,0.3,0.8,0.3,0.8,11.46165,30.5644,return,1.5127981000000261,,,,,,,,,,,,,,,,,714,22,male,up_down_width,2024-08-26_10h59.32.803,exp1,2023.1.0,59.83441424202769,
,,,,,,,,,,,,,,,,5,8.2,9.1,10,10.9,11.8,0.9,0.5,0.4,4,10,initial,36.05,296,328,361,393,425,9,9,9,9,9,,,,,,,1,0,1,0,0,19,19,50,,,,,,,,,,,,num_4,0.8659807000001081,num_4,0.25,1.2,0.25,1.1,9.55138,42.02605,return,19.344074699999936,,,,,,,,,,,,,,,,,714,22,male,up_down_width,2024-08-26_10h59.32.803,exp1,2023.1.0,59.83441424202769,
,,,,,,,,,,,,,,,,3,8.9,10,11.1,0,0,1.1,0.7000000000000001,0.4,2.6000000000000005,10,initial,36.05,321,361,400,0,0,9,9,9,0,0,,,,,,,1,0,1,0,0,20,20,4,,,,,,,,,,,,num_3,3.0464036000000476,num_3,0.35,0.9,0.25,1.1,9.55138,42.02605,return,3.0310040999997625,,,,,,,,,,,,,,,,,714,22,male,up_down_width,2024-08-26_10h59.32.803,exp1,2023.1.0,59.83441424202769,
,,,,,,,,,,,,,,,,4,9.1,9.7,10.3,10.9,0,0.6,0.04999999999999997,0.55,2.35,10,match,36.05,328,350,371,393,0,9,9,9,9,0,,,,,,,1,0,1,0,0,21,21,12,,,,,,,,,,,,num_4,3.2858295999999143,num_4,0.25,0.4,0.44999999999999996,1.0,17.19248,38.2055,return,2.399710800000065,,,,,,,,,,,,,,,,,714,22,male,up_down_width,2024-08-26_10h59.32.803,exp1,2023.1.0,59.83441424202769,
,,,,,,,,,,,,,,,,3,7.8,10,12.2,0,0,2.2,1.9500000000000002,0.25,4.65,10,match,36.05,281,361,440,0,0,9,9,9,0,0,,,,,,,1,0,1,0,0,22,22,37,,,,,,,,,,,,num_3,0.743611399999935,num_3,0.35,1.3,0.2,1.75,7.6411,66.85963,return,4.370900599999885,,,,,,,,,,,,,,,,,714,22,male,up_down_width,2024-08-26_10h59.32.803,exp1,2023.1.0,59.83441424202769,
,,,,,,,,,,,,,,,,3,8.2,10,11.8,0,0,1.8,1.25,0.55,4.15,10,match,36.05,296,361,425,0,0,9,9,9,0,0,,,,,,,1,0,1,0,0,23,23,47,,,,,,,,,,,,num_3,0.6798759999998936,num_3,0.25,0.6,0.44999999999999996,1.3,17.19248,49.66716,return,4.359691500000025,,,,,,,,,,,,,,,,,714,22,male,up_down_width,2024-08-26_10h59.32.803,exp1,2023.1.0,59.83441424202769,
,,,,,,,,,,,,,,,,4,8.65,9.55,10.45,11.35,0,0.9,0.5,0.4,3.1,10,initial,36.05,312,344,377,409,0,9,9,9,9,0,,,,,,,1,0,1,0,0,24,24,32,,,,,,,,,,,,num_3,0.7684386000000529,num_3,0.25,1.1,0.44999999999999996,1.65,17.19248,63.03908,return,4.127971999999971,,,,,,,,,,,,,,,,,714,22,male,up_down_width,2024-08-26_10h59.32.803,exp1,2023.1.0,59.83441424202769,
,,,,,,,,,,,,,,,,4,9.3,9.766666666666667,10.233333333333333,10.7,0,0.4666666666666667,0.21666666666666665,0.25,1.65,10,match,36.05,335,352,369,386,0,9,9,9,9,0,,,,,,,1,0,1,0,0,25,25,8,,,,,,,,,,,,num_3,0.819627699999927,num_3,0.5,1.1,0.25000000000000006,1.25,9.55138,47.75688,return,2.785086800000016,,,,,,,,,,,,,,,,,714,22,male,up_down_width,2024-08-26_10h59.32.803,exp1,2023.1.0,59.83441424202769,
,,,,,,,,,,,,,,,,5,7.8,8.9,10,11.1,12.2,1.1,0.55,0.55,4.95,10,initial,36.05,281,321,361,400,440,9,9,9,9,9,,,,,,,1,0,1,0,0,26,26,34,,,,,,,,,,,,num_3,0.8517962999999042,num_3,0.45,1.2,0.35000000000000003,1.3,13.37193,49.66716,return,2.7162471999999696,,,,,,,,,,,,,,,,,714,22,male,up_down_width,2024-08-26_10h59.32.803,exp1,2023.1.0,59.83441424202769,
,,,,,,,,,,,,,,,,4,8.9,9.633333333333333,10.366666666666667,11.1,0,0.7333333333333333,0.18333333333333326,0.55,2.75,10,match,36.05,321,347,374,400,0,9,9,9,9,0,,,,,,,1,0,1,0,0,27,27,1,,,,,,,,,,,,num_3,0.7162923999999009,num_3,0.35,0.7,0.49999999999999994,1.0,19.10275,38.2055,return,2.618831599999993,,,,,,,,,,,,,,,,,714,22,male,up_down_width,2024-08-26_10h59.32.803,exp1,2023.1.0,59.83441424202769,
,,,,,,,,,,,,,,,,4,8.65,9.55,10.45,11.35,0,0.9,0.65,0.25,2.95,10,initial,36.05,312,344,377,409,0,9,9,9,9,0,,,,,,,1,0,1,0,0,28,28,30,,,,,,,,,,,,num_4,0.7402010999998936,num_4,0.45,0.9,0.35000000000000003,1.2,13.37193,45.8466,return,2.5116121999999166,,,,,,,,,,,,,,,,,714,22,male,up_down_width,2024-08-26_10h59.32.803,exp1,2023.1.0,59.83441424202769,
,,,,,,,,,,,,,,,,5,8.2,9.1,10,10.9,11.8,0.9,0.65,0.25,3.85,10,initial,36.05,296,328,361,393,425,9,9,9,9,9,,,,,,,1,0,1,0,0,29,29,48,,,,,,,,,,,,num_4,0.6850875999998323,num_4,0.2,0.5,0.2,0.9,7.6411,34.38495,return,2.814579699999939,,,,,,,,,,,,,,,,,714,22,male,up_down_width,2024-08-26_10h59.32.803,exp1,2023.1.0,59.83441424202769,
,,,,,,,,,,,,,,,,3,8.2,10,11.8,0,0,1.8,1.55,0.25,3.85,10,match,36.05,296,361,425,0,0,9,9,9,0,0,,,,,,,1,0,1,0,0,30,30,49,,,,,,,,,,,,num_3,0.8340613000000019,num_3,0.55,1.1,0.20000000000000007,1.3,7.6411,49.66716,return,4.0763325999998585,,,,,,,,,,,,,,,,,714,22,male,up_down_width,2024-08-26_10h59.32.803,exp1,2023.1.0,59.83441424202769,
,,,,,,,,,,,,,,,,3,8.9,10,11.1,0,0,1.1,0.8500000000000001,0.25,2.45,10,initial,36.05,321,361,400,0,0,9,9,9,0,0,,,,,,,1,0,1,0,0,31,31,2,,,,,,,,,,,,num_3,0.8029041999998014,num_3,0.45,0.6,0.20000000000000007,0.95,7.6411,36.29523,return,3.149516399999783,,,,,,,,,,,,,,,,,714,22,male,up_down_width,2024-08-26_10h59.32.803,exp1,2023.1.0,59.83441424202769,
,,,,,,,,,,,,,,,,3,9.3,10,10.7,0,0,0.7,0.1499999999999999,0.55,1.95,10,initial,36.05,335,361,386,0,0,9,9,9,0,0,,,,,,,1,0,1,0,0,32,32,6,,,,,,,,,,,,num_3,1.0531642000000545,num_3,0.2,0.5,0.3,0.85,11.46165,32.47468,return,4.813249300000024,,,,,,,,,,,,,,,,,714,22,male,up_down_width,2024-08-26_10h59.32.803,exp1,2023.1.0,59.83441424202769,
,,,,,,,,,,,,,,,,3,9.3,10,10.7,0,0,0.7,0.29999999999999993,0.4,1.8,10,initial,36.05,335,361,386,0,0,9,9,9,0,0,,,,,,,1,0,1,0,0,33,33,9,,,,,,,,,,,,num_3,0.648648300000076,num_3,0.2,0.8,0.35,0.95,13.37193,36.29523,return,3.00555099999994,,,,,,,,,,,,,,,,,714,22,male,up_down_width,2024-08-26_10h59.32.803,exp1,2023.1.0,59.83441424202769,
,,,,,,,,,,,,,,,,3,9.3,10,10.7,0,0,0.7,0.44999999999999996,0.25,1.65,10,initial,36.05,335,361,386,0,0,9,9,9,0,0,,,,,,,1,0,1,0,0,34,34,7,,,,,,,,,,,,num_3,0.6948019999999531,num_3,0.35,0.8,0.25,0.9,9.55138,34.38495,return,2.698147999999918,,,,,,,,,,,,,,,,,714,22,male,up_down_width,2024-08-26_10h59.32.803,exp1,2023.1.0,59.83441424202769,
,,,,,,,,,,,,,,,,4,9.1,9.7,10.3,10.9,0,0.5999999999999999,0.3499999999999999,0.25,2.05,10,match,36.05,328,350,371,393,0,9,9,9,9,0,,,,,,,1,0,1,0,0,35,35,14,,,,,,,,,,,,num_3,0.6992756000000497,num_3,0.5,1.2,0.30000000000000004,1.25,11.46165,47.75688,return,2.331429400000019,,,,,,,,,,,,,,,,,714,22,male,up_down_width,2024-08-26_10h59.32.803,exp1,2023.1.0,59.83441424202769,
,,,,,,,,,,,,,,,,3,9.1,10,10.9,0,0,0.9,0.5,0.4,2.2,10,initial,36.05,328,361,393,0,0,9,9,9,0,0,,,,,,,1,0,1,0,0,36,36,15,,,,,,,,,,,,num_3,0.6350312000000429,num_3,0.45,0.6,0.4,0.8,15.2822,30.5644,return,2.4621820000000696,,,,,,,,,,,,,,,,,714,22,male,up_down_width,2024-08-26_10h59.32.803,exp1,2023.1.0,59.83441424202769,
,,,,,,,,,,,,,,,,5,8.95,9.475,10,10.525,11.05,0.525,0.275,0.25,2.35,10,match,36.05,323,342,361,379,398,9,9,9,9,9,,,,,,,1,0,1,0,0,37,37,25,,,,,,,,,,,,num_4,0.7944422999999858,num_4,0.35,0.9,0.2,1.0,7.6411,38.2055,return,2.535637000000037,,,,,,,,,,,,,,,,,714,22,male,up_down_width,2024-08-26_10h59.32.803,exp1,2023.1.0,59.83441424202769,
,,,,,,,,,,,,,,,,5,8.35,9.175,10,10.825,11.65,0.825,0.575,0.25,3.55,10,match,36.05,301,331,361,390,420,9,9,9,9,9,,,,,,,1,0,1,0,0,38,38,20,,,,,,,,,,,,num_4,1.0284107000000802,num_4,0.2,1.3,0.3,1.1,11.46165,42.02605,return,3.3703633000000934,,,,,,,,,,,,,,,,,714,22,male,up_down_width,2024-08-26_10h59.32.803,exp1,2023.1.0,59.83441424202769,
,,,,,,,,,,,,,,,,4,8.95,9.65,10.35,11.05,0,0.7,0.44999999999999996,0.25,2.3499999999999996,10,initial,36.05,323,348,373,398,0,9,9,9,9,0,,,,,,,1,0,1,0,0,39,39,24,,,,,,,,,,,,num_4,0.7792577000001017,num_4,0.4,1.1,0.25000000000000006,1.1,9.55138,42.02605,return,2.858280100000087,,,,,,,,,,,,,,,,,714,22,male,up_down_width,2024-08-26_10h59.32.803,exp1,2023.1.0,59.83441424202769,
,,,,,,,,,,,,,,,,5,8.2,9.1,10,10.9,11.8,0.9,0.35,0.55,4.15,10,initial,36.05,296,328,361,393,425,9,9,9,9,9,,,,,,,1,0,1,0,0,40,40,46,,,,,,,,,,,,num_4,0.6876654000000997,num_4,0.4,1.0,0.45,1.0,17.19248,38.2055,return,1.087644499999982,,,,,,,,,,,,,,,,,714,22,male,up_down_width,2024-08-26_10h59.32.803,exp1,2023.1.0,59.83441424202769,
,,,,,,,,,,,,,,,,4,8.95,9.65,10.35,11.05,0,0.7,0.29999999999999993,0.4,2.5,10,initial,36.05,323,348,373,398,0,9,9,9,9,0,,,,,,,1,0,1,0,0,41,41,26,,,,,,,,,,,,num_4,0.5932163000000799,num_4,0.4,0.7,0.35000000000000003,0.7,13.37193,26.74385,return,2.1044631000000606,,,,,,,,,,,,,,,,,714,22,male,up_down_width,2024-08-26_10h59.32.803,exp1,2023.1.0,59.83441424202769,
,,,,,,,,,,,,,,,,5,8.65,9.325,10,10.675,11.35,0.675,0.125,0.55,3.25,10,match,36.05,312,336,361,385,409,9,9,9,9,9,,,,,,,1,0,1,0,0,42,42,29,,,,,,,,,,,,num_4,1.0128001999999867,num_4,0.2,0.9,0.44999999999999996,0.9,17.19248,34.38495,return,2.618767399999882,,,,,,,,,,,,,,,,,714,22,male,up_down_width,2024-08-26_10h59.32.803,exp1,2023.1.0,59.83441424202769,
,,,,,,,,,,,,,,,,5,7.8,8.9,10,11.1,12.2,1.1,0.8500000000000001,0.25,4.65,10,initial,36.05,281,321,361,400,440,9,9,9,9,9,,,,,,,1,0,1,0,0,43,43,36,,,,,,,,,,,,num_4,1.0076454000000865,num_4,0.35,1.2,0.3,1.7,11.46165,64.94936,return,2.163583900000134,,,,,,,,,,,,,,,,,714,22,male,up_down_width,2024-08-26_10h59.32.803,exp1,2023.1.0,59.83441424202769,
,,,,,,,,,,,,,,,,3,8.9,10,11.1,0,0,1.1,0.55,0.55,2.75,10,initial,36.05,321,361,400,0,0,9,9,9,0,0,,,,,,,1,0,1,0,0,44,44,0,,,,,,,,,,,,num_3,0.8173403000001542,num_3,0.35,0.9,0.49999999999999994,0.9,19.10275,34.38495,return,1.5933888000002696,,,,,,,,,,,,,,,,,714,22,male,up_down_width,2024-08-26_10h59.32.803,exp1,2023.1.0,59.83441424202769,
,,,,,,,,,,,,,,,,4,8.65,9.55,10.45,11.35,0,0.9,0.35,0.55,3.25,10,initial,36.05,312,344,377,409,0,9,9,9,9,0,,,,,,,1,0,1,0,0,45,45,28,,,,,,,,,,,,num_4,0.7072360000000515,num_4,0.25,1.2,0.5499999999999999,1.0,21.01303,38.2055,return,3.909443800000048,,,,,,,,,,,,,,,,,714,22,male,up_down_width,2024-08-26_10h59.32.803,exp1,2023.1.0,59.83441424202769,
,,,,,,,,,,,,,,,,3,7.8,10,12.2,0,0,2.2,1.65,0.55,4.95,10,match,36.05,281,361,440,0,0,9,9,9,0,0,,,,,,,1,0,1,0,0,46,46,35,,,,,,,,,,,,num_3,0.8348506000000668,num_3,0.2,1.1,0.49999999999999994,1.7,19.10275,64.94936,return,3.806368800000058,,,,,,,,,,,,,,,,,714,22,male,up_down_width,2024-08-26_10h59.32.803,exp1,2023.1.0,59.83441424202769,
,,,,,,,,,,,,,,,,5,8.95,9.475,10,10.525,11.05,0.525,0.125,0.4,2.5,10,match,36.05,323,342,361,379,398,9,9,9,9,9,,,,,,,1,0,1,0,0,47,47,27,,,,,,,,,,,,num_4,0.6170189000000335,num_4,0.55,0.9,0.30000000000000004,1.0,11.46165,38.2055,return,4.8647550000001445,,,,,,,,,,,,,,,,,714,22,male,up_down_width,2024-08-26_10h59.32.803,exp1,2023.1.0,59.83441424202769,
,,,,,,,,,,,,,,,,4,8.9,9.633333333333333,10.366666666666667,11.1,0,0.7333333333333334,0.4833333333333334,0.25,2.45,10,match,36.05,321,347,374,400,0,9,9,9,9,0,,,,,,,1,0,1,0,0,48,48,3,,,,,,,,,,,,num_4,0.7368073000000948,num_4,0.4,1.1,0.20000000000000007,1.0,7.6411,38.2055,return,2.926542600000033,,,,,,,,,,,,,,,,,714,22,male,up_down_width,2024-08-26_10h59.32.803,exp1,2023.1.0,59.83441424202769,
,,,,,,,,,,,,,,,,4,8.35,9.45,10.55,11.65,0,1.1,0.55,0.55,3.8500000000000005,10,initial,36.05,301,341,380,420,0,9,9,9,9,0,,,,,,,1,0,1,0,0,49,49,17,,,,,,,,,,,,num_4,0.6612367000001029,num_4,0.4,0.9,0.4,1.1,15.2822,42.02605,return,3.128370600000011,,,,,,,,,,,,,,,,,714,22,male,up_down_width,2024-08-26_10h59.32.803,exp1,2023.1.0,59.83441424202769,
,,,,,,,,,,,,,,,,3,8.2,10,11.8,0,0,1.7999999999999998,1.4,0.4,4,10,match,36.05,296,361,425,0,0,9,9,9,0,0,,,,,,,1,0,1,0,0,50,50,51,,,,,,,,,,,,num_3,0.8473329000001684,num_3,0.25,1.1,0.35,1.5,13.37193,57.30826,return,5.335122300000052,,,,,,,,,,,,,,,,,714,22,male,up_down_width,2024-08-26_10h59.32.803,exp1,2023.1.0,59.83441424202769,
,,,,,,,,,,,,,,,,5,8.6,9.3,10,10.7,11.4,0.7,0.29999999999999993,0.4,3.1999999999999997,10,initial,36.05,310,335,361,386,411,9,9,9,9,9,,,,,,,1,0,1,0,0,51,51,44,,,,,,,,,,,,num_4,0.7465279999999836,num_4,0.2,1.1,0.35,1.1,13.37193,42.02605,return,3.038836000000032,,,,,,,,,,,,,,,,,714,22,male,up_down_width,2024-08-26_10h59.32.803,exp1,2023.1.0,59.83441424202769,
,,,,,,,,,,,,,,,,,,,,,,,,,,,,,,,,,,,,,,,,,,,,,1,0,1,0,,,,,,,,,,,,,,,,,,,,,,,,,,,,,1114.9790925000002,1114.9790925000002,1114.9790925000002,,,,,,,,,,,,714,22,male,up_down_width,2024-08-26_10h59.32.803,exp1,2023.1.0,59.83441424202769,
,,,,,,,,,,,,,,,,5,8.65,9.325,10,10.675,11.35,0.675,0.125,0.55,3.25,10,match,36.05,312,336,361,385,409,9,9,9,9,9,,,,,,,2,0,2,0,0,0,0,29,,,,,,,,,,,,num_6,2.824512700000099,num_6,0.3,0.6,10.300000000000011,10.2,393.51669,389.69614,return,51.66965689999992,,,,,,,,,,,,,,,,,714,22,male,up_down_width,2024-08-26_10h59.32.803,exp1,2023.1.0,59.83441424202769,
,,,,,,,,,,,,,,,,4,8.35,9.45,10.55,11.65,0,1.1,0.8500000000000001,0.25,3.5500000000000003,10,initial,36.05,301,341,380,420,0,9,9,9,9,0,,,,,,,2,0,2,0,0,1,1,19,,,,,,,,,,,,num_4,0.7944739000000425,num_4,0.35,0.5,0.15000000000000002,0.7,5.73083,26.74385,return,2.505706700000104,,,,,,,,,,,,,,,,,714,22,male,up_down_width,2024-08-26_10h59.32.803,exp1,2023.1.0,59.83441424202769,
,,,,,,,,,,,,,,,,3,8.2,10,11.8,0,0,1.8,1.25,0.55,4.15,10,match,36.05,296,361,425,0,0,9,9,9,0,0,,,,,,,2,0,2,0,0,2,2,47,,,,,,,,,,,,num_3,1.0203120000001888,num_3,0.2,0.7,0.39999999999999997,0.95,15.2822,36.29523,return,3.410902200000095,,,,,,,,,,,,,,,,,714,22,male,up_down_width,2024-08-26_10h59.32.803,exp1,2023.1.0,59.83441424202769,
,,,,,,,,,,,,,,,,3,8.525,10,11.475,0,0,1.475,1.225,0.25,3.2,10,match,36.05,307,361,414,0,0,9,9,9,0,0,,,,,,,2,0,2,0,0,3,3,45,,,,,,,,,,,,num_3,0.6757275000000789,num_3,0.5,1.2,0.20000000000000007,1.4,7.6411,53.48771,return,2.0863584000001936,,,,,,,,,,,,,,,,,714,22,male,up_down_width,2024-08-26_10h59.32.803,exp1,2023.1.0,59.83441424202769,
,,,,,,,,,,,,,,,,3,7.8,10,12.2,0,0,2.2,1.9500000000000002,0.25,4.65,10,match,36.05,281,361,440,0,0,9,9,9,0,0,,,,,,,2,0,2,0,0,4,4,37,,,,,,,,,,,,num_3,0.7368962999999837,num_3,0.2,1.3,0.2,1.7,7.6411,64.94936,return,2.9428286000000696,,,,,,,,,,,,,,,,,714,22,male,up_down_width,2024-08-26_10h59.32.803,exp1,2023.1.0,59.83441424202769,
,,,,,,,,,,,,,,,,3,7.8,10,12.2,0,0,2.2,1.65,0.55,4.95,10,match,36.05,281,361,440,0,0,9,9,9,0,0,,,,,,,2,0,2,0,0,5,5,35,,,,,,,,,,,,num_3,0.6700112000001752,num_3,0.25,0.8,0.44999999999999996,1.45,17.19248,55.39798,return,3.564045400000026,,,,,,,,,,,,,,,,,714,22,male,up_down_width,2024-08-26_10h59.32.803,exp1,2023.1.0,59.83441424202769,
,,,,,,,,,,,,,,,,5,8.35,9.175,10,10.825,11.65,0.8250000000000001,0.275,0.55,3.85,10,match,36.05,301,331,361,390,420,9,9,9,9,9,,,,,,,2,0,2,0,0,6,6,18,,,,,,,,,,,,num_3,25.940405299999924,num_3,0.55,1.2,0.30000000000000004,1.45,11.46165,55.39798,return,2.3380313000000967,,,,,,,,,,,,,,,,,714,22,male,up_down_width,2024-08-26_10h59.32.803,exp1,2023.1.0,59.83441424202769,
,,,,,,,,,,,,,,,,5,8.6,9.3,10,10.7,11.4,0.7,0.44999999999999996,0.25,3.05,10,initial,36.05,310,335,361,386,411,9,9,9,9,9,,,,,,,2,0,2,0,0,7,7,42,,,,,,,,,,,,num_4,0.7935733000002472,num_4,0.4,0.8,0.20000000000000007,1.1,7.6411,42.02605,return,2.0402651000000276,,,,,,,,,,,,,,,,,714,22,male,up_down_width,2024-08-26_10h59.32.803,exp1,2023.1.0,59.83441424202769,
,,,,,,,,,,,,,,,,3,9.3,10,10.7,0,0,0.7,0.29999999999999993,0.4,1.8,10,initial,36.05,335,361,386,0,0,9,9,9,0,0,,,,,,,2,0,2,0,0,8,8,9,,,,,,,,,,,,num_3,0.6789901999999017,num_3,0.25,0.7,0.44999999999999996,0.85,17.19248,32.47468,return,2.0115827999999,,,,,,,,,,,,,,,,,714,22,male,up_down_width,2024-08-26_10h59.32.803,exp1,2023.1.0,59.83441424202769,
,,,,,,,,,,,,,,,,5,7.8,8.9,10,11.1,12.2,1.1,0.8500000000000001,0.25,4.65,10,initial,36.05,281,321,361,400,440,9,9,9,9,9,,,,,,,2,0,2,0,0,9,9,36,,,,,,,,,,,,num_5,1.244474300000178,num_5,0.45,1.0,0.20000000000000007,1.2,7.6411,45.8466,return,3.5740739000001156,,,,,,,,,,,,,,,,,714,22,male,up_down_width,2024-08-26_10h59.32.803,exp1,2023.1.0,59.83441424202769,
,,,,,,,,,,,,,,,,5,8.35,9.175,10,10.825,11.65,0.825,0.575,0.25,3.55,10,match,36.05,301,331,361,390,420,9,9,9,9,9,,,,,,,2,0,2,0,0,10,10,20,,,,,,,,,,,,num_4,0.9101511000002063,num_4,0.35,0.6,0.15000000000000002,1.0,5.73083,38.2055,return,2.2765153000001135,,,,,,,,,,,,,,,,,714,22,male,up_down_width,2024-08-26_10h59.32.803,exp1,2023.1.0,59.83441424202769,
,,,,,,,,,,,,,,,,4,8.825,9.608333333333333,10.391666666666667,11.175,0,0.7833333333333333,0.5333333333333333,0.25,2.6,10,match,36.05,318,346,375,403,0,9,9,9,9,0,,,,,,,2,0,2,0,0,11,11,5,,,,,,,,,,,,num_4,0.6182705000001931,num_4,0.4,1.0,0.15000000000000008,1.3,5.73083,49.66716,return,1.8168787000000464,,,,,,,,,,,,,,,,,714,22,male,up_down_width,2024-08-26_10h59.32.803,exp1,2023.1.0,59.83441424202769,
,,,,,,,,,,,,,,,,4,9.1,9.7,10.3,10.9,0,0.6,0.04999999999999997,0.55,2.35,10,match,36.05,328,350,371,393,0,9,9,9,9,0,,,,,,,2,0,2,0,0,12,12,12,,,,,,,,,,,,num_4,1.6247311000002753,num_4,0.45,0.9,0.35000000000000003,0.5,13.37193,19.10275,return,5.154806900000125,,,,,,,,,,,,,,,,,714,22,male,up_down_width,2024-08-26_10h59.32.803,exp1,2023.1.0,59.83441424202769,
,,,,,,,,,,,,,,,,3,9.1,10,10.9,0,0,0.9,0.5,0.4,2.2,10,initial,36.05,328,361,393,0,0,9,9,9,0,0,,,,,,,2,0,2,0,0,13,13,15,,,,,,,,,,,,num_3,0.8250328000002298,num_3,0.5,0.6,0.4,0.7,15.2822,26.74385,return,3.623308099999889,,,,,,,,,,,,,,,,,714,22,male,up_down_width,2024-08-26_10h59.32.803,exp1,2023.1.0,59.83441424202769,
,,,,,,,,,,,,,,,,4,8.65,9.55,10.45,11.35,0,0.9,0.5,0.4,3.1,10,initial,36.05,312,344,377,409,0,9,9,9,9,0,,,,,,,2,0,2,0,0,14,14,32,,,,,,,,,,,,num_4,1.0960100000000637,num_4,0.35,1.3,0.49999999999999994,1.0,19.10275,38.2055,return,3.2057229999998924,,,,,,,,,,,,,,,,,714,22,male,up_down_width,2024-08-26_10h59.32.803,exp1,2023.1.0,59.83441424202769,
,,,,,,,,,,,,,,,,4,9.3,9.766666666666667,10.233333333333333,10.7,0,0.4666666666666667,0.06666666666666665,0.4,1.8,10,match,36.05,335,352,369,386,0,9,9,9,9,0,,,,,,,2,0,2,0,0,15,15,10,,,,,,,,,,,,num_4,0.8180175000000816,num_4,0.3,0.7,0.44999999999999996,0.7,17.19248,26.74385,return,3.1158569000002387,,,,,,,,,,,,,,,,,714,22,male,up_down_width,2024-08-26_10h59.32.803,exp1,2023.1.0,59.83441424202769,
,,,,,,,,,,,,,,,,5,8.65,9.325,10,10.675,11.35,0.675,0.42500000000000004,0.25,2.95,10,match,36.05,312,336,361,385,409,9,9,9,9,9,,,,,,,2,0,2,0,0,16,16,31,,,,,,,,,,,,num_4,0.6356077999999741,num_4,0.3,0.8,0.35,1.0,13.37193,38.2055,return,2.3208659000000296,,,,,,,,,,,,,,,,,714,22,male,up_down_width,2024-08-26_10h59.32.803,exp1,2023.1.0,59.83441424202769,
,,,,,,,,,,,,,,,,5,8.95,9.475,10,10.525,11.05,0.525,0.275,0.25,2.35,10,match,36.05,323,342,361,379,398,9,9,9,9,9,,,,,,,2,0,2,0,0,17,17,25,,,,,,,,,,,,num_4,0.6353448000000697,num_4,0.35,1.2,0.35,0.6,13.37193,22.9233,return,3.872656700000192,,,,,,,,,,,,,,,,,714,22,male,up_down_width,2024-08-26_10h59.32.803,exp1,2023.1.0,59.83441424202769,
,,,,,,,,,,,,,,,,5,7.8,8.9,10,11.1,12.2,1.1,0.55,0.55,4.95,10,initial,36.05,281,321,361,400,440,9,9,9,9,9,,,,,,,2,0,2,0,0,18,18,34,,,,,,,,,,,,num_4,0.8312440999999069,num_4,0.55,0.8,0.55,1.5,21.01303,57.30826,return,5.029188400000152,,,,,,,,,,,,,,,,,714,22,male,up_down_width,2024-08-26_10h59.32.803,exp1,2023.1.0,59.83441424202769,
,,,,,,,,,,,,,,,,3,8.6,10,11.4,0,0,1.4,1.15,0.25,3.05,10,match,36.05,310,361,411,0,0,9,9,9,0,0,,,,,,,2,0,2,0,0,19,19,43,,,,,,,,,,,,num_3,0.7908993000001772,num_3,0.2,0.7,0.35,0.95,13.37193,36.29523,return,2.6560208000001637,,,,,,,,,,,,,,,,,714,22,male,up_down_width,2024-08-26_10h59.32.803,exp1,2023.1.0,59.83441424202769,
,,,,,,,,,,,,,,,,3,8.6,10,11.4,0,0,1.4,0.85,0.55,3.35,10,match,36.05,310,361,411,0,0,9,9,9,0,0,,,,,,,2,0,2,0,0,20,20,41,,,,,,,,,,,,num_3,0.7183926000001009,num_3,0.2,0.8,0.44999999999999996,1.05,17.19248,40.11578,return,2.511829200000051,,,,,,,,,,,,,,,,,714,22,male,up_down_width,2024-08-26_10h59.32.803,exp1,2023.1.0,59.83441424202769,
,,,,,,,,,,,,,,,,5,8.2,9.1,10,10.9,11.8,0.9,0.65,0.25,3.85,10,initial,36.05,296,328,361,393,425,9,9,9,9,9,,,,,,,2,0,2,0,0,21,21,48,,,,,,,,,,,,num_4,0.6438432000000773,num_4,0.4,1.3,0.30000000000000004,1.4,11.46165,53.48771,return,1.9378724000001455,,,,,,,,,,,,,,,,,714,22,male,up_down_width,2024-08-26_10h59.32.803,exp1,2023.1.0,59.83441424202769,
,,,,,,,,,,,,,,,,4,9.1,9.7,10.3,10.9,0,0.5999999999999999,0.3499999999999999,0.25,2.05,10,match,36.05,328,350,371,393,0,9,9,9,9,0,,,,,,,2,0,2,0,0,22,22,14,,,,,,,,,,,,num_3,0.7210120999999106,num_3,0.2,1,0.35,1.1,13.37193,42.02605,return,2.3348397000000602,,,,,,,,,,,,,,,,,714,22,male,up_down_width,2024-08-26_10h59.32.803,exp1,2023.1.0,59.83441424202769,
,,,,,,,,,,,,,,,,3,9.3,10,10.7,0,0,0.7,0.1499999999999999,0.55,1.95,10,initial,36.05,335,361,386,0,0,9,9,9,0,0,,,,,,,2,0,2,0,0,23,23,6,,,,,,,,,,,,num_3,0.6235453000000177,num_3,0.3,0.9,0.49999999999999994,0.9,19.10275,34.38495,return,2.6936016000000507,,,,,,,,,,,,,,,,,714,22,male,up_down_width,2024-08-26_10h59.32.803,exp1,2023.1.0,59.83441424202769,
,,,,,,,,,,,,,,,,4,8.95,9.65,10.35,11.05,0,0.7,0.1499999999999999,0.55,2.65,10,initial,36.05,323,348,373,398,0,9,9,9,9,0,,,,,,,2,0,2,0,0,24,24,23,,,,,,,,,,,,num_3,0.6913758000001451,num_3,0.35,0.4,0.49999999999999994,0.8,19.10275,30.5644,return,2.4195663999999795,,,,,,,,,,,,,,,,,714,22,male,up_down_width,2024-08-26_10h59.32.803,exp1,2023.1.0,59.83441424202769,
,,,,,,,,,,,,,,,,3,9.1,10,10.9,0,0,0.9,0.35,0.55,2.35,10,initial,36.05,328,361,393,0,0,9,9,9,0,0,,,,,,,2,0,2,0,0,25,25,11,,,,,,,,,,,,num_3,0.5908193000001063,num_3,0.4,1.2,0.6000000000000001,1.2,22.9233,45.8466,return,1.6957353000001092,,,,,,,,,,,,,,,,,714,22,male,up_down_width,2024-08-26_10h59.32.803,exp1,2023.1.0,59.83441424202769,
,,,,,,,,,,,,,,,,5,8.6,9.3,10,10.7,11.4,0.7,0.1499999999999999,0.55,3.3499999999999996,10,initial,36.05,310,335,361,386,411,9,9,9,9,9,,,,,,,2,0,2,0,0,26,26,40,,,,,,,,,,,,num_3,0.8053766999999823,num_3,0.25,0.8,0.5499999999999999,0.8,21.01303,30.5644,return,1.535611800000055,,,,,,,,,,,,,,,,,714,22,male,up_down_width,2024-08-26_10h59.32.803,exp1,2023.1.0,59.83441424202769,
,,,,,,,,,,,,,,,,5,7.8,8.9,10,11.1,12.2,1.1,0.7000000000000001,0.4,4.800000000000001,10,initial,36.05,281,321,361,400,440,9,9,9,9,9,,,,,,,2,0,2,0,0,27,27,38,,,,,,,,,,,,num_4,0.7598695000002351,num_4,0.55,0.8,0.5,1.2,19.10275,45.8466,return,2.4894049000000393,,,,,,,,,,,,,,,,,714,22,male,up_down_width,2024-08-26_10h59.32.803,exp1,2023.1.0,59.83441424202769,
,,,,,,,,,,,,,,,,4,9.3,9.766666666666667,10.233333333333333,10.7,0,0.4666666666666667,0.21666666666666665,0.25,1.65,10,match,36.05,335,352,369,386,0,9,9,9,9,0,,,,,,,2,0,2,0,0,28,28,8,,,,,,,,,,,,num_3,0.7322330000000363,num_3,0.3,0.7,0.25,0.55,9.55138,21.01303,return,4.078382100000084,,,,,,,,,,,,,,,,,714,22,male,up_down_width,2024-08-26_10h59.32.803,exp1,2023.1.0,59.83441424202769,
,,,,,,,,,,,,,,,,3,7.800000000000001,10,12.2,0,0,2.1999999999999997,1.7999999999999998,0.4,4.8,10,match,36.05,281,361,440,0,0,9,9,9,0,0,,,,,,,2,0,2,0,0,29,29,39,,,,,,,,,,,,num_3,0.7011237000000108,num_3,0.25,0.9,0.3,1.65,11.46165,63.03908,return,5.322792499999963,,,,,,,,,,,,,,,,,714,22,male,up_down_width,2024-08-26_10h59.32.803,exp1,2023.1.0,59.83441424202769,
,,,,,,,,,,,,,,,,5,8.275,9.1375,10,10.8625,11.725,0.8625,0.6125,0.25,3.7,10,match,36.05,298,329,361,392,423,9,9,9,9,9,,,,,,,2,0,2,0,0,30,30,22,,,,,,,,,,,,num_4,0.5777215000001377,num_4,0.2,0.8,0.3,1.3,11.46165,49.66716,return,2.388229000000223,,,,,,,,,,,,,,,,,714,22,male,up_down_width,2024-08-26_10h59.32.803,exp1,2023.1.0,59.83441424202769,
,,,,,,,,,,,,,,,,4,8.35,9.45,10.55,11.65,0,1.1,0.55,0.55,3.8500000000000005,10,initial,36.05,301,341,380,420,0,9,9,9,9,0,,,,,,,2,0,2,0,0,31,31,17,,,,,,,,,,,,num_3,0.8329712000002871,num_3,0.25,0.5,0.44999999999999996,0.95,17.19248,36.29523,return,3.100184200000143,,,,,,,,,,,,,,,,,714,22,male,up_down_width,2024-08-26_10h59.32.803,exp1,2023.1.0,59.83441424202769,
,,,,,,,,,,,,,,,,3,8.9,10,11.1,0,0,1.1,0.7000000000000001,0.4,2.6000000000000005,10,initial,36.05,321,361,400,0,0,9,9,9,0,0,,,,,,,2,0,2,0,0,32,32,4,,,,,,,,,,,,num_3,0.5981831,num_3,0.5,0.7,0.4,1.2,15.2822,45.8466,return,3.100329100000039,,,,,,,,,,,,,,,,,714,22,male,up_down_width,2024-08-26_10h59.32.803,exp1,2023.1.0,59.83441424202769,
,,,,,,,,,,,,,,,,5,8.6,9.3,10,10.7,11.4,0.7,0.29999999999999993,0.4,3.1999999999999997,10,initial,36.05,310,335,361,386,411,9,9,9,9,9,,,,,,,2,0,2,0,0,33,33,44,,,,,,,,,,,,num_4,0.6807873999999572,num_4,0.45,1.3,0.45,1.3,17.19248,49.66716,return,3.357487400000167,,,,,,,,,,,,,,,,,714,22,male,up_down_width,2024-08-26_10h59.32.803,exp1,2023.1.0,59.83441424202769,
,,,,,,,,,,,,,,,,3,8.9,10,11.1,0,0,1.1,0.8500000000000001,0.25,2.45,10,initial,36.05,321,361,400,0,0,9,9,9,0,0,,,,,,,2,0,2,0,0,34,34,2,,,,,,,,,,,,num_3,0.5822694000001718,num_3,0.5,0.8,0.25000000000000006,0.85,9.55138,32.47468,return,2.6834205000000964,,,,,,,,,,,,,,,,,714,22,male,up_down_width,2024-08-26_10h59.32.803,exp1,2023.1.0,59.83441424202769,
,,,,,,,,,,,,,,,,3,8.2,10,11.8,0,0,1.8,1.55,0.25,3.85,10,match,36.05,296,361,425,0,0,9,9,9,0,0,,,,,,,2,0,2,0,0,35,35,49,,,,,,,,,,,,num_3,0.6887122999999917,num_3,0.25,0.8,0.2,1.4,7.6411,53.48771,return,4.260398700000081,,,,,,,,,,,,,,,,,714,22,male,up_down_width,2024-08-26_10h59.32.803,exp1,2023.1.0,59.83441424202769,
,,,,,,,,,,,,,,,,3,8.2,10,11.8,0,0,1.7999999999999998,1.4,0.4,4,10,match,36.05,296,361,425,0,0,9,9,9,0,0,,,,,,,2,0,2,0,0,36,36,51,,,,,,,,,,,,num_3,0.6273640000000285,num_3,0.55,1.2,0.30000000000000004,1.5,11.46165,57.30826,return,2.7736932000001104,,,,,,,,,,,,,,,,,714,22,male,up_down_width,2024-08-26_10h59.32.803,exp1,2023.1.0,59.83441424202769,
,,,,,,,,,,,,,,,,3,8.9,10,11.1,0,0,1.1,0.55,0.55,2.75,10,initial,36.05,321,361,400,0,0,9,9,9,0,0,,,,,,,2,0,2,0,0,37,37,0,,,,,,,,,,,,num_3,0.652758900000066,num_3,0.5,0.8,0.30000000000000004,1.05,11.46165,40.11578,return,2.715972700000151,,,,,,,,,,,,,,,,,714,22,male,up_down_width,2024-08-26_10h59.32.803,exp1,2023.1.0,59.83441424202769,
,,,,,,,,,,,,,,,,5,8.65,9.325,10,10.675,11.35,0.675,0.275,0.4,3.1,10,match,36.05,312,336,361,385,409,9,9,9,9,9,,,,,,,2,0,2,0,0,38,38,33,,,,,,,,,,,,num_4,0.5988342999999929,num_4,0.4,1.2,0.30000000000000004,0.9,11.46165,34.38495,return,6.264581300000231,,,,,,,,,,,,,,,,,714,22,male,up_down_width,2024-08-26_10h59.32.803,exp1,2023.1.0,59.83441424202769,
,,,,,,,,,,,,,,,,4,8.95,9.65,10.35,11.05,0,0.7,0.29999999999999993,0.4,2.5,10,initial,36.05,323,348,373,398,0,9,9,9,9,0,,,,,,,2,0,2,0,0,39,39,26,,,,,,,,,,,,num_3,0.7583043000000487,num_3,0.25,1.2,0.44999999999999996,1.1,17.19248,42.02605,return,2.370258100000086,,,,,,,,,,,,,,,,,714,22,male,up_down_width,2024-08-26_10h59.32.803,exp1,2023.1.0,59.83441424202769,
,,,,,,,,,,,,,,,,5,8.95,9.475,10,10.525,11.05,0.525,0.125,0.4,2.5,10,match,36.05,323,342,361,379,398,9,9,9,9,9,,,,,,,2,0,2,0,0,40,40,27,,,,,,,,,,,,num_4,0.6788287000000253,num_4,0.45,0.6,0.45,0.6,17.19248,22.9233,return,1.3967724000002306,,,,,,,,,,,,,,,,,714,22,male,up_down_width,2024-08-26_10h59.32.803,exp1,2023.1.0,59.83441424202769,
,,,,,,,,,,,,,,,,4,9.1,9.7,10.3,10.9,0,0.6000000000000001,0.20000000000000004,0.4,2.2,10,match,36.05,328,350,371,393,0,9,9,9,9,0,,,,,,,2,0,2,0,0,41,41,16,,,,,,,,,,,,num_4,2.7543781000002525,num_4,0.4,1.3,0.4,0.8,15.2822,30.5644,return,3.80359410000014,,,,,,,,,,,,,,,,,714,22,male,up_down_width,2024-08-26_10h59.32.803,exp1,2023.1.0,59.83441424202769,
,,,,,,,,,,,,,,,,4,8.35,9.45,10.55,11.65,0,1.1,0.7000000000000001,0.4,3.7,10,initial,36.05,301,341,380,420,0,9,9,9,9,0,,,,,,,2,0,2,0,0,42,42,21,,,,,,,,,,,,num_4,1.9662204000001964,num_4,0.25,0.8,0.39999999999999997,0.8,15.2822,30.5644,return,3.239746199999985,,,,,,,,,,,,,,,,,714,22,male,up_down_width,2024-08-26_10h59.32.803,exp1,2023.1.0,59.83441424202769,
,,,,,,,,,,,,,,,,4,8.95,9.65,10.35,11.05,0,0.7,0.44999999999999996,0.25,2.3499999999999996,10,initial,36.05,323,348,373,398,0,9,9,9,9,0,,,,,,,2,0,2,0,0,43,43,24,,,,,,,,,,,,num_3,0.726155200000079,num_3,0.4,0.5,0.15000000000000008,0.7,5.73083,26.74385,return,4.904472300000037,,,,,,,,,,,,,,,,,714,22,male,up_down_width,2024-08-26_10h59.32.803,exp1,2023.1.0,59.83441424202769,
,,,,,,,,,,,,,,,,5,8.2,9.1,10,10.9,11.8,0.9,0.35,0.55,4.15,10,initial,36.05,296,328,361,393,425,9,9,9,9,9,,,,,,,2,0,2,0,0,44,44,46,,,,,,,,,,,,num_4,0.7435042000000465,num_4,0.4,1.3,0.55,1.0,21.01303,38.2055,return,3.8327184999999133,,,,,,,,,,,,,,,,,714,22,male,up_down_width,2024-08-26_10h59.32.803,exp1,2023.1.0,59.83441424202769,
,,,,,,,,,,,,,,,,3,9.3,10,10.7,0,0,0.7,0.44999999999999996,0.25,1.65,10,initial,36.05,335,361,386,0,0,9,9,9,0,0,,,,,,,2,0,2,0,0,45,45,7,,,,,,,,,,,,num_3,0.9727450999999689,num_3,0.2,1.1,0.2,0.85,7.6411,32.47468,return,4.000581399999959,,,,,,,,,,,,,,,,,714,22,male,up_down_width,2024-08-26_10h59.32.803,exp1,2023.1.0,59.83441424202769,
,,,,,,,,,,,,,,,,4,8.65,9.55,10.45,11.35,0,0.9,0.35,0.55,3.25,10,initial,36.05,312,344,377,409,0,9,9,9,9,0,,,,,,,2,0,2,0,0,46,46,28,,,,,,,,,,,,num_3,0.667886300000049,num_3,0.3,1.3,0.49999999999999994,1.1,19.10275,42.02605,return,2.5918314000001317,,,,,,,,,,,,,,,,,714,22,male,up_down_width,2024-08-26_10h59.32.803,exp1,2023.1.0,59.83441424202769,
,,,,,,,,,,,,,,,,4,8.9,9.633333333333333,10.366666666666667,11.1,0,0.7333333333333334,0.4833333333333334,0.25,2.45,10,match,36.05,321,347,374,400,0,9,9,9,9,0,,,,,,,2,0,2,0,0,47,47,3,,,,,,,,,,,,num_4,1.2411939000001837,num_4,0.4,1.3,0.4,0.9,15.2822,34.38495,return,2.8213222999998777,,,,,,,,,,,,,,,,,714,22,male,up_down_width,2024-08-26_10h59.32.803,exp1,2023.1.0,59.83441424202769,
,,,,,,,,,,,,,,,,3,9.1,10,10.9,0,0,0.9,0.65,0.25,2.05,10,initial,36.05,328,361,393,0,0,9,9,9,0,0,,,,,,,2,0,2,0,0,48,48,13,,,,,,,,,,,,num_3,0.9724918000000287,num_3,0.3,0.9,0.35,0.9,13.37193,34.38495,return,3.9408879000000923,,,,,,,,,,,,,,,,,714,22,male,up_down_width,2024-08-26_10h59.32.803,exp1,2023.1.0,59.83441424202769,
,,,,,,,,,,,,,,,,4,8.9,9.633333333333333,10.366666666666667,11.1,0,0.7333333333333333,0.18333333333333326,0.55,2.75,10,match,36.05,321,347,374,400,0,9,9,9,9,0,,,,,,,2,0,2,0,0,49,49,1,,,,,,,,,,,,num_3,2.2806503000002465,num_3,0.3,0.5,0.3,0.5,11.46165,19.10275,return,0.8569622000000834,,,,,,,,,,,,,,,,,714,22,male,up_down_width,2024-08-26_10h59.32.803,exp1,2023.1.0,59.83441424202769,
,,,,,,,,,,,,,,,,4,8.65,9.55,10.45,11.35,0,0.9,0.65,0.25,2.95,10,initial,36.05,312,344,377,409,0,9,9,9,9,0,,,,,,,2,0,2,0,0,50,50,30,,,,,,,,,,,,num_6,3.767503699999992,num_6,0.25,0.8,0.25,0.8,9.55138,30.5644,return,1.2593463999999983,,,,,,,,,,,,,,,,,714,22,male,up_down_width,2024-08-26_10h59.32.803,exp1,2023.1.0,59.83441424202769,
,,,,,,,,,,,,,,,,5,8.2,9.1,10,10.9,11.8,0.9,0.5,0.4,4,10,initial,36.05,296,328,361,393,425,9,9,9,9,9,,,,,,,2,0,2,0,0,51,51,50,,,,,,,,,,,,num_4,1.5142192000001558,num_4,0.25,1.3,0.39999999999999997,1.1,15.2822,42.02605,return,3.7834519999999827,,,,,,,,,,,,,,,,,714,22,male,up_down_width,2024-08-26_10h59.32.803,exp1,2023.1.0,59.83441424202769,
,,,,,,,,,,,,,,,,,,,,,,,,,,,,,,,,,,,,,,,,,,,,,2,0,2,0,,,,,,,,,,,,,,,,,,,,,,,,,,,,,1486.4792893000001,1486.4792893000001,1486.4792893000001,,,,,,,,,,,,714,22,male,up_down_width,2024-08-26_10h59.32.803,exp1,2023.1.0,59.83441424202769,
,,,,,,,,,,,,,,,,3,8.2,10,11.8,0,0,1.8,1.55,0.25,3.85,10,match,36.05,296,361,425,0,0,9,9,9,0,0,,,,,,,3,0,3,0,0,0,0,49,,,,,,,,,,,,num_3,0.9967595000001381,num_3,0.3,1.3,0.3,1.45,11.46165,55.39798,return,4.663689400000152,,,,,,,,,,,,,,,,,714,22,male,up_down_width,2024-08-26_10h59.32.803,exp1,2023.1.0,59.83441424202769,
,,,,,,,,,,,,,,,,4,8.95,9.65,10.35,11.05,0,0.7,0.44999999999999996,0.25,2.3499999999999996,10,initial,36.05,323,348,373,398,0,9,9,9,9,0,,,,,,,3,0,3,0,0,1,1,24,,,,,,,,,,,,num_4,0.9549556000000337,num_4,0.55,0.7,0.25000000000000006,0.9,9.55138,34.38495,return,2.627587400000124,,,,,,,,,,,,,,,,,714,22,male,up_down_width,2024-08-26_10h59.32.803,exp1,2023.1.0,59.83441424202769,
,,,,,,,,,,,,,,,,3,7.8,10,12.2,0,0,2.2,1.65,0.55,4.95,10,match,36.05,281,361,440,0,0,9,9,9,0,0,,,,,,,3,0,3,0,0,2,2,35,,,,,,,,,,,,num_3,0.7370607000001144,num_3,0.4,0.7,0.4,1.6,15.2822,61.12881,return,3.486937800000163,,,,,,,,,,,,,,,,,714,22,male,up_down_width,2024-08-26_10h59.32.803,exp1,2023.1.0,59.83441424202769,
,,,,,,,,,,,,,,,,4,8.35,9.45,10.55,11.65,0,1.1,0.7000000000000001,0.4,3.7,10,initial,36.05,301,341,380,420,0,9,9,9,9,0,,,,,,,3,0,3,0,0,3,3,21,,,,,,,,,,,,num_3,0.7282566000002078,num_3,0.25,1.1,0.35,1.45,13.37193,55.39798,return,2.761876200000046,,,,,,,,,,,,,,,,,714,22,male,up_down_width,2024-08-26_10h59.32.803,exp1,2023.1.0,59.83441424202769,
,,,,,,,,,,,,,,,,5,8.275,9.1375,10,10.8625,11.725,0.8625,0.6125,0.25,3.7,10,match,36.05,298,329,361,392,423,9,9,9,9,9,,,,,,,3,0,3,0,0,4,4,22,,,,,,,,,,,,num_4,0.5952249000000336,num_4,0.3,1.2,0.3,1.2,11.46165,45.8466,return,0.9530929000000867,,,,,,,,,,,,,,,,,714,22,male,up_down_width,2024-08-26_10h59.32.803,exp1,2023.1.0,59.83441424202769,
,,,,,,,,,,,,,,,,4,8.65,9.55,10.45,11.35,0,0.9,0.65,0.25,2.95,10,initial,36.05,312,344,377,409,0,9,9,9,9,0,,,,,,,3,0,3,0,0,5,5,30,,,,,,,,,,,,num_4,0.6257383000000516,num_4,0.25,1.2,0.25,1.3,9.55138,49.66716,return,2.438994899999983,,,,,,,,,,,,,,,,,714,22,male,up_down_width,2024-08-26_10h59.32.803,exp1,2023.1.0,59.83441424202769,
,,,,,,,,,,,,,,,,3,9.3,10,10.7,0,0,0.7,0.29999999999999993,0.4,1.8,10,initial,36.05,335,361,386,0,0,9,9,9,0,0,,,,,,,3,0,3,0,0,6,6,9,,,,,,,,,,,,num_3,1.5392175000002624,num_3,0.4,0.5,0.4,0.55,15.2822,21.01303,return,2.2763259000001597,,,,,,,,,,,,,,,,,714,22,male,up_down_width,2024-08-26_10h59.32.803,exp1,2023.1.0,59.83441424202769,
,,,,,,,,,,,,,,,,3,8.6,10,11.4,0,0,1.4,1.15,0.25,3.05,10,match,36.05,310,361,411,0,0,9,9,9,0,0,,,,,,,3,0,3,0,0,7,7,43,,,,,,,,,,,,num_3,0.7611459000000593,num_3,0.3,1.1,0.25,1.4,9.55138,53.48771,return,2.5188160999999525,,,,,,,,,,,,,,,,,714,22,male,up_down_width,2024-08-26_10h59.32.803,exp1,2023.1.0,59.83441424202769,
,,,,,,,,,,,,,,,,4,8.9,9.633333333333333,10.366666666666667,11.1,0,0.7333333333333334,0.4833333333333334,0.25,2.45,10,match,36.05,321,347,374,400,0,9,9,9,9,0,,,,,,,3,0,3,0,0,8,8,3,,,,,,,,,,,,num_4,0.6536815000002605,num_4,0.25,0.8,0.25,0.9,9.55138,34.38495,return,3.0912154000000953,,,,,,,,,,,,,,,,,714,22,male,up_down_width,2024-08-26_10h59.32.803,exp1,2023.1.0,59.83441424202769,
,,,,,,,,,,,,,,,,5,8.6,9.3,10,10.7,11.4,0.7,0.29999999999999993,0.4,3.1999999999999997,10,initial,36.05,310,335,361,386,411,9,9,9,9,9,,,,,,,3,0,3,0,0,9,9,44,,,,,,,,,,,,num_4,0.9104598000002113,num_4,0.4,1.3,0.35000000000000003,1.3,13.37193,49.66716,return,2.18431700000005,,,,,,,,,,,,,,,,,714,22,male,up_down_width,2024-08-26_10h59.32.803,exp1,2023.1.0,59.83441424202769,
,,,,,,,,,,,,,,,,3,8.9,10,11.1,0,0,1.1,0.55,0.55,2.75,10,initial,36.05,321,361,400,0,0,9,9,9,0,0,,,,,,,3,0,3,0,0,10,10,0,,,,,,,,,,,,num_3,0.7825581000000454,num_3,0.3,1.1,0.49999999999999994,1.15,19.10275,43.93633,return,2.299292300000019,,,,,,,,,,,,,,,,,714,22,male,up_down_width,2024-08-26_10h59.32.803,exp1,2023.1.0,59.83441424202769,
,,,,,,,,,,,,,,,,5,8.35,9.175,10,10.825,11.65,0.8250000000000001,0.275,0.55,3.85,10,match,36.05,301,331,361,390,420,9,9,9,9,9,,,,,,,3,0,3,0,0,11,11,18,,,,,,,,,,,,num_4,1.0278570000001253,num_4,0.2,0.8,0.49999999999999994,1.1,19.10275,42.02605,return,2.7100526000000116,,,,,,,,,,,,,,,,,714,22,male,up_down_width,2024-08-26_10h59.32.803,exp1,2023.1.0,59.83441424202769,
,,,,,,,,,,,,,,,,4,8.95,9.65,10.35,11.05,0,0.7,0.29999999999999993,0.4,2.5,10,initial,36.05,323,348,373,398,0,9,9,9,9,0,,,,,,,3,0,3,0,0,12,12,26,,,,,,,,,,,,num_4,0.7084041000001378,num_4,0.3,0.7,0.44999999999999996,0.8,17.19248,30.5644,return,3.0464417000001447,,,,,,,,,,,,,,,,,714,22,male,up_down_width,2024-08-26_10h59.32.803,exp1,2023.1.0,59.83441424202769,
,,,,,,,,,,,,,,,,3,8.2,10,11.8,0,0,1.8,1.25,0.55,4.15,10,match,36.05,296,361,425,0,0,9,9,9,0,0,,,,,,,3,0,3,0,0,13,13,47,,,,,,,,,,,,num_3,0.8061059000002331,num_3,0.25,0.4,0.44999999999999996,0.85,17.19248,32.47468,return,4.191501699999975,,,,,,,,,,,,,,,,,714,22,male,up_down_width,2024-08-26_10h59.32.803,exp1,2023.1.0,59.83441424202769,
,,,,,,,,,,,,,,,,3,7.800000000000001,10,12.2,0,0,2.1999999999999997,1.7999999999999998,0.4,4.8,10,match,36.05,281,361,440,0,0,9,9,9,0,0,,,,,,,3,0,3,0,0,14,14,39,,,,,,,,,,,,num_3,0.6686562999999239,num_3,0.5,0.7,0.55,1.95,21.01303,74.50073,return,6.385102600000067,,,,,,,,,,,,,,,,,714,22,male,up_down_width,2024-08-26_10h59.32.803,exp1,2023.1.0,59.83441424202769,
,,,,,,,,,,,,,,,,4,8.35,9.45,10.55,11.65,0,1.1,0.8500000000000001,0.25,3.5500000000000003,10,initial,36.05,301,341,380,420,0,9,9,9,9,0,,,,,,,3,0,3,0,0,15,15,19,,,,,,,,,,,,num_3,0.70999470000001,num_3,0.45,1.3,0.20000000000000007,1.8,7.6411,68.76991,return,3.6844589000000667,,,,,,,,,,,,,,,,,714,22,male,up_down_width,2024-08-26_10h59.32.803,exp1,2023.1.0,59.83441424202769,
,,,,,,,,,,,,,,,,5,7.8,8.9,10,11.1,12.2,1.1,0.8500000000000001,0.25,4.65,10,initial,36.05,281,321,361,400,440,9,9,9,9,9,,,,,,,3,0,3,0,0,16,16,36,,,,,,,,,,,,num_4,0.8757226999999546,num_4,0.5,0.7,0.15000000000000008,1.3,5.73083,49.66716,return,3.234573900000072,,,,,,,,,,,,,,,,,714,22,male,up_down_width,2024-08-26_10h59.32.803,exp1,2023.1.0,59.83441424202769,
,,,,,,,,,,,,,,,,3,9.3,10,10.7,0,0,0.7,0.44999999999999996,0.25,1.65,10,initial,36.05,335,361,386,0,0,9,9,9,0,0,,,,,,,3,0,3,0,0,17,17,7,,,,,,,,,,,,num_3,0.7069906000000117,num_3,0.35,1,0.15000000000000002,1.4,5.73083,53.48771,return,2.5609725000000196,,,,,,,,,,,,,,,,,714,22,male,up_down_width,2024-08-26_10h59.32.803,exp1,2023.1.0,59.83441424202769,
,,,,,,,,,,,,,,,,5,8.6,9.3,10,10.7,11.4,0.7,0.44999999999999996,0.25,3.05,10,initial,36.05,310,335,361,386,411,9,9,9,9,9,,,,,,,3,0,3,0,0,18,18,42,,,,,,,,,,,,num_4,0.6786017000002573,num_4,0.4,1.1,0.10000000000000007,1.4,3.82055,53.48771,return,2.3461964999999907,,,,,,,,,,,,,,,,,714,22,male,up_down_width,2024-08-26_10h59.32.803,exp1,2023.1.0,59.83441424202769,
,,,,,,,,,,,,,,,,5,8.65,9.325,10,10.675,11.35,0.675,0.125,0.55,3.25,10,match,36.05,312,336,361,385,409,9,9,9,9,9,,,,,,,3,0,3,0,0,19,19,29,,,,,,,,,,,,num_4,0.8577641000000256,num_4,0.35,0.9,0.6,1.0,22.9233,38.2055,return,2.4053538999999944,,,,,,,,,,,,,,,,,714,22,male,up_down_width,2024-08-26_10h59.32.803,exp1,2023.1.0,59.83441424202769,
,,,,,,,,,,,,,,,,4,8.35,9.45,10.55,11.65,0,1.1,0.55,0.55,3.8500000000000005,10,initial,36.05,301,341,380,420,0,9,9,9,9,0,,,,,,,3,0,3,0,0,20,20,17,,,,,,,,,,,,num_4,0.7127281000001346,num_4,0.2,0.4,0.49999999999999994,0.8,19.10275,30.5644,return,2.7148525000000916,,,,,,,,,,,,,,,,,714,22,male,up_down_width,2024-08-26_10h59.32.803,exp1,2023.1.0,59.83441424202769,
,,,,,,,,,,,,,,,,3,9.1,10,10.9,0,0,0.9,0.65,0.25,2.05,10,initial,36.05,328,361,393,0,0,9,9,9,0,0,,,,,,,3,0,3,0,0,21,21,13,,,,,,,,,,,,num_3,1.007711300000068,num_3,0.45,1,0.25000000000000006,0.9,9.55138,34.38495,return,2.502240900000146,,,,,,,,,,,,,,,,,714,22,male,up_down_width,2024-08-26_10h59.32.803,exp1,2023.1.0,59.83441424202769,
,,,,,,,,,,,,,,,,3,8.2,10,11.8,0,0,1.7999999999999998,1.4,0.4,4,10,match,36.05,296,361,425,0,0,9,9,9,0,0,,,,,,,3,0,3,0,0,22,22,51,,,,,,,,,,,,num_3,0.76831260000003,num_3,0.35,0.8,0.39999999999999997,1.45,15.2822,55.39798,return,4.592127800000156,,,,,,,,,,,,,,,,,714,22,male,up_down_width,2024-08-26_10h59.32.803,exp1,2023.1.0,59.83441424202769,
,,,,,,,,,,,,,,,,3,7.8,10,12.2,0,0,2.2,1.9500000000000002,0.25,4.65,10,match,36.05,281,361,440,0,0,9,9,9,0,0,,,,,,,3,0,3,0,0,23,23,37,,,,,,,,,,,,num_3,0.656300400000049,num_3,0.4,1.1,0.25000000000000006,1.6,9.55138,61.12881,return,3.4078971000002127,,,,,,,,,,,,,,,,,714,22,male,up_down_width,2024-08-26_10h59.32.803,exp1,2023.1.0,59.83441424202769,
,,,,,,,,,,,,,,,,4,9.1,9.7,10.3,10.9,0,0.5999999999999999,0.3499999999999999,0.25,2.05,10,match,36.05,328,350,371,393,0,9,9,9,9,0,,,,,,,3,0,3,0,0,24,24,14,,,,,,,,,,,,num_4,0.6732498000002067,num_4,0.25,1.2,0.2,0.9,7.6411,34.38495,return,1.949313799999885,,,,,,,,,,,,,,,,,714,22,male,up_down_width,2024-08-26_10h59.32.803,exp1,2023.1.0,59.83441424202769,
,,,,,,,,,,,,,,,,5,7.8,8.9,10,11.1,12.2,1.1,0.55,0.55,4.95,10,initial,36.05,281,321,361,400,440,9,9,9,9,9,,,,,,,3,0,3,0,0,25,25,34,,,,,,,,,,,,num_4,0.7494935999999086,num_4,0.5,1.1,0.45,1.4,17.19248,53.48771,return,2.7602927999999736,,,,,,,,,,,,,,,,,714,22,male,up_down_width,2024-08-26_10h59.32.803,exp1,2023.1.0,59.83441424202769,
,,,,,,,,,,,,,,,,4,9.1,9.7,10.3,10.9,0,0.6,0.04999999999999997,0.55,2.35,10,match,36.05,328,350,371,393,0,9,9,9,9,0,,,,,,,3,0,3,0,0,26,26,12,,,,,,,,,,,,num_4,0.9669007000000818,num_4,0.3,1.1,0.49999999999999994,0.6,19.10275,22.9233,return,6.191475900000199,,,,,,,,,,,,,,,,,714,22,male,up_down_width,2024-08-26_10h59.32.803,exp1,2023.1.0,59.83441424202769,
,,,,,,,,,,,,,,,,5,8.2,9.1,10,10.9,11.8,0.9,0.5,0.4,4,10,initial,36.05,296,328,361,393,425,9,9,9,9,9,,,,,,,3,0,3,0,0,27,27,50,,,,,,,,,,,,num_4,1.0556963000002213,num_4,0.3,0.5,0.39999999999999997,0.8,15.2822,30.5644,return,3.859853200000174,,,,,,,,,,,,,,,,,714,22,male,up_down_width,2024-08-26_10h59.32.803,exp1,2023.1.0,59.83441424202769,
,,,,,,,,,,,,,,,,3,8.9,10,11.1,0,0,1.1,0.7000000000000001,0.4,2.6000000000000005,10,initial,36.05,321,361,400,0,0,9,9,9,0,0,,,,,,,3,0,3,0,0,28,28,4,,,,,,,,,,,,num_3,0.9231209000002707,num_3,0.5,0.7,0.45,0.9,17.19248,34.38495,return,3.009816000000086,,,,,,,,,,,,,,,,,714,22,male,up_down_width,2024-08-26_10h59.32.803,exp1,2023.1.0,59.83441424202769,
,,,,,,,,,,,,,,,,3,9.1,10,10.9,0,0,0.9,0.35,0.55,2.35,10,initial,36.05,328,361,393,0,0,9,9,9,0,0,,,,,,,3,0,3,0,0,29,29,11,,,,,,,,,,,,num_3,0.6845922999999345,num_3,0.3,0.7,0.44999999999999996,0.75,17.19248,28.65413,return,2.7140806000000737,,,,,,,,,,,,,,,,,714,22,male,up_down_width,2024-08-26_10h59.32.803,exp1,2023.1.0,59.83441424202769,
,,,,,,,,,,,,,,,,5,8.6,9.3,10,10.7,11.4,0.7,0.1499999999999999,0.55,3.3499999999999996,10,initial,36.05,310,335,361,386,411,9,9,9,9,9,,,,,,,3,0,3,0,0,30,30,40,,,,,,,,,,,,num_4,0.8915311000001509,num_4,0.55,0.9,0.5,0.9,19.10275,34.38495,return,1.6700973000000374,,,,,,,,,,,,,,,,,714,22,male,up_down_width,2024-08-26_10h59.32.803,exp1,2023.1.0,59.83441424202769,
,,,,,,,,,,,,,,,,5,8.2,9.1,10,10.9,11.8,0.9,0.35,0.55,4.15,10,initial,36.05,296,328,361,393,425,9,9,9,9,9,,,,,,,3,0,3,0,0,31,31,46,,,,,,,,,,,,num_4,0.867876500000051,num_4,0.2,1.1,0.65,1.1,24.83358,42.02605,return,3.8560793000000047,,,,,,,,,,,,,,,,,714,22,male,up_down_width,2024-08-26_10h59.32.803,exp1,2023.1.0,59.83441424202769,
,,,,,,,,,,,,,,,,4,8.65,9.55,10.45,11.35,0,0.9,0.5,0.4,3.1,10,initial,36.05,312,344,377,409,0,9,9,9,9,0,,,,,,,3,0,3,0,0,32,32,32,,,,,,,,,,,,num_4,0.6052338000000361,num_4,0.25,0.4,0.39999999999999997,0.8,15.2822,30.5644,return,2.5902380000000846,,,,,,,,,,,,,,,,,714,22,male,up_down_width,2024-08-26_10h59.32.803,exp1,2023.1.0,59.83441424202769,
,,,,,,,,,,,,,,,,3,8.525,10,11.475,0,0,1.475,1.225,0.25,3.2,10,match,36.05,307,361,414,0,0,9,9,9,0,0,,,,,,,3,0,3,0,0,33,33,45,,,,,,,,,,,,num_3,0.6750981000000991,num_3,0.4,0.9,0.15000000000000008,1.2,5.73083,45.8466,return,3.4630191000001957,,,,,,,,,,,,,,,,,714,22,male,up_down_width,2024-08-26_10h59.32.803,exp1,2023.1.0,59.83441424202769,
,,,,,,,,,,,,,,,,5,8.95,9.475,10,10.525,11.05,0.525,0.275,0.25,2.35,10,match,36.05,323,342,361,379,398,9,9,9,9,9,,,,,,,3,0,3,0,0,34,34,25,,,,,,,,,,,,num_4,0.6619574000002046,num_4,0.35,0.8,0.2,0.8,7.6411,30.5644,return,3.179070100000075,,,,,,,,,,,,,,,,,714,22,male,up_down_width,2024-08-26_10h59.32.803,exp1,2023.1.0,59.83441424202769,
,,,,,,,,,,,,,,,,5,8.65,9.325,10,10.675,11.35,0.675,0.275,0.4,3.1,10,match,36.05,312,336,361,385,409,9,9,9,9,9,,,,,,,3,0,3,0,0,35,35,33,,,,,,,,,,,,num_4,0.6591146000001515,num_4,0.25,0.8,0.3,1.2,11.46165,45.8466,return,2.8669826000001137,,,,,,,,,,,,,,,,,714,22,male,up_down_width,2024-08-26_10h59.32.803,exp1,2023.1.0,59.83441424202769,
,,,,,,,,,,,,,,,,3,8.6,10,11.4,0,0,1.4,0.85,0.55,3.35,10,match,36.05,310,361,411,0,0,9,9,9,0,0,,,,,,,3,0,3,0,0,36,36,41,,,,,,,,,,,,num_3,0.6888145999999722,num_3,0.4,1.3,0.5,1.5,19.10275,57.30826,return,2.6570150999999385,,,,,,,,,,,,,,,,,714,22,male,up_down_width,2024-08-26_10h59.32.803,exp1,2023.1.0,59.83441424202769,
,,,,,,,,,,,,,,,,5,7.8,8.9,10,11.1,12.2,1.1,0.7000000000000001,0.4,4.800000000000001,10,initial,36.05,281,321,361,400,440,9,9,9,9,9,,,,,,,3,0,3,0,0,37,37,38,,,,,,,,,,,,num_4,0.5507303999998783,num_4,0.3,1.2,0.44999999999999996,1.8,17.19248,68.76991,return,2.74922930000011,,,,,,,,,,,,,,,,,714,22,male,up_down_width,2024-08-26_10h59.32.803,exp1,2023.1.0,59.83441424202769,
,,,,,,,,,,,,,,,,5,8.65,9.325,10,10.675,11.35,0.675,0.42500000000000004,0.25,2.95,10,match,36.05,312,336,361,385,409,9,9,9,9,9,,,,,,,3,0,3,0,0,38,38,31,,,,,,,,,,,,num_4,0.6918517000000008,num_4,0.25,0.8,0.35,1.1,13.37193,42.02605,return,1.9895122999999728,,,,,,,,,,,,,,,,,714,22,male,up_down_width,2024-08-26_10h59.32.803,exp1,2023.1.0,59.83441424202769,
,,,,,,,,,,,,,,,,4,8.65,9.55,10.45,11.35,0,0.9,0.35,0.55,3.25,10,initial,36.05,312,344,377,409,0,9,9,9,9,0,,,,,,,3,0,3,0,0,39,39,28,,,,,,,,,,,,num_3,0.7079019000001097,num_3,0.2,1.1,0.6,1.15,22.9233,43.93633,return,2.5795942000000593,,,,,,,,,,,,,,,,,714,22,male,up_down_width,2024-08-26_10h59.32.803,exp1,2023.1.0,59.83441424202769,
,,,,,,,,,,,,,,,,4,9.1,9.7,10.3,10.9,0,0.6000000000000001,0.20000000000000004,0.4,2.2,10,match,36.05,328,350,371,393,0,9,9,9,9,0,,,,,,,3,0,3,0,0,40,40,16,,,,,,,,,,,,num_3,1.0097030000000302,num_3,0.3,0.8,0.39999999999999997,1.1,15.2822,42.02605,return,27.43070300000008,,,,,,,,,,,,,,,,,714,22,male,up_down_width,2024-08-26_10h59.32.803,exp1,2023.1.0,59.83441424202769,
,,,,,,,,,,,,,,,,5,8.95,9.475,10,10.525,11.05,0.525,0.125,0.4,2.5,10,match,36.05,323,342,361,379,398,9,9,9,9,9,,,,,,,3,0,3,0,0,41,41,27,,,,,,,,,,,,num_4,0.9360342000000799,num_4,0.4,1.0,0.45,1.0,17.19248,38.2055,return,5.887364200000178,,,,,,,,,,,,,,,,,714,22,male,up_down_width,2024-08-26_10h59.32.803,exp1,2023.1.0,59.83441424202769,
,,,,,,,,,,,,,,,,3,9.3,10,10.7,0,0,0.7,0.1499999999999999,0.55,1.95,10,initial,36.05,335,361,386,0,0,9,9,9,0,0,,,,,,,3,0,3,0,0,42,42,6,,,,,,,,,,,,num_3,0.7538457000001415,num_3,0.4,1,0.6000000000000001,1.05,22.9233,40.11578,return,1.9068175000000736,,,,,,,,,,,,,,,,,714,22,male,up_down_width,2024-08-26_10h59.32.803,exp1,2023.1.0,59.83441424202769,
,,,,,,,,,,,,,,,,4,8.95,9.65,10.35,11.05,0,0.7,0.1499999999999999,0.55,2.65,10,initial,36.05,323,348,373,398,0,9,9,9,9,0,,,,,,,3,0,3,0,0,43,43,23,,,,,,,,,,,,num_3,0.7116059999999322,num_3,0.5,1.2,0.6500000000000001,1.15,24.83358,43.93633,return,1.9765368000001615,,,,,,,,,,,,,,,,,714,22,male,up_down_width,2024-08-26_10h59.32.803,exp1,2023.1.0,59.83441424202769,
,,,,,,,,,,,,,,,,5,8.2,9.1,10,10.9,11.8,0.9,0.65,0.25,3.85,10,initial,36.05,296,328,361,393,425,9,9,9,9,9,,,,,,,3,0,3,0,0,44,44,48,,,,,,,,,,,,num_4,0.6325652000001298,num_4,0.4,1.1,0.20000000000000007,1.2,7.6411,45.8466,return,1.949580900000086,,,,,,,,,,,,,,,,,714,22,male,up_down_width,2024-08-26_10h59.32.803,exp1,2023.1.0,59.83441424202769,
,,,,,,,,,,,,,,,,3,9.1,10,10.9,0,0,0.9,0.5,0.4,2.2,10,initial,36.05,328,361,393,0,0,9,9,9,0,0,,,,,,,3,0,3,0,0,45,45,15,,,,,,,,,,,,num_3,0.7206548000002329,num_3,0.45,0.6,0.35000000000000003,0.8,13.37193,30.5644,return,2.1130398999999613,,,,,,,,,,,,,,,,,714,22,male,up_down_width,2024-08-26_10h59.32.803,exp1,2023.1.0,59.83441424202769,
,,,,,,,,,,,,,,,,4,8.825,9.608333333333333,10.391666666666667,11.175,0,0.7833333333333333,0.5333333333333333,0.25,2.6,10,match,36.05,318,346,375,403,0,9,9,9,9,0,,,,,,,3,0,3,0,0,46,46,5,,,,,,,,,,,,num_4,0.5242795000002332,num_4,0.5,1.3,0.30000000000000004,1.4,11.46165,53.48771,return,1.430408200000187,,,,,,,,,,,,,,,,,714,22,male,up_down_width,2024-08-26_10h59.32.803,exp1,2023.1.0,59.83441424202769,
,,,,,,,,,,,,,,,,3,8.9,10,11.1,0,0,1.1,0.8500000000000001,0.25,2.45,10,initial,36.05,321,361,400,0,0,9,9,9,0,0,,,,,,,3,0,3,0,0,47,47,2,,,,,,,,,,,,num_3,0.8197840000001122,num_3,0.25,0.3,0.15000000000000002,0.7,5.73083,26.74385,return,4.171760800000214,,,,,,,,,,,,,,,,,714,22,male,up_down_width,2024-08-26_10h59.32.803,exp1,2023.1.0,59.83441424202769,
,,,,,,,,,,,,,,,,4,9.3,9.766666666666667,10.233333333333333,10.7,0,0.4666666666666667,0.21666666666666665,0.25,1.65,10,match,36.05,335,352,369,386,0,9,9,9,9,0,,,,,,,3,0,3,0,0,48,48,8,,,,,,,,,,,,num_3,6.475777700000066,num_3,0.4,0.6,0.30000000000000004,0.6,11.46165,22.9233,return,1.7676536000002159,,,,,,,,,,,,,,,,,714,22,male,up_down_width,2024-08-26_10h59.32.803,exp1,2023.1.0,59.83441424202769,
,,,,,,,,,,,,,,,,5,8.35,9.175,10,10.825,11.65,0.825,0.575,0.25,3.55,10,match,36.05,301,331,361,390,420,9,9,9,9,9,,,,,,,3,0,3,0,0,49,49,20,,,,,,,,,,,,num_4,0.7949207000002332,num_4,0.5,1.3,0.15000000000000008,1.0,5.73083,38.2055,return,2.45394080000014,,,,,,,,,,,,,,,,,714,22,male,up_down_width,2024-08-26_10h59.32.803,exp1,2023.1.0,59.83441424202769,
,,,,,,,,,,,,,,,,4,8.9,9.633333333333333,10.366666666666667,11.1,0,0.7333333333333333,0.18333333333333326,0.55,2.75,10,match,36.05,321,347,374,400,0,9,9,9,9,0,,,,,,,3,0,3,0,0,50,50,1,,,,,,,,,,,,num_3,0.7458464000002039,num_3,0.3,1.1,0.39999999999999997,1.15,15.2822,43.93633,return,2.6006356999999696,,,,,,,,,,,,,,,,,714,22,male,up_down_width,2024-08-26_10h59.32.803,exp1,2023.1.0,59.83441424202769,
,,,,,,,,,,,,,,,,4,9.3,9.766666666666667,10.233333333333333,10.7,0,0.4666666666666667,0.06666666666666665,0.4,1.8,10,match,36.05,335,352,369,386,0,9,9,9,9,0,,,,,,,3,0,3,0,0,51,51,10,,,,,,,,,,,,num_4,0.701437000000027,num_4,0.2,0.8,0.44999999999999996,0.9,17.19248,34.38495,return,1.6643226000001903,,,,,,,,,,,,,,,,,714,22,male,up_down_width,2024-08-26_10h59.32.803,exp1,2023.1.0,59.83441424202769,
,,,,,,,,,,,,,,,,,,,,,,,,,,,,,,,,,,,,,,,,,,,,,3,0,3,0,,,,,,,,,,,,,,,,,,,,,,,,,,,,,1797.8794359,1797.8794359,1797.8794359,,,,,,,,,,,,714,22,male,up_down_width,2024-08-26_10h59.32.803,exp1,2023.1.0,59.83441424202769,
,,,,,,,,,,,,,,,,5,8.6,9.3,10,10.7,11.4,0.7,0.29999999999999993,0.4,3.1999999999999997,10,initial,36.05,310,335,361,386,411,9,9,9,9,9,,,,,,,4,0,4,0,0,0,0,44,,,,,,,,,,,,num_4,0.6611836000000437,num_4,0.55,1.0,0.4,1.0,15.2822,38.2055,return,1.5922051000000863,,,,,,,,,,,,,,,,,714,22,male,up_down_width,2024-08-26_10h59.32.803,exp1,2023.1.0,59.83441424202769,
,,,,,,,,,,,,,,,,3,8.6,10,11.4,0,0,1.4,0.85,0.55,3.35,10,match,36.05,310,361,411,0,0,9,9,9,0,0,,,,,,,4,0,4,0,0,1,1,41,,,,,,,,,,,,num_3,0.7561305000000118,num_3,0.25,0.7,0.39999999999999997,0.85,15.2822,32.47468,return,2.747246300000228,,,,,,,,,,,,,,,,,714,22,male,up_down_width,2024-08-26_10h59.32.803,exp1,2023.1.0,59.83441424202769,
,,,,,,,,,,,,,,,,3,8.2,10,11.8,0,0,1.8,1.25,0.55,4.15,10,match,36.05,296,361,425,0,0,9,9,9,0,0,,,,,,,4,0,4,0,0,2,2,47,,,,,,,,,,,,num_3,0.6427518000001271,num_3,0.25,1.1,0.44999999999999996,1.5,17.19248,57.30826,return,2.308047000000073,,,,,,,,,,,,,,,,,714,22,male,up_down_width,2024-08-26_10h59.32.803,exp1,2023.1.0,59.83441424202769,
,,,,,,,,,,,,,,,,5,8.6,9.3,10,10.7,11.4,0.7,0.1499999999999999,0.55,3.3499999999999996,10,initial,36.05,310,335,361,386,411,9,9,9,9,9,,,,,,,4,0,4,0,0,3,3,40,,,,,,,,,,,,num_4,0.7894428999998979,num_4,0.55,1.3,0.6500000000000001,1.2,24.83358,45.8466,return,1.9833632000000705,,,,,,,,,,,,,,,,,714,22,male,up_down_width,2024-08-26_10h59.32.803,exp1,2023.1.0,59.83441424202769,
,,,,,,,,,,,,,,,,4,9.1,9.7,10.3,10.9,0,0.6,0.04999999999999997,0.55,2.35,10,match,36.05,328,350,371,393,0,9,9,9,9,0,,,,,,,4,0,4,0,0,4,4,12,,,,,,,,,,,,num_3,0.6302932000001817,num_3,0.4,0.5,0.4,0.85,15.2822,32.47468,return,5.530635599999954,,,,,,,,,,,,,,,,,714,22,male,up_down_width,2024-08-26_10h59.32.803,exp1,2023.1.0,59.83441424202769,
,,,,,,,,,,,,,,,,3,8.9,10,11.1,0,0,1.1,0.55,0.55,2.75,10,initial,36.05,321,361,400,0,0,9,9,9,0,0,,,,,,,4,0,4,0,0,5,5,0,,,,,,,,,,,,num_3,0.6293705000001353,num_3,0.3,1.3,0.6,1.5,22.9233,57.30826,return,1.862975400000181,,,,,,,,,,,,,,,,,714,22,male,up_down_width,2024-08-26_10h59.32.803,exp1,2023.1.0,59.83441424202769,
,,,,,,,,,,,,,,,,5,8.35,9.175,10,10.825,11.65,0.825,0.575,0.25,3.55,10,match,36.05,301,331,361,390,420,9,9,9,9,9,,,,,,,4,0,4,0,0,6,6,20,,,,,,,,,,,,num_5,0.5350022000000934,num_5,0.3,1.0,0.39999999999999997,1.2,15.2822,45.8466,return,1.9044855000000496,,,,,,,,,,,,,,,,,714,22,male,up_down_width,2024-08-26_10h59.32.803,exp1,2023.1.0,59.83441424202769,
,,,,,,,,,,,,,,,,3,9.1,10,10.9,0,0,0.9,0.5,0.4,2.2,10,initial,36.05,328,361,393,0,0,9,9,9,0,0,,,,,,,4,0,4,0,0,7,7,15,,,,,,,,,,,,num_3,1.1691369999999495,num_3,0.2,0.7,0.39999999999999997,0.9,15.2822,34.38495,return,1.9782389000000364,,,,,,,,,,,,,,,,,714,22,male,up_down_width,2024-08-26_10h59.32.803,exp1,2023.1.0,59.83441424202769,
,,,,,,,,,,,,,,,,5,7.8,8.9,10,11.1,12.2,1.1,0.8500000000000001,0.25,4.65,10,initial,36.05,281,321,361,400,440,9,9,9,9,9,,,,,,,4,0,4,0,0,8,8,36,,,,,,,,,,,,num_4,0.7244057999999711,num_4,0.55,0.9,0.35000000000000003,1.2,13.37193,45.8466,return,2.8332424000001026,,,,,,,,,,,,,,,,,714,22,male,up_down_width,2024-08-26_10h59.32.803,exp1,2023.1.0,59.83441424202769,
,,,,,,,,,,,,,,,,4,8.9,9.633333333333333,10.366666666666667,11.1,0,0.7333333333333333,0.18333333333333326,0.55,2.75,10,match,36.05,321,347,374,400,0,9,9,9,9,0,,,,,,,4,0,4,0,0,9,9,1,,,,,,,,,,,,num_3,0.5988152000000753,num_3,0.5,1.3,0.45,1.35,17.19248,51.57743,return,2.424500500000107,,,,,,,,,,,,,,,,,714,22,male,up_down_width,2024-08-26_10h59.32.803,exp1,2023.1.0,59.83441424202769,
,,,,,,,,,,,,,,,,4,9.1,9.7,10.3,10.9,0,0.5999999999999999,0.3499999999999999,0.25,2.05,10,match,36.05,328,350,371,393,0,9,9,9,9,0,,,,,,,4,0,4,0,0,10,10,14,,,,,,,,,,,,num_3,0.6315427000000398,num_3,0.55,1,0.25000000000000006,1.05,9.55138,40.11578,return,2.664147100000122,,,,,,,,,,,,,,,,,714,22,male,up_down_width,2024-08-26_10h59.32.803,exp1,2023.1.0,59.83441424202769,
,,,,,,,,,,,,,,,,5,8.6,9.3,10,10.7,11.4,0.7,0.44999999999999996,0.25,3.05,10,initial,36.05,310,335,361,386,411,9,9,9,9,9,,,,,,,4,0,4,0,0,11,11,42,,,,,,,,,,,,num_4,0.6673434000000213,num_4,0.3,0.6,0.2,1.0,7.6411,38.2055,return,1.8039853999999593,,,,,,,,,,,,,,,,,714,22,male,up_down_width,2024-08-26_10h59.32.803,exp1,2023.1.0,59.83441424202769,
,,,,,,,,,,,,,,,,5,8.65,9.325,10,10.675,11.35,0.675,0.125,0.55,3.25,10,match,36.05,312,336,361,385,409,9,9,9,9,9,,,,,,,4,0,4,0,0,12,12,29,,,,,,,,,,,,num_4,0.6324559000000534,num_4,0.2,0.4,0.39999999999999997,0.8,15.2822,30.5644,return,2.621391799999941,,,,,,,,,,,,,,,,,714,22,male,up_down_width,2024-08-26_10h59.32.803,exp1,2023.1.0,59.83441424202769,
,,,,,,,,,,,,,,,,5,8.65,9.325,10,10.675,11.35,0.675,0.42500000000000004,0.25,2.95,10,match,36.05,312,336,361,385,409,9,9,9,9,9,,,,,,,4,0,4,0,0,13,13,31,,,,,,,,,,,,num_4,0.8340664999999206,num_4,0.25,0.6,0.3,1.1,11.46165,42.02605,return,1.8199499000000685,,,,,,,,,,,,,,,,,714,22,male,up_down_width,2024-08-26_10h59.32.803,exp1,2023.1.0,59.83441424202769,
,,,,,,,,,,,,,,,,4,8.65,9.55,10.45,11.35,0,0.9,0.35,0.55,3.25,10,initial,36.05,312,344,377,409,0,9,9,9,9,0,,,,,,,4,0,4,0,0,14,14,28,,,,,,,,,,,,num_4,0.5527969999999129,num_4,0.4,1.2,0.4,1.3,15.2822,49.66716,return,1.1533080000000098,,,,,,,,,,,,,,,,,714,22,male,up_down_width,2024-08-26_10h59.32.803,exp1,2023.1.0,59.83441424202769,
,,,,,,,,,,,,,,,,3,9.1,10,10.9,0,0,0.9,0.65,0.25,2.05,10,initial,36.05,328,361,393,0,0,9,9,9,0,0,,,,,,,4,0,4,0,0,15,15,13,,,,,,,,,,,,num_3,0.849483099999901,num_3,0.55,0.9,0.5,1.25,19.10275,47.75688,return,2.3659828000000687,,,,,,,,,,,,,,,,,714,22,male,up_down_width,2024-08-26_10h59.32.803,exp1,2023.1.0,59.83441424202769,
,,,,,,,,,,,,,,,,4,8.65,9.55,10.45,11.35,0,0.9,0.65,0.25,2.95,10,initial,36.05,312,344,377,409,0,9,9,9,9,0,,,,,,,4,0,4,0,0,16,16,30,,,,,,,,,,,,num_4,0.6917564000001164,num_4,0.2,0.6,0.35,0.8,13.37193,30.5644,return,2.13431620000037,,,,,,,,,,,,,,,,,714,22,male,up_down_width,2024-08-26_10h59.32.803,exp1,2023.1.0,59.83441424202769,
,,,,,,,,,,,,,,,,3,9.3,10,10.7,0,0,0.7,0.1499999999999999,0.55,1.95,10,initial,36.05,335,361,386,0,0,9,9,9,0,0,,,,,,,4,0,4,0,0,17,17,6,,,,,,,,,,,,num_3,0.593656999999979,num_3,0.4,1.3,0.55,1.3,21.01303,49.66716,return,1.9090342000000362,,,,,,,,,,,,,,,,,714,22,male,up_down_width,2024-08-26_10h59.32.803,exp1,2023.1.0,59.83441424202769,
,,,,,,,,,,,,,,,,3,9.3,10,10.7,0,0,0.7,0.44999999999999996,0.25,1.65,10,initial,36.05,335,361,386,0,0,9,9,9,0,0,,,,,,,4,0,4,0,0,18,18,7,,,,,,,,,,,,num_2,0.6769070000001136,num_2,0.45,1.0,0.35000000000000003,1.0,13.37193,38.2055,return,1.8448153000000218,,,,,,,,,,,,,,,,,714,22,male,up_down_width,2024-08-26_10h59.32.803,exp1,2023.1.0,59.83441424202769,
,,,,,,,,,,,,,,,,3,8.6,10,11.4,0,0,1.4,1.15,0.25,3.05,10,match,36.05,310,361,411,0,0,9,9,9,0,0,,,,,,,4,0,4,0,0,19,19,43,,,,,,,,,,,,num_3,0.7220536000000664,num_3,0.3,0.9,0.2,1.2,7.6411,45.8466,return,2.7362192000001357,,,,,,,,,,,,,,,,,714,22,male,up_down_width,2024-08-26_10h59.32.803,exp1,2023.1.0,59.83441424202769,
,,,,,,,,,,,,,,,,3,7.8,10,12.2,0,0,2.2,1.65,0.55,4.95,10,match,36.05,281,361,440,0,0,9,9,9,0,0,,,,,,,4,0,4,0,0,20,20,35,,,,,,,,,,,,num_3,0.6743273000002716,num_3,0.5,1.2,0.5,1.75,19.10275,66.85963,return,4.567363499999914,,,,,,,,,,,,,,,,,714,22,male,up_down_width,2024-08-26_10h59.32.803,exp1,2023.1.0,59.83441424202769,
,,,,,,,,,,,,,,,,3,9.1,10,10.9,0,0,0.9,0.35,0.55,2.35,10,initial,36.05,328,361,393,0,0,9,9,9,0,0,,,,,,,4,0,4,0,0,21,21,11,,,,,,,,,,,,num_3,0.5743554000001438,num_3,0.25,1.1,0.6,1.1,22.9233,42.02605,return,1.5861460000001841,,,,,,,,,,,,,,,,,714,22,male,up_down_width,2024-08-26_10h59.32.803,exp1,2023.1.0,59.83441424202769,
,,,,,,,,,,,,,,,,5,8.65,9.325,10,10.675,11.35,0.675,0.275,0.4,3.1,10,match,36.05,312,336,361,385,409,9,9,9,9,9,,,,,,,4,0,4,0,0,22,22,33,,,,,,,,,,,,num_4,0.58460390000036,num_4,0.2,1.0,0.5499999999999999,1.0,21.01303,38.2055,return,1.6115733000002308,,,,,,,,,,,,,,,,,714,22,male,up_down_width,2024-08-26_10h59.32.803,exp1,2023.1.0,59.83441424202769,
,,,,,,,,,,,,,,,,4,8.35,9.45,10.55,11.65,0,1.1,0.8500000000000001,0.25,3.5500000000000003,10,initial,36.05,301,341,380,420,0,9,9,9,9,0,,,,,,,4,0,4,0,0,23,23,19,,,,,,,,,,,,num_4,0.6631469000004415,num_4,0.25,0.9,0.2,1.2,7.6411,45.8466,return,1.3484371000000408,,,,,,,,,,,,,,,,,714,22,male,up_down_width,2024-08-26_10h59.32.803,exp1,2023.1.0,59.83441424202769,
,,,,,,,,,,,,,,,,4,9.3,9.766666666666667,10.233333333333333,10.7,0,0.4666666666666667,0.06666666666666665,0.4,1.8,10,match,36.05,335,352,369,386,0,9,9,9,9,0,,,,,,,4,0,4,0,0,24,24,10,,,,,,,,,,,,num_4,0.7996172000003696,num_4,0.5,1.3,0.4,0.7,15.2822,26.74385,return,2.173309999999759,,,,,,,,,,,,,,,,,714,22,male,up_down_width,2024-08-26_10h59.32.803,exp1,2023.1.0,59.83441424202769,
,,,,,,,,,,,,,,,,4,9.3,9.766666666666667,10.233333333333333,10.7,0,0.4666666666666667,0.21666666666666665,0.25,1.65,10,match,36.05,335,352,369,386,0,9,9,9,9,0,,,,,,,4,0,4,0,0,25,25,8,,,,,,,,,,,,num_4,1.5625883000003284,num_4,0.25,1.0,0.25,0.5,9.55138,19.10275,return,2.9469054000001904,,,,,,,,,,,,,,,,,714,22,male,up_down_width,2024-08-26_10h59.32.803,exp1,2023.1.0,59.83441424202769,
,,,,,,,,,,,,,,,,4,8.65,9.55,10.45,11.35,0,0.9,0.5,0.4,3.1,10,initial,36.05,312,344,377,409,0,9,9,9,9,0,,,,,,,4,0,4,0,0,26,26,32,,,,,,,,,,,,num_4,0.6371981999996876,num_4,0.55,1.1,0.4,1.1,15.2822,42.02605,return,2.482237700000127,,,,,,,,,,,,,,,,,714,22,male,up_down_width,2024-08-26_10h59.32.803,exp1,2023.1.0,59.83441424202769,
,,,,,,,,,,,,,,,,5,8.275,9.1375,10,10.8625,11.725,0.8625,0.6125,0.25,3.7,10,match,36.05,298,329,361,392,423,9,9,9,9,9,,,,,,,4,0,4,0,0,27,27,22,,,,,,,,,,,,num_4,0.6684470999999519,num_4,0.25,0.9,0.3,1.0,11.46165,38.2055,return,1.869580099999979,,,,,,,,,,,,,,,,,714,22,male,up_down_width,2024-08-26_10h59.32.803,exp1,2023.1.0,59.83441424202769,
,,,,,,,,,,,,,,,,4,8.825,9.608333333333333,10.391666666666667,11.175,0,0.7833333333333333,0.5333333333333333,0.25,2.6,10,match,36.05,318,346,375,403,0,9,9,9,9,0,,,,,,,4,0,4,0,0,28,28,5,,,,,,,,,,,,num_2,2.006997900000073,num_2,0.25,0.4,0.3,0.3,11.46165,11.46165,return,2.9112525000001312,,,,,,,,,,,,,,,,,714,22,male,up_down_width,2024-08-26_10h59.32.803,exp1,2023.1.0,59.83441424202769,
,,,,,,,,,,,,,,,,4,8.9,9.633333333333333,10.366666666666667,11.1,0,0.7333333333333334,0.4833333333333334,0.25,2.45,10,match,36.05,321,347,374,400,0,9,9,9,9,0,,,,,,,4,0,4,0,0,29,29,3,,,,,,,,,,,,num_3,0.7401357999998197,num_3,0.3,1,0.35,1,13.37193,38.2055,return,1.0744694999999354,,,,,,,,,,,,,,,,,714,22,male,up_down_width,2024-08-26_10h59.32.803,exp1,2023.1.0,59.83441424202769,
,,,,,,,,,,,,,,,,5,8.2,9.1,10,10.9,11.8,0.9,0.5,0.4,4,10,initial,36.05,296,328,361,393,425,9,9,9,9,9,,,,,,,4,0,4,0,0,30,30,50,,,,,,,,,,,,num_4,0.6580586000000892,num_4,0.5,1.1,0.5,1.1,19.10275,42.02605,return,0.24419960000031438,,,,,,,,,,,,,,,,,714,22,male,up_down_width,2024-08-26_10h59.32.803,exp1,2023.1.0,59.83441424202769,
,,,,,,,,,,,,,,,,5,8.95,9.475,10,10.525,11.05,0.525,0.275,0.25,2.35,10,match,36.05,323,342,361,379,398,9,9,9,9,9,,,,,,,4,0,4,0,0,31,31,25,,,,,,,,,,,,num_3,1.2208287000003963,num_3,0.4,1,0.4,1,15.2822,38.2055,return,0.2545275000003073,,,,,,,,,,,,,,,,,714,22,male,up_down_width,2024-08-26_10h59.32.803,exp1,2023.1.0,59.83441424202769,
,,,,,,,,,,,,,,,,5,8.35,9.175,10,10.825,11.65,0.8250000000000001,0.275,0.55,3.85,10,match,36.05,301,331,361,390,420,9,9,9,9,9,,,,,,,4,0,4,0,0,32,32,18,,,,,,,,,,,,num_4,0.6463905999999895,num_4,0.5,1.1,0.5,1.1,19.10275,42.02605,return,0.11977900000019304,,,,,,,,,,,,,,,,,714,22,male,up_down_width,2024-08-26_10h59.32.803,exp1,2023.1.0,59.83441424202769,
,,,,,,,,,,,,,,,,3,8.2,10,11.8,0,0,1.8,1.55,0.25,3.85,10,match,36.05,296,361,425,0,0,9,9,9,0,0,,,,,,,4,0,4,0,0,33,33,49,,,,,,,,,,,,num_3,0.58324920000004,num_3,0.2,0.5,0.2,0.5,7.6411,19.10275,return,0.12715630000010947,,,,,,,,,,,,,,,,,714,22,male,up_down_width,2024-08-26_10h59.32.803,exp1,2023.1.0,59.83441424202769,
,,,,,,,,,,,,,,,,4,8.35,9.45,10.55,11.65,0,1.1,0.55,0.55,3.8500000000000005,10,initial,36.05,301,341,380,420,0,9,9,9,9,0,,,,,,,4,0,4,0,0,34,34,17,,,,,,,,,,,,num_3,0.5619433000002516,num_3,0.4,1.1,0.4,1.1,15.2822,42.02605,return,0.08772780000035141,,,,,,,,,,,,,,,,,714,22,male,up_down_width,2024-08-26_10h59.32.803,exp1,2023.1.0,59.83441424202769,
,,,,,,,,,,,,,,,,4,8.95,9.65,10.35,11.05,0,0.7,0.1499999999999999,0.55,2.65,10,initial,36.05,323,348,373,398,0,9,9,9,9,0,,,,,,,4,0,4,0,0,35,35,23,,,,,,,,,,,,num_3,0.6822130999999843,num_3,0.55,1.1,0.55,1.1,21.01303,42.02605,return,0.09127189999989582,,,,,,,,,,,,,,,,,714,22,male,up_down_width,2024-08-26_10h59.32.803,exp1,2023.1.0,59.83441424202769,
,,,,,,,,,,,,,,,,4,8.95,9.65,10.35,11.05,0,0.7,0.44999999999999996,0.25,2.3499999999999996,10,initial,36.05,323,348,373,398,0,9,9,9,9,0,,,,,,,4,0,4,0,0,36,36,24,,,,,,,,,,,,num_3,0.6038850000000764,num_3,0.4,0.9,0.4,0.9,15.2822,34.38495,return,0.05218500000009385,,,,,,,,,,,,,,,,,714,22,male,up_down_width,2024-08-26_10h59.32.803,exp1,2023.1.0,59.83441424202769,
,,,,,,,,,,,,,,,,3,8.9,10,11.1,0,0,1.1,0.7000000000000001,0.4,2.6000000000000005,10,initial,36.05,321,361,400,0,0,9,9,9,0,0,,,,,,,4,0,4,0,0,37,37,4,,,,,,,,,,,,num_3,0.6911169999999345,num_3,0.45,1,0.45,1,17.19248,38.2055,return,0.038277400000055195,,,,,,,,,,,,,,,,,714,22,male,up_down_width,2024-08-26_10h59.32.803,exp1,2023.1.0,59.83441424202769,
,,,,,,,,,,,,,,,,3,8.525,10,11.475,0,0,1.475,1.225,0.25,3.2,10,match,36.05,307,361,414,0,0,9,9,9,0,0,,,,,,,4,0,4,0,0,38,38,45,,,,,,,,,,,,num_3,0.5660031000003016,num_3,0.2,0.9,0.2,0.9,7.6411,34.38495,return,0.05576029999983234,,,,,,,,,,,,,,,,,714,22,male,up_down_width,2024-08-26_10h59.32.803,exp1,2023.1.0,59.83441424202769,
,,,,,,,,,,,,,,,,3,8.2,10,11.8,0,0,1.7999999999999998,1.4,0.4,4,10,match,36.05,296,361,425,0,0,9,9,9,0,0,,,,,,,4,0,4,0,0,39,39,51,,,,,,,,,,,,num_3,0.651720200000085,num_3,0.2,0.7,0.2,0.7,7.6411,26.74385,return,0.04669580000026485,,,,,,,,,,,,,,,,,714,22,male,up_down_width,2024-08-26_10h59.32.803,exp1,2023.1.0,59.83441424202769,
,,,,,,,,,,,,,,,,5,8.2,9.1,10,10.9,11.8,0.9,0.65,0.25,3.85,10,initial,36.05,296,328,361,393,425,9,9,9,9,9,,,,,,,4,0,4,0,0,40,40,48,,,,,,,,,,,,num_3,0.177072199999742,num_3,0.35,1,0.35,1,13.37193,38.2055,return,0.0796990999998286,,,,,,,,,,,,,,,,,714,22,male,up_down_width,2024-08-26_10h59.32.803,exp1,2023.1.0,59.83441424202769,
,,,,,,,,,,,,,,,,3,9.3,10,10.7,0,0,0.7,0.29999999999999993,0.4,1.8,10,initial,36.05,335,361,386,0,0,9,9,9,0,0,,,,,,,4,0,4,0,0,41,41,9,,,,,,,,,,,,num_3,0.6061057000002563,num_3,0.5,0.7,0.5,0.7,19.10275,26.74385,return,0.06432419999973149,,,,,,,,,,,,,,,,,714,22,male,up_down_width,2024-08-26_10h59.32.803,exp1,2023.1.0,59.83441424202769,
,,,,,,,,,,,,,,,,5,7.8,8.9,10,11.1,12.2,1.1,0.55,0.55,4.95,10,initial,36.05,281,321,361,400,440,9,9,9,9,9,,,,,,,4,0,4,0,0,42,42,34,,,,,,,,,,,,num_4,0.5439397000000952,num_4,0.25,0.9,0.25,0.9,9.55138,34.38495,return,0.10179690000003916,,,,,,,,,,,,,,,,,714,22,male,up_down_width,2024-08-26_10h59.32.803,exp1,2023.1.0,59.83441424202769,
,,,,,,,,,,,,,,,,3,8.9,10,11.1,0,0,1.1,0.8500000000000001,0.25,2.45,10,initial,36.05,321,361,400,0,0,9,9,9,0,0,,,,,,,4,0,4,0,0,43,43,2,,,,,,,,,,,,num_3,1.229922099999925,num_3,0.3,0.8,0.3,0.8,11.46165,30.5644,return,0.1474008999999512,,,,,,,,,,,,,,,,,714,22,male,up_down_width,2024-08-26_10h59.32.803,exp1,2023.1.0,59.83441424202769,
,,,,,,,,,,,,,,,,4,8.95,9.65,10.35,11.05,0,0.7,0.29999999999999993,0.4,2.5,10,initial,36.05,323,348,373,398,0,9,9,9,9,0,,,,,,,4,0,4,0,0,44,44,26,,,,,,,,,,,,num_3,0.572292000000374,num_3,0.3,1,0.3,1,11.46165,38.2055,return,0.035382899999689243,,,,,,,,,,,,,,,,,714,22,male,up_down_width,2024-08-26_10h59.32.803,exp1,2023.1.0,59.83441424202769,
,,,,,,,,,,,,,,,,5,8.95,9.475,10,10.525,11.05,0.525,0.125,0.4,2.5,10,match,36.05,323,342,361,379,398,9,9,9,9,9,,,,,,,4,0,4,0,0,45,45,27,,,,,,,,,,,,num_4,0.7904949999998223,num_4,0.25,0.7,0.25,0.7,9.55138,26.74385,return,0.14397850000031553,,,,,,,,,,,,,,,,,714,22,male,up_down_width,2024-08-26_10h59.32.803,exp1,2023.1.0,59.83441424202769,
,,,,,,,,,,,,,,,,5,8.2,9.1,10,10.9,11.8,0.9,0.35,0.55,4.15,10,initial,36.05,296,328,361,393,425,9,9,9,9,9,,,,,,,4,0,4,0,0,46,46,46,,,,,,,,,,,,num_4,0.5092634999997188,num_4,0.55,1.3,0.55,1.3,21.01303,49.66716,return,0.15106660000000716,,,,,,,,,,,,,,,,,714,22,male,up_down_width,2024-08-26_10h59.32.803,exp1,2023.1.0,59.83441424202769,
,,,,,,,,,,,,,,,,3,7.8,10,12.2,0,0,2.2,1.9500000000000002,0.25,4.65,10,match,36.05,281,361,440,0,0,9,9,9,0,0,,,,,,,4,0,4,0,0,47,47,37,,,,,,,,,,,,num_3,0.8681770999997696,num_3,0.4,0.8,0.30000000000000004,1.55,11.46165,59.21853,return,4.956107999999944,,,,,,,,,,,,,,,,,714,22,male,up_down_width,2024-08-26_10h59.32.803,exp1,2023.1.0,59.83441424202769,
,,,,,,,,,,,,,,,,5,7.8,8.9,10,11.1,12.2,1.1,0.7000000000000001,0.4,4.800000000000001,10,initial,36.05,281,321,361,400,440,9,9,9,9,9,,,,,,,4,0,4,0,0,48,48,38,,,,,,,,,,,,num_4,0.8191751000000238,num_4,0.25,0.7,0.3,1.7,11.46165,64.94936,return,3.069350699999717,,,,,,,,,,,,,,,,,714,22,male,up_down_width,2024-08-26_10h59.32.803,exp1,2023.1.0,59.83441424202769,
,,,,,,,,,,,,,,,,4,9.1,9.7,10.3,10.9,0,0.6000000000000001,0.20000000000000004,0.4,2.2,10,match,36.05,328,350,371,393,0,9,9,9,9,0,,,,,,,4,0,4,0,0,49,49,16,,,,,,,,,,,,num_4,0.59242279999998,num_4,0.25,0.8,0.39999999999999997,1.1,15.2822,42.02605,return,2.1981959000000586,,,,,,,,,,,,,,,,,714,22,male,up_down_width,2024-08-26_10h59.32.803,exp1,2023.1.0,59.83441424202769,
,,,,,,,,,,,,,,,,4,8.35,9.45,10.55,11.65,0,1.1,0.7000000000000001,0.4,3.7,10,initial,36.05,301,341,380,420,0,9,9,9,9,0,,,,,,,4,0,4,0,0,50,50,21,,,,,,,,,,,,num_4,0.8856496000003915,num_4,0.5,1.2,0.35000000000000003,1.4,13.37193,53.48771,return,1.4729932000001043,,,,,,,,,,,,,,,,,714,22,male,up_down_width,2024-08-26_10h59.32.803,exp1,2023.1.0,59.83441424202769,
,,,,,,,,,,,,,,,,3,7.800000000000001,10,12.2,0,0,2.1999999999999997,1.7999999999999998,0.4,4.8,10,match,36.05,281,361,440,0,0,9,9,9,0,0,,,,,,,4,0,4,0,0,51,51,39,,,,,,,,,,,,num_3,0.9030443000002322,num_3,0.25,0.9,0.35,1.4,13.37193,53.48771,return,4.226112200000074,,,,,,,,,,,,,,,,,714,22,male,up_down_width,2024-08-26_10h59.32.803,exp1,2023.1.0,59.83441424202769,
,,,,,,,,,,,,,,,,,,,,,,,,,,,,,,,,,,,,,,,,,,,,,4,0,4,0,,,,,,,,,,,,,,,,,,,,,,,,,,,,,2022.3958336000003,2022.3958336000003,2022.3958336000003,,,,,,,,,,,,714,22,male,up_down_width,2024-08-26_10h59.32.803,exp1,2023.1.0,59.83441424202769,
,,,,,,,,,,,,,,,,4,9.3,9.766666666666667,10.233333333333333,10.7,0,0.4666666666666667,0.06666666666666665,0.4,1.8,10,match,36.05,335,352,369,386,0,9,9,9,9,0,,,,,,,5,0,5,0,0,0,0,10,,,,,,,,,,,,num_3,0.9184338000000878,num_3,0.45,0.8,0.45,0.8,17.19248,30.5644,return,2.187464000000176,,,,,,,,,,,,,,,,,714,22,male,up_down_width,2024-08-26_10h59.32.803,exp1,2023.1.0,59.83441424202769,
,,,,,,,,,,,,,,,,4,8.65,9.55,10.45,11.35,0,0.9,0.35,0.55,3.25,10,initial,36.05,312,344,377,409,0,9,9,9,9,0,,,,,,,5,0,5,0,0,1,1,28,,,,,,,,,,,,num_3,0.7616251000000318,num_3,0.55,0.8,0.55,0.8,21.01303,30.5644,return,0.09021850000007703,,,,,,,,,,,,,,,,,714,22,male,up_down_width,2024-08-26_10h59.32.803,exp1,2023.1.0,59.83441424202769,
,,,,,,,,,,,,,,,,3,8.525,10,11.475,0,0,1.475,1.225,0.25,3.2,10,match,36.05,307,361,414,0,0,9,9,9,0,0,,,,,,,5,0,5,0,0,2,2,45,,,,,,,,,,,,num_3,0.41404399999973407,num_3,0.55,1.1,0.55,1.1,21.01303,42.02605,return,0.1048410000003912,,,,,,,,,,,,,,,,,714,22,male,up_down_width,2024-08-26_10h59.32.803,exp1,2023.1.0,59.83441424202769,
,,,,,,,,,,,,,,,,5,8.65,9.325,10,10.675,11.35,0.675,0.275,0.4,3.1,10,match,36.05,312,336,361,385,409,9,9,9,9,9,,,,,,,5,0,5,0,0,3,3,33,,,,,,,,,,,,num_4,0.7560901999996474,num_4,0.35,0.4,0.35,0.4,13.37193,15.2822,return,0.08187880000022574,,,,,,,,,,,,,,,,,714,22,male,up_down_width,2024-08-26_10h59.32.803,exp1,2023.1.0,59.83441424202769,
,,,,,,,,,,,,,,,,3,8.9,10,11.1,0,0,1.1,0.7000000000000001,0.4,2.6000000000000005,10,initial,36.05,321,361,400,0,0,9,9,9,0,0,,,,,,,5,0,5,0,0,4,4,4,,,,,,,,,,,,num_3,0.5908004999999719,num_3,0.35,0.6,0.35,0.6,13.37193,22.9233,return,0.1030338999997582,,,,,,,,,,,,,,,,,714,22,male,up_down_width,2024-08-26_10h59.32.803,exp1,2023.1.0,59.83441424202769,
,,,,,,,,,,,,,,,,5,8.35,9.175,10,10.825,11.65,0.825,0.575,0.25,3.55,10,match,36.05,301,331,361,390,420,9,9,9,9,9,,,,,,,5,0,5,0,0,5,5,20,,,,,,,,,,,,num_4,0.6593267999995476,num_4,0.3,0.5,0.3,0.5,11.46165,19.10275,return,0.13163109999990752,,,,,,,,,,,,,,,,,714,22,male,up_down_width,2024-08-26_10h59.32.803,exp1,2023.1.0,59.83441424202769,
,,,,,,,,,,,,,,,,3,9.3,10,10.7,0,0,0.7,0.44999999999999996,0.25,1.65,10,initial,36.05,335,361,386,0,0,9,9,9,0,0,,,,,,,5,0,5,0,0,6,6,7,,,,,,,,,,,,num_2,0.790753399999943,num_2,0.4,1.6,0.4,1.6,15.2822,61.12881,return,0.6293893000000423,,,,,,,,,,,,,,,,,714,22,male,up_down_width,2024-08-26_10h59.32.803,exp1,2023.1.0,59.83441424202769,
,,,,,,,,,,,,,,,,3,9.1,10,10.9,0,0,0.9,0.5,0.4,2.2,10,initial,36.05,328,361,393,0,0,9,9,9,0,0,,,,,,,5,0,5,0,0,7,7,15,,,,,,,,,,,,num_3,0.3419311999999479,num_3,0.5,0.6,0.5,0.6,19.10275,22.9233,return,0.10147760000003814,,,,,,,,,,,,,,,,,714,22,male,up_down_width,2024-08-26_10h59.32.803,exp1,2023.1.0,59.83441424202769,
,,,,,,,,,,,,,,,,5,8.275,9.1375,10,10.8625,11.725,0.8625,0.6125,0.25,3.7,10,match,36.05,298,329,361,392,423,9,9,9,9,9,,,,,,,5,0,5,0,0,8,8,22,,,,,,,,,,,,num_4,0.6408098999998799,num_4,0.45,0.6,0.45,0.6,17.19248,22.9233,return,0.110578599999684,,,,,,,,,,,,,,,,,714,22,male,up_down_width,2024-08-26_10h59.32.803,exp1,2023.1.0,59.83441424202769,
,,,,,,,,,,,,,,,,5,8.6,9.3,10,10.7,11.4,0.7,0.1499999999999999,0.55,3.3499999999999996,10,initial,36.05,310,335,361,386,411,9,9,9,9,9,,,,,,,5,0,5,0,0,9,9,40,,,,,,,,,,,,num_4,0.45909960000003025,num_4,0.2,0.9,0.2,0.9,7.6411,34.38495,return,0.06925339999983748,,,,,,,,,,,,,,,,,714,22,male,up_down_width,2024-08-26_10h59.32.803,exp1,2023.1.0,59.83441424202769,
