amount_p,posx1_p,posx2_p,posx3_p,posx4_p,posx5_p,center_to_center_p,edge_to_edge_p,w_p,stim_lengt_p,eccentricity_p,line1_p,line2_p,line3_p,line4_p,line5_p,amount,posx1,posx2,posx3,posx4,posx5,center_to_center,edge_to_edge,w,stim_length,eccentricity,trial_type,deg_to_pix_index,posx1_in_pix,posx2_in_pix,posx3_in_pix,posx4_in_pix,posx5_in_pix,line1,line2,line3,line4,line5,posx,setsize_cobdi,trials.thisRepN,trials.thisTrialN,trials.thisN,trials.thisIndex,blocks.thisRepN,blocks.thisTrialN,blocks.thisN,blocks.thisIndex,loop.thisRepN,loop.thisTrialN,loop.thisN,loop.thisIndex,first.thisRepN,first.thisTrialN,first.thisN,first.thisIndex,second.thisRepN,second.thisTrialN,second.thisN,second.thisIndex,key_resp_3.started,key_resp_3.keys,key_resp_3.rt,key_resp.keys,key_resp.rt,response,starting_width_deg,starting_space_deg,response_width_degree,response_spacing_degree,response_width_pixel,response_spacing_pixel,next_5.keys,next_5.rt,key_resp_4.keys,key_resp_4.rt,text_3.started,text_4.started,key_resp_2.started,text_2.started,key_resp_2.keys,key_resp_2.rt,adjusting.started,next.keys,next.rt,text_control2.started,key_resp.started,key_resp.corr,text_bye.started,text_bye.stopped,participant,age,gender,resp_group,date,expName,psychopyVersion,frameRate,
,,,,,,,,,,,,,,,,,,,,,,,,,,,,,,,,,,,,,,,,,,,,,,,,,,,,,,,,,,,,,304.1305175999987,c,257.3072073000003,,,,,,,,,,,,,,,,,,,,,,,,,,,,715,23,male,left_right_width,2024-08-26_17h02.48.035,exp1,2023.1.0,59.839713343737365,
5,8.6,9.3,10,10.7,11.4,0.7,0.29999999999999993,0.4,3.1999999999999997,10,9,9,9,9,9,,,,,,,,,,,,,,,,,,,,,,,,,,0,0,0,7,,,,,,,,,,,,,,,,,,,,num_4,1.4161441000032937,num_4,0.3,0.6,0.3,0.7,11.46165,26.74385,return,7.813288500001363,,,,,,,,,,,,,,,,,715,23,male,left_right_width,2024-08-26_17h02.48.035,exp1,2023.1.0,59.839713343737365,
4,9.25,9.75,10.25,10.75,0,0.5,0.25,0.25,1.75,10,9,9,9,9,0,,,,,,,,,,,,,,,,,,,,,,,,,,0,1,1,4,,,,,,,,,,,,,,,,,,,,num_4,2.498887300000206,num_4,0.25,0.9,0.15000000000000002,1.1,5.73083,42.02605,return,5.982376200001454,,,,,,,,,,,,,,,,,715,23,male,left_right_width,2024-08-26_17h02.48.035,exp1,2023.1.0,59.839713343737365,
3,9.5,10,10.5,0,0,0.5,0.4,0.1,1.1,10,9,9,9,0,0,,,,,,,,,,,,,,,,,,,,,,,,,,0,2,2,0,,,,,,,,,,,,,,,,,,,,num_3,3.5673915000043053,num_3,0.3,1,-0.04999999999999999,0.55,-1.91028,21.01303,return,11.311038700001518,,,,,,,,,,,,,,,,,715,23,male,left_right_width,2024-08-26_17h02.48.035,exp1,2023.1.0,59.839713343737365,
4,9.5,9.833333333333334,10.166666666666666,10.5,0,0.33333333333333337,0.23333333333333336,0.1,1.1,10,9,9,9,9,0,,,,,,,,,,,,,,,,,,,,,,,,,,0,3,3,3,,,,,,,,,,,,,,,,,,,,num_4,2.74967050000123,num_4,0.45,1.1,0.20000000000000007,0.5,7.6411,19.10275,return,7.455049600001075,,,,,,,,,,,,,,,,,715,23,male,left_right_width,2024-08-26_17h02.48.035,exp1,2023.1.0,59.839713343737365,
5,9.25,9.625,10,10.375,10.75,0.375,0.125,0.25,1.75,10,9,9,9,9,9,,,,,,,,,,,,,,,,,,,,,,,,,,0,4,4,6,,,,,,,,,,,,,,,,,,,,num_6,2.406574800003,num_6,0.25,0.5,0.15000000000000002,0.4,5.73083,15.2822,return,6.90803650000089,,,,,,,,,,,,,,,,,715,23,male,left_right_width,2024-08-26_17h02.48.035,exp1,2023.1.0,59.839713343737365,
3,8.2,10,11.8,0,0,1.7999999999999998,1.4,0.4,4,10,9,9,9,0,0,,,,,,,,,,,,,,,,,,,,,,,,,,0,5,5,2,,,,,,,,,,,,,,,,,,,,num_3,1.5937325000013516,num_3,0.55,0.8,0.30000000000000004,0.65,11.46165,24.83358,return,7.169597000000067,,,,,,,,,,,,,,,,,715,23,male,left_right_width,2024-08-26_17h02.48.035,exp1,2023.1.0,59.839713343737365,
4,8.65,9.55,10.45,11.35,0,0.9,0.5,0.4,3.1,10,9,9,9,9,0,,,,,,,,,,,,,,,,,,,,,,,,,,0,6,6,5,,,,,,,,,,,,,,,,,,,,num_4,1.553997500002879,num_4,0.35,0.5,0.3,0.7,11.46165,26.74385,return,3.598325599999953,,,,,,,,,,,,,,,,,715,23,male,left_right_width,2024-08-26_17h02.48.035,exp1,2023.1.0,59.839713343737365,
3,9,10,11,0,0,1,0.9,0.1,2.1,10,9,9,9,0,0,,,,,,,,,,,,,,,,,,,,,,,,,,0,7,7,1,,,,,,,,,,,,,,,,,,,,num_3,1.3823109000040859,num_3,0.35,0.7,0.2,0.6,7.6411,22.9233,return,3.5659867000031227,,,,,,,,,,,,,,,,,715,23,male,left_right_width,2024-08-26_17h02.48.035,exp1,2023.1.0,59.839713343737365,
5,9,9.5,10,10.5,11,0.5,0.09999999999999998,0.4,2.4,10,9,9,9,9,9,,,,,,,,,,,,,,,,,,,,,,,,,,0,8,8,8,,,,,,,,,,,,,,,,,,,,num_4,1.6453889000003983,num_4,0.5,0.6,0.55,0.9,21.01303,34.38495,return,6.903589500001544,,,,,,,,,,,,,,,,,715,23,male,left_right_width,2024-08-26_17h02.48.035,exp1,2023.1.0,59.839713343737365,
,,,,,,,,,,,,,,,,,,,,,,,,,,,,,,,,,,,,,,,,,,,,,,,,,,,,,,,,,,,,,,,,,,,,,,,,,,,c,93.68481780000366,,,,,,,,,,,,,,,715,23,male,left_right_width,2024-08-26_17h02.48.035,exp1,2023.1.0,59.839713343737365,
,,,,,,,,,,,,,,,,4,8.35,9.45,10.55,11.65,0,1.1,0.8500000000000001,0.25,3.5500000000000003,10,initial,36.05,301,341,380,420,0,9,9,9,9,0,,,,,,,0,0,0,0,0,0,0,19,,,,,,,,,,,,num_3,1.4264883000032569,num_3,0.3,0.8,0.25,0.75,9.55138,28.65413,return,3.240809099999751,,,,,,,,,,,,,,,,,715,23,male,left_right_width,2024-08-26_17h02.48.035,exp1,2023.1.0,59.839713343737365,
,,,,,,,,,,,,,,,,4,8.65,9.55,10.45,11.35,0,0.9,0.35,0.55,3.25,10,initial,36.05,312,344,377,409,0,9,9,9,9,0,,,,,,,0,0,0,0,0,1,1,28,,,,,,,,,,,,num_4,1.1686045000024023,num_4,0.35,0.5,0.35,0.6,13.37193,22.9233,return,1.4993094000019482,,,,,,,,,,,,,,,,,715,23,male,left_right_width,2024-08-26_17h02.48.035,exp1,2023.1.0,59.839713343737365,
,,,,,,,,,,,,,,,,4,8.9,9.633333333333333,10.366666666666667,11.1,0,0.7333333333333334,0.4833333333333334,0.25,2.45,10,match,36.05,321,347,374,400,0,9,9,9,9,0,,,,,,,0,0,0,0,0,2,2,3,,,,,,,,,,,,num_4,2.0489138000011735,num_4,0.55,0.9,0.35000000000000003,0.8,13.37193,30.5644,return,3.9186096000048565,,,,,,,,,,,,,,,,,715,23,male,left_right_width,2024-08-26_17h02.48.035,exp1,2023.1.0,59.839713343737365,
,,,,,,,,,,,,,,,,4,8.65,9.55,10.45,11.35,0,0.9,0.5,0.4,3.1,10,initial,36.05,312,344,377,409,0,9,9,9,9,0,,,,,,,0,0,0,0,0,3,3,32,,,,,,,,,,,,num_4,1.8105501000027289,num_4,0.5,0.9,0.45,0.9,17.19248,34.38495,return,4.182024199999432,,,,,,,,,,,,,,,,,715,23,male,left_right_width,2024-08-26_17h02.48.035,exp1,2023.1.0,59.839713343737365,
,,,,,,,,,,,,,,,,4,8.95,9.65,10.35,11.05,0,0.7,0.29999999999999993,0.4,2.5,10,initial,36.05,323,348,373,398,0,9,9,9,9,0,,,,,,,0,0,0,0,0,4,4,26,,,,,,,,,,,,num_3,1.0456747000025644,num_3,0.2,1.1,0.5499999999999999,0.95,21.01303,36.29523,return,3.8827393999999913,,,,,,,,,,,,,,,,,715,23,male,left_right_width,2024-08-26_17h02.48.035,exp1,2023.1.0,59.839713343737365,
,,,,,,,,,,,,,,,,3,9.3,10,10.7,0,0,0.7,0.44999999999999996,0.25,1.65,10,initial,36.05,335,361,386,0,0,9,9,9,0,0,,,,,,,0,0,0,0,0,5,5,7,,,,,,,,,,,,num_3,1.2515840999985812,num_3,0.25,0.9,0.44999999999999996,0.95,17.19248,36.29523,return,2.414832100002968,,,,,,,,,,,,,,,,,715,23,male,left_right_width,2024-08-26_17h02.48.035,exp1,2023.1.0,59.839713343737365,
,,,,,,,,,,,,,,,,5,8.2,9.1,10,10.9,11.8,0.9,0.35,0.55,4.15,10,initial,36.05,296,328,361,393,425,9,9,9,9,9,,,,,,,0,0,0,0,0,6,6,46,,,,,,,,,,,,num_3,1.0482859000003373,num_3,0.55,1.3,0.45,0.9,17.19248,34.38495,return,7.716478800000914,,,,,,,,,,,,,,,,,715,23,male,left_right_width,2024-08-26_17h02.48.035,exp1,2023.1.0,59.839713343737365,
,,,,,,,,,,,,,,,,3,8.2,10,11.8,0,0,1.7999999999999998,1.4,0.4,4,10,match,36.05,296,361,425,0,0,9,9,9,0,0,,,,,,,0,0,0,0,0,7,7,51,,,,,,,,,,,,num_3,0.9181166000016674,num_3,0.25,0.5,0.49999999999999994,1.1,19.10275,42.02605,return,5.1278856999997515,,,,,,,,,,,,,,,,,715,23,male,left_right_width,2024-08-26_17h02.48.035,exp1,2023.1.0,59.839713343737365,
,,,,,,,,,,,,,,,,3,9.1,10,10.9,0,0,0.9,0.65,0.25,2.05,10,initial,36.05,328,361,393,0,0,9,9,9,0,0,,,,,,,0,0,0,0,0,8,8,13,,,,,,,,,,,,num_3,0.9115839000005508,num_3,0.25,0.3,0.25,1.15,9.55138,43.93633,return,7.5390937000047415,,,,,,,,,,,,,,,,,715,23,male,left_right_width,2024-08-26_17h02.48.035,exp1,2023.1.0,59.839713343737365,
,,,,,,,,,,,,,,,,3,8.9,10,11.1,0,0,1.1,0.55,0.55,2.75,10,initial,36.05,321,361,400,0,0,9,9,9,0,0,,,,,,,0,0,0,0,0,9,9,0,,,,,,,,,,,,num_3,0.9434687000029953,num_3,0.4,0.9,0.4,1.1,15.2822,42.02605,return,1.7327732000048854,,,,,,,,,,,,,,,,,715,23,male,left_right_width,2024-08-26_17h02.48.035,exp1,2023.1.0,59.839713343737365,
,,,,,,,,,,,,,,,,5,8.65,9.325,10,10.675,11.35,0.675,0.275,0.4,3.1,10,match,36.05,312,336,361,385,409,9,9,9,9,9,,,,,,,0,0,0,0,0,10,10,33,,,,,,,,,,,,num_4,1.5162735000012617,num_4,0.45,0.5,0.4,0.9,15.2822,34.38495,return,2.4873350000016217,,,,,,,,,,,,,,,,,715,23,male,left_right_width,2024-08-26_17h02.48.035,exp1,2023.1.0,59.839713343737365,
,,,,,,,,,,,,,,,,5,8.95,9.475,10,10.525,11.05,0.525,0.125,0.4,2.5,10,match,36.05,323,342,361,379,398,9,9,9,9,9,,,,,,,0,0,0,0,0,11,11,27,,,,,,,,,,,,num_5,1.3010606999996526,num_5,0.3,0.7,0.35,0.65,13.37193,24.83358,return,2.7622541999990062,,,,,,,,,,,,,,,,,715,23,male,left_right_width,2024-08-26_17h02.48.035,exp1,2023.1.0,59.839713343737365,
,,,,,,,,,,,,,,,,4,9.3,9.766666666666667,10.233333333333333,10.7,0,0.4666666666666667,0.21666666666666665,0.25,1.65,10,match,36.05,335,352,369,386,0,9,9,9,9,0,,,,,,,0,0,0,0,0,12,12,8,,,,,,,,,,,,num_4,0.9380033000015828,num_4,0.35,0.4,0.3,0.7,11.46165,26.74385,return,2.5943368000007467,,,,,,,,,,,,,,,,,715,23,male,left_right_width,2024-08-26_17h02.48.035,exp1,2023.1.0,59.839713343737365,
,,,,,,,,,,,,,,,,5,8.6,9.3,10,10.7,11.4,0.7,0.44999999999999996,0.25,3.05,10,initial,36.05,310,335,361,386,411,9,9,9,9,9,,,,,,,0,0,0,0,0,13,13,42,,,,,,,,,,,,num_5,0.9966699000033259,num_5,0.5,1.0,0.30000000000000004,0.75,11.46165,28.65413,return,4.6647783000044,,,,,,,,,,,,,,,,,715,23,male,left_right_width,2024-08-26_17h02.48.035,exp1,2023.1.0,59.839713343737365,
,,,,,,,,,,,,,,,,4,9.1,9.7,10.3,10.9,0,0.5999999999999999,0.3499999999999999,0.25,2.05,10,match,36.05,328,350,371,393,0,9,9,9,9,0,,,,,,,0,0,0,0,0,14,14,14,,,,,,,,,,,,num_4,0.7662049000027764,num_4,0.25,0.9,0.3,0.6,11.46165,22.9233,return,5.022266700001637,,,,,,,,,,,,,,,,,715,23,male,left_right_width,2024-08-26_17h02.48.035,exp1,2023.1.0,59.839713343737365,
,,,,,,,,,,,,,,,,4,9.3,9.766666666666667,10.233333333333333,10.7,0,0.4666666666666667,0.06666666666666665,0.4,1.8,10,match,36.05,335,352,369,386,0,9,9,9,9,0,,,,,,,0,0,0,0,0,15,15,10,,,,,,,,,,,,num_5,1.0312483000016073,num_5,0.5,1.1,0.45,0.65,17.19248,24.83358,return,5.03016579999894,,,,,,,,,,,,,,,,,715,23,male,left_right_width,2024-08-26_17h02.48.035,exp1,2023.1.0,59.839713343737365,
,,,,,,,,,,,,,,,,4,8.65,9.55,10.45,11.35,0,0.9,0.65,0.25,2.95,10,initial,36.05,312,344,377,409,0,9,9,9,9,0,,,,,,,0,0,0,0,0,16,16,30,,,,,,,,,,,,num_4,0.7951180000018212,num_4,0.5,0.7,0.30000000000000004,1.3,11.46165,49.66716,return,3.161799900000915,,,,,,,,,,,,,,,,,715,23,male,left_right_width,2024-08-26_17h02.48.035,exp1,2023.1.0,59.839713343737365,
,,,,,,,,,,,,,,,,3,9.3,10,10.7,0,0,0.7,0.1499999999999999,0.55,1.95,10,initial,36.05,335,361,386,0,0,9,9,9,0,0,,,,,,,0,0,0,0,0,17,17,6,,,,,,,,,,,,num_3,1.0679553000009037,num_3,0.5,0.9,0.7000000000000002,1.15,26.74385,43.93633,return,3.1143058000016026,,,,,,,,,,,,,,,,,715,23,male,left_right_width,2024-08-26_17h02.48.035,exp1,2023.1.0,59.839713343737365,
,,,,,,,,,,,,,,,,3,8.9,10,11.1,0,0,1.1,0.7000000000000001,0.4,2.6000000000000005,10,initial,36.05,321,361,400,0,0,9,9,9,0,0,,,,,,,0,0,0,0,0,18,18,4,,,,,,,,,,,,num_3,0.826697200001945,num_3,0.5,1.2,0.7000000000000002,1.25,26.74385,47.75688,return,1.9414853000016592,,,,,,,,,,,,,,,,,715,23,male,left_right_width,2024-08-26_17h02.48.035,exp1,2023.1.0,59.839713343737365,
,,,,,,,,,,,,,,,,3,8.6,10,11.4,0,0,1.4,0.85,0.55,3.35,10,match,36.05,310,361,411,0,0,9,9,9,0,0,,,,,,,0,0,0,0,0,19,19,41,,,,,,,,,,,,num_3,0.8625902000021597,num_3,0.55,0.9,0.6500000000000001,1.15,24.83358,43.93633,return,2.3157249000032607,,,,,,,,,,,,,,,,,715,23,male,left_right_width,2024-08-26_17h02.48.035,exp1,2023.1.0,59.839713343737365,
,,,,,,,,,,,,,,,,3,8.2,10,11.8,0,0,1.8,1.55,0.25,3.85,10,match,36.05,296,361,425,0,0,9,9,9,0,0,,,,,,,0,0,0,0,0,20,20,49,,,,,,,,,,,,num_3,0.8797197000021697,num_3,0.25,0.3,0.15000000000000002,0.7,5.73083,26.74385,return,5.162173400000029,,,,,,,,,,,,,,,,,715,23,male,left_right_width,2024-08-26_17h02.48.035,exp1,2023.1.0,59.839713343737365,
,,,,,,,,,,,,,,,,4,8.9,9.633333333333333,10.366666666666667,11.1,0,0.7333333333333333,0.18333333333333326,0.55,2.75,10,match,36.05,321,347,374,400,0,9,9,9,9,0,,,,,,,0,0,0,0,0,21,21,1,,,,,,,,,,,,num_3,0.7726996000019426,num_3,0.4,1.3,0.55,1.0,21.01303,38.2055,return,6.448703599999135,,,,,,,,,,,,,,,,,715,23,male,left_right_width,2024-08-26_17h02.48.035,exp1,2023.1.0,59.839713343737365,
,,,,,,,,,,,,,,,,5,8.95,9.475,10,10.525,11.05,0.525,0.275,0.25,2.35,10,match,36.05,323,342,361,379,398,9,9,9,9,9,,,,,,,0,0,0,0,0,22,22,25,,,,,,,,,,,,num_4,1.0346521000028588,num_4,0.45,0.7,0.4,0.8,15.2822,30.5644,return,5.3092465000008815,,,,,,,,,,,,,,,,,715,23,male,left_right_width,2024-08-26_17h02.48.035,exp1,2023.1.0,59.839713343737365,
,,,,,,,,,,,,,,,,4,8.35,9.45,10.55,11.65,0,1.1,0.55,0.55,3.8500000000000005,10,initial,36.05,301,341,380,420,0,9,9,9,9,0,,,,,,,0,0,0,0,0,23,23,17,,,,,,,,,,,,num_3,0.9437196000035328,num_3,0.45,0.6,0.6000000000000001,1.1,22.9233,42.02605,return,2.824005500002386,,,,,,,,,,,,,,,,,715,23,male,left_right_width,2024-08-26_17h02.48.035,exp1,2023.1.0,59.839713343737365,
,,,,,,,,,,,,,,,,5,7.8,8.9,10,11.1,12.2,1.1,0.7000000000000001,0.4,4.800000000000001,10,initial,36.05,281,321,361,400,440,9,9,9,9,9,,,,,,,0,0,0,0,0,24,24,38,,,,,,,,,,,,num_4,0.9517601000006835,num_4,0.5,1.1,0.6000000000000001,0.9,22.9233,34.38495,return,2.4947294000012334,,,,,,,,,,,,,,,,,715,23,male,left_right_width,2024-08-26_17h02.48.035,exp1,2023.1.0,59.839713343737365,
,,,,,,,,,,,,,,,,3,8.6,10,11.4,0,0,1.4,1.15,0.25,3.05,10,match,36.05,310,361,411,0,0,9,9,9,0,0,,,,,,,0,0,0,0,0,25,25,43,,,,,,,,,,,,num_3,0.9767069000008632,num_3,0.3,0.9,0.2,1.2,7.6411,45.8466,return,4.898049499999615,,,,,,,,,,,,,,,,,715,23,male,left_right_width,2024-08-26_17h02.48.035,exp1,2023.1.0,59.839713343737365,
,,,,,,,,,,,,,,,,4,8.95,9.65,10.35,11.05,0,0.7,0.44999999999999996,0.25,2.3499999999999996,10,initial,36.05,323,348,373,398,0,9,9,9,9,0,,,,,,,0,0,0,0,0,26,26,24,,,,,,,,,,,,num_3,0.9659081000027072,num_3,0.3,0.4,0.2,0.55,7.6411,21.01303,return,3.787117700001545,,,,,,,,,,,,,,,,,715,23,male,left_right_width,2024-08-26_17h02.48.035,exp1,2023.1.0,59.839713343737365,
,,,,,,,,,,,,,,,,4,8.35,9.45,10.55,11.65,0,1.1,0.7000000000000001,0.4,3.7,10,initial,36.05,301,341,380,420,0,9,9,9,9,0,,,,,,,0,0,0,0,0,27,27,21,,,,,,,,,,,,num_3,0.9574381999991601,num_3,0.4,0.9,0.30000000000000004,0.85,11.46165,32.47468,return,4.021515700002055,,,,,,,,,,,,,,,,,715,23,male,left_right_width,2024-08-26_17h02.48.035,exp1,2023.1.0,59.839713343737365,
,,,,,,,,,,,,,,,,3,9.1,10,10.9,0,0,0.9,0.5,0.4,2.2,10,initial,36.05,328,361,393,0,0,9,9,9,0,0,,,,,,,0,0,0,0,0,28,28,15,,,,,,,,,,,,num_3,0.8601594000028854,num_3,0.5,1,0.30000000000000004,1.2,11.46165,45.8466,return,2.2116580000001704,,,,,,,,,,,,,,,,,715,23,male,left_right_width,2024-08-26_17h02.48.035,exp1,2023.1.0,59.839713343737365,
,,,,,,,,,,,,,,,,4,8.825,9.608333333333333,10.391666666666667,11.175,0,0.7833333333333333,0.5333333333333333,0.25,2.6,10,match,36.05,318,346,375,403,0,9,9,9,9,0,,,,,,,0,0,0,0,0,29,29,5,,,,,,,,,,,,num_3,0.8007771000047796,num_3,0.4,1,0.25000000000000006,0.75,9.55138,28.65413,return,3.3225327000036486,,,,,,,,,,,,,,,,,715,23,male,left_right_width,2024-08-26_17h02.48.035,exp1,2023.1.0,59.839713343737365,
,,,,,,,,,,,,,,,,5,8.65,9.325,10,10.675,11.35,0.675,0.125,0.55,3.25,10,match,36.05,312,336,361,385,409,9,9,9,9,9,,,,,,,0,0,0,0,0,30,30,29,,,,,,,,,,,,num_3,0.841035000004922,num_3,0.55,1.1,0.55,1.35,21.01303,51.57743,return,1.2656959000014467,,,,,,,,,,,,,,,,,715,23,male,left_right_width,2024-08-26_17h02.48.035,exp1,2023.1.0,59.839713343737365,
,,,,,,,,,,,,,,,,3,7.8,10,12.2,0,0,2.2,1.9500000000000002,0.25,4.65,10,match,36.05,281,361,440,0,0,9,9,9,0,0,,,,,,,0,0,0,0,0,31,31,37,,,,,,,,,,,,num_3,0.8262855000029958,num_3,0.2,1.2,0.2,1.65,7.6411,63.03908,return,2.296282899998914,,,,,,,,,,,,,,,,,715,23,male,left_right_width,2024-08-26_17h02.48.035,exp1,2023.1.0,59.839713343737365,
,,,,,,,,,,,,,,,,3,9.3,10,10.7,0,0,0.7,0.29999999999999993,0.4,1.8,10,initial,36.05,335,361,386,0,0,9,9,9,0,0,,,,,,,0,0,0,0,0,32,32,9,,,,,,,,,,,,num_3,0.8158428999995522,num_3,0.35,1,0.7500000000000001,0.95,28.65413,36.29523,return,3.610336699999607,,,,,,,,,,,,,,,,,715,23,male,left_right_width,2024-08-26_17h02.48.035,exp1,2023.1.0,59.839713343737365,
,,,,,,,,,,,,,,,,5,8.65,9.325,10,10.675,11.35,0.675,0.42500000000000004,0.25,2.95,10,match,36.05,312,336,361,385,409,9,9,9,9,9,,,,,,,0,0,0,0,0,33,33,31,,,,,,,,,,,,num_5,1.0826401000049373,num_5,0.2,0.7,0.2,0.9,7.6411,34.38495,return,1.2144499000023643,,,,,,,,,,,,,,,,,715,23,male,left_right_width,2024-08-26_17h02.48.035,exp1,2023.1.0,59.839713343737365,
,,,,,,,,,,,,,,,,5,8.275,9.1375,10,10.8625,11.725,0.8625,0.6125,0.25,3.7,10,match,36.05,298,329,361,392,423,9,9,9,9,9,,,,,,,0,0,0,0,0,34,34,22,,,,,,,,,,,,num_6,0.9190316999993229,num_6,0.45,1.3,0.05000000000000007,0.8,1.91028,30.5644,return,4.493446200001927,,,,,,,,,,,,,,,,,715,23,male,left_right_width,2024-08-26_17h02.48.035,exp1,2023.1.0,59.839713343737365,
,,,,,,,,,,,,,,,,5,8.6,9.3,10,10.7,11.4,0.7,0.29999999999999993,0.4,3.1999999999999997,10,initial,36.05,310,335,361,386,411,9,9,9,9,9,,,,,,,0,0,0,0,0,35,35,44,,,,,,,,,,,,num_4,0.8955061000015121,num_4,0.4,0.6,0.25000000000000006,0.9,9.55138,34.38495,return,3.091434999998455,,,,,,,,,,,,,,,,,715,23,male,left_right_width,2024-08-26_17h02.48.035,exp1,2023.1.0,59.839713343737365,
,,,,,,,,,,,,,,,,3,8.525,10,11.475,0,0,1.475,1.225,0.25,3.2,10,match,36.05,307,361,414,0,0,9,9,9,0,0,,,,,,,0,0,0,0,0,36,36,45,,,,,,,,,,,,num_3,1.2706300999998348,num_3,0.55,1.1,0.25000000000000006,1.25,9.55138,47.75688,return,3.0705017000036605,,,,,,,,,,,,,,,,,715,23,male,left_right_width,2024-08-26_17h02.48.035,exp1,2023.1.0,59.839713343737365,
,,,,,,,,,,,,,,,,5,7.8,8.9,10,11.1,12.2,1.1,0.55,0.55,4.95,10,initial,36.05,281,321,361,400,440,9,9,9,9,9,,,,,,,0,0,0,0,0,37,37,34,,,,,,,,,,,,num_4,1.0778527000002214,num_4,0.5,1.1,0.5,1.4,19.10275,53.48771,return,1.112560100002156,,,,,,,,,,,,,,,,,715,23,male,left_right_width,2024-08-26_17h02.48.035,exp1,2023.1.0,59.839713343737365,
,,,,,,,,,,,,,,,,5,8.2,9.1,10,10.9,11.8,0.9,0.65,0.25,3.85,10,initial,36.05,296,328,361,393,425,9,9,9,9,9,,,,,,,0,0,0,0,0,38,38,48,,,,,,,,,,,,num_4,0.8850747000033152,num_4,0.2,1.3,0.35,1.4,13.37193,53.48771,return,3.2325359000024037,,,,,,,,,,,,,,,,,715,23,male,left_right_width,2024-08-26_17h02.48.035,exp1,2023.1.0,59.839713343737365,
,,,,,,,,,,,,,,,,5,8.35,9.175,10,10.825,11.65,0.825,0.575,0.25,3.55,10,match,36.05,301,331,361,390,420,9,9,9,9,9,,,,,,,0,0,0,0,0,39,39,20,,,,,,,,,,,,num_5,0.8899622999997518,num_5,0.3,0.4,0.2,0.65,7.6411,24.83358,return,3.5369614000010188,,,,,,,,,,,,,,,,,715,23,male,left_right_width,2024-08-26_17h02.48.035,exp1,2023.1.0,59.839713343737365,
,,,,,,,,,,,,,,,,3,9.1,10,10.9,0,0,0.9,0.35,0.55,2.35,10,initial,36.05,328,361,393,0,0,9,9,9,0,0,,,,,,,0,0,0,0,0,40,40,11,,,,,,,,,,,,num_3,1.428852500001085,num_3,0.45,0.7,0.45,1.05,17.19248,40.11578,return,1.6259534000018903,,,,,,,,,,,,,,,,,715,23,male,left_right_width,2024-08-26_17h02.48.035,exp1,2023.1.0,59.839713343737365,
,,,,,,,,,,,,,,,,5,8.6,9.3,10,10.7,11.4,0.7,0.1499999999999999,0.55,3.3499999999999996,10,initial,36.05,310,335,361,386,411,9,9,9,9,9,,,,,,,0,0,0,0,0,41,41,40,,,,,,,,,,,,num_4,1.0201232000035816,num_4,0.3,1.3,0.8000000000000002,1.3,30.5644,49.66716,return,2.993089300001884,,,,,,,,,,,,,,,,,715,23,male,left_right_width,2024-08-26_17h02.48.035,exp1,2023.1.0,59.839713343737365,
,,,,,,,,,,,,,,,,4,9.1,9.7,10.3,10.9,0,0.6,0.04999999999999997,0.55,2.35,10,match,36.05,328,350,371,393,0,9,9,9,9,0,,,,,,,0,0,0,0,0,42,42,12,,,,,,,,,,,,num_3,1.1328906999988249,num_3,0.55,1.3,0.9000000000000004,1.1,34.38495,42.02605,return,4.7794847000004665,,,,,,,,,,,,,,,,,715,23,male,left_right_width,2024-08-26_17h02.48.035,exp1,2023.1.0,59.839713343737365,
,,,,,,,,,,,,,,,,3,7.8,10,12.2,0,0,2.2,1.65,0.55,4.95,10,match,36.05,281,361,440,0,0,9,9,9,0,0,,,,,,,0,0,0,0,0,43,43,35,,,,,,,,,,,,num_3,1.5597799999995914,num_3,0.2,1,0.9000000000000002,1.45,34.38495,55.39798,return,5.330209899999318,,,,,,,,,,,,,,,,,715,23,male,left_right_width,2024-08-26_17h02.48.035,exp1,2023.1.0,59.839713343737365,
,,,,,,,,,,,,,,,,4,8.95,9.65,10.35,11.05,0,0.7,0.1499999999999999,0.55,2.65,10,initial,36.05,323,348,373,398,0,9,9,9,9,0,,,,,,,0,0,0,0,0,44,44,23,,,,,,,,,,,,num_3,0.8488758000021335,num_3,0.4,0.8,0.9500000000000004,1.35,36.29523,51.57743,return,5.403484000002209,,,,,,,,,,,,,,,,,715,23,male,left_right_width,2024-08-26_17h02.48.035,exp1,2023.1.0,59.839713343737365,
,,,,,,,,,,,,,,,,4,9.1,9.7,10.3,10.9,0,0.6000000000000001,0.20000000000000004,0.4,2.2,10,match,36.05,328,350,371,393,0,9,9,9,9,0,,,,,,,0,0,0,0,0,45,45,16,,,,,,,,,,,,num_3,0.9492634000016551,num_3,0.3,0.9,0.5499999999999999,0.7,21.01303,26.74385,return,6.107195300002786,,,,,,,,,,,,,,,,,715,23,male,left_right_width,2024-08-26_17h02.48.035,exp1,2023.1.0,59.839713343737365,
,,,,,,,,,,,,,,,,3,8.2,10,11.8,0,0,1.8,1.25,0.55,4.15,10,match,36.05,296,361,425,0,0,9,9,9,0,0,,,,,,,0,0,0,0,0,46,46,47,,,,,,,,,,,,num_3,0.8778104000011808,num_3,0.4,0.9,0.35000000000000003,0.65,13.37193,24.83358,return,3.0990900000033434,,,,,,,,,,,,,,,,,715,23,male,left_right_width,2024-08-26_17h02.48.035,exp1,2023.1.0,59.839713343737365,
,,,,,,,,,,,,,,,,5,8.2,9.1,10,10.9,11.8,0.9,0.5,0.4,4,10,initial,36.05,296,328,361,393,425,9,9,9,9,9,,,,,,,0,0,0,0,0,47,47,50,,,,,,,,,,,,num_4,0.9292520000017248,num_4,0.35,1.2,0.44999999999999996,0.6,17.19248,22.9233,return,4.696325500000967,,,,,,,,,,,,,,,,,715,23,male,left_right_width,2024-08-26_17h02.48.035,exp1,2023.1.0,59.839713343737365,
,,,,,,,,,,,,,,,,5,7.8,8.9,10,11.1,12.2,1.1,0.8500000000000001,0.25,4.65,10,initial,36.05,281,321,361,400,440,9,9,9,9,9,,,,,,,0,0,0,0,0,48,48,36,,,,,,,,,,,,num_4,1.2446162000014738,num_4,0.3,0.6,0.15000000000000002,0.6,5.73083,22.9233,return,5.625823600003059,,,,,,,,,,,,,,,,,715,23,male,left_right_width,2024-08-26_17h02.48.035,exp1,2023.1.0,59.839713343737365,
,,,,,,,,,,,,,,,,3,8.9,10,11.1,0,0,1.1,0.8500000000000001,0.25,2.45,10,initial,36.05,321,361,400,0,0,9,9,9,0,0,,,,,,,0,0,0,0,0,49,49,2,,,,,,,,,,,,num_4,3.8040284999988216,num_4,0.25,0.8,0.35,0.5,13.37193,19.10275,return,3.52192130000185,,,,,,,,,,,,,,,,,715,23,male,left_right_width,2024-08-26_17h02.48.035,exp1,2023.1.0,59.839713343737365,
,,,,,,,,,,,,,,,,3,7.800000000000001,10,12.2,0,0,2.1999999999999997,1.7999999999999998,0.4,4.8,10,match,36.05,281,361,440,0,0,9,9,9,0,0,,,,,,,0,0,0,0,0,50,50,39,,,,,,,,,,,,num_3,0.7709880000038538,num_3,0.45,0.5,0.15000000000000008,1.1,5.73083,42.02605,return,5.164786700002878,,,,,,,,,,,,,,,,,715,23,male,left_right_width,2024-08-26_17h02.48.035,exp1,2023.1.0,59.839713343737365,
,,,,,,,,,,,,,,,,5,8.35,9.175,10,10.825,11.65,0.8250000000000001,0.275,0.55,3.85,10,match,36.05,301,331,361,390,420,9,9,9,9,9,,,,,,,0,0,0,0,0,51,51,18,,,,,,,,,,,,num_4,0.9343759000003047,num_4,0.45,0.8,0.4,0.9,15.2822,34.38495,return,3.0950706000003265,,,,,,,,,,,,,,,,,715,23,male,left_right_width,2024-08-26_17h02.48.035,exp1,2023.1.0,59.839713343737365,
,,,,,,,,,,,,,,,,,,,,,,,,,,,,,,,,,,,,,,,,,,,,,0,0,0,0,,,,,,,,,,,,,,,,,,,,,,,,,,,,,1091.0968949000016,1091.0968949000016,1091.0968949000016,,,,,,,,,,,,715,23,male,left_right_width,2024-08-26_17h02.48.035,exp1,2023.1.0,59.839713343737365,
,,,,,,,,,,,,,,,,4,8.9,9.633333333333333,10.366666666666667,11.1,0,0.7333333333333334,0.4833333333333334,0.25,2.45,10,match,36.05,321,347,374,400,0,9,9,9,9,0,,,,,,,1,0,1,0,0,0,0,3,,,,,,,,,,,,num_4,0.8973967000019911,num_4,0.25,0.5,0.2,0.6,7.6411,22.9233,return,1.9010135999997146,,,,,,,,,,,,,,,,,715,23,male,left_right_width,2024-08-26_17h02.48.035,exp1,2023.1.0,59.839713343737365,
,,,,,,,,,,,,,,,,3,8.2,10,11.8,0,0,1.8,1.25,0.55,4.15,10,match,36.05,296,361,425,0,0,9,9,9,0,0,,,,,,,1,0,1,0,0,1,1,47,,,,,,,,,,,,num_3,0.8178383000013127,num_3,0.3,1,0.39999999999999997,1.15,15.2822,43.93633,return,2.8259410000027856,,,,,,,,,,,,,,,,,715,23,male,left_right_width,2024-08-26_17h02.48.035,exp1,2023.1.0,59.839713343737365,
,,,,,,,,,,,,,,,,3,7.8,10,12.2,0,0,2.2,1.9500000000000002,0.25,4.65,10,match,36.05,281,361,440,0,0,9,9,9,0,0,,,,,,,1,0,1,0,0,2,2,37,,,,,,,,,,,,num_3,0.7852544999987003,num_3,0.4,0.7,0.20000000000000007,0.9,7.6411,34.38495,return,2.9770532000038656,,,,,,,,,,,,,,,,,715,23,male,left_right_width,2024-08-26_17h02.48.035,exp1,2023.1.0,59.839713343737365,
,,,,,,,,,,,,,,,,4,8.95,9.65,10.35,11.05,0,0.7,0.44999999999999996,0.25,2.3499999999999996,10,initial,36.05,323,348,373,398,0,9,9,9,9,0,,,,,,,1,0,1,0,0,3,3,24,,,,,,,,,,,,num_4,0.9767915999982506,num_4,0.45,0.7,0.20000000000000007,0.8,7.6411,30.5644,return,4.0373655000003055,,,,,,,,,,,,,,,,,715,23,male,left_right_width,2024-08-26_17h02.48.035,exp1,2023.1.0,59.839713343737365,
,,,,,,,,,,,,,,,,5,8.2,9.1,10,10.9,11.8,0.9,0.35,0.55,4.15,10,initial,36.05,296,328,361,393,425,9,9,9,9,9,,,,,,,1,0,1,0,0,4,4,46,,,,,,,,,,,,num_4,1.0552647000040452,num_4,0.2,0.3,0.39999999999999997,0.9,15.2822,34.38495,return,3.2778180000022985,,,,,,,,,,,,,,,,,715,23,male,left_right_width,2024-08-26_17h02.48.035,exp1,2023.1.0,59.839713343737365,
,,,,,,,,,,,,,,,,5,8.95,9.475,10,10.525,11.05,0.525,0.275,0.25,2.35,10,match,36.05,323,342,361,379,398,9,9,9,9,9,,,,,,,1,0,1,0,0,5,5,25,,,,,,,,,,,,num_4,0.7769648000030429,num_4,0.25,1.2,0.5499999999999999,0.9,21.01303,34.38495,return,4.664517500001239,,,,,,,,,,,,,,,,,715,23,male,left_right_width,2024-08-26_17h02.48.035,exp1,2023.1.0,59.839713343737365,
,,,,,,,,,,,,,,,,3,8.6,10,11.4,0,0,1.4,1.15,0.25,3.05,10,match,36.05,310,361,411,0,0,9,9,9,0,0,,,,,,,1,0,1,0,0,6,6,43,,,,,,,,,,,,num_3,0.8161506000033114,num_3,0.25,1.3,0.39999999999999997,0.55,15.2822,21.01303,return,6.413811900001747,,,,,,,,,,,,,,,,,715,23,male,left_right_width,2024-08-26_17h02.48.035,exp1,2023.1.0,59.839713343737365,
,,,,,,,,,,,,,,,,3,9.3,10,10.7,0,0,0.7,0.29999999999999993,0.4,1.8,10,initial,36.05,335,361,386,0,0,9,9,9,0,0,,,,,,,1,0,1,0,0,7,7,9,,,,,,,,,,,,num_3,0.7792162000005192,num_3,0.45,1.2,0.30000000000000004,0.55,11.46165,21.01303,return,3.495262600004935,,,,,,,,,,,,,,,,,715,23,male,left_right_width,2024-08-26_17h02.48.035,exp1,2023.1.0,59.839713343737365,
,,,,,,,,,,,,,,,,4,8.95,9.65,10.35,11.05,0,0.7,0.1499999999999999,0.55,2.65,10,initial,36.05,323,348,373,398,0,9,9,9,9,0,,,,,,,1,0,1,0,0,8,8,23,,,,,,,,,,,,num_3,0.959985699999379,num_3,0.3,0.9,0.44999999999999996,0.65,17.19248,24.83358,return,3.8158557000024302,,,,,,,,,,,,,,,,,715,23,male,left_right_width,2024-08-26_17h02.48.035,exp1,2023.1.0,59.839713343737365,
,,,,,,,,,,,,,,,,4,8.825,9.608333333333333,10.391666666666667,11.175,0,0.7833333333333333,0.5333333333333333,0.25,2.6,10,match,36.05,318,346,375,403,0,9,9,9,9,0,,,,,,,1,0,1,0,0,9,9,5,,,,,,,,,,,,num_4,0.9581316000039806,num_4,0.3,0.9,0.25,0.4,9.55138,15.2822,return,3.5705867000033322,,,,,,,,,,,,,,,,,715,23,male,left_right_width,2024-08-26_17h02.48.035,exp1,2023.1.0,59.839713343737365,
,,,,,,,,,,,,,,,,5,8.65,9.325,10,10.675,11.35,0.675,0.125,0.55,3.25,10,match,36.05,312,336,361,385,409,9,9,9,9,9,,,,,,,1,0,1,0,0,10,10,29,,,,,,,,,,,,num_5,0.8488851000038267,num_5,0.25,0.8,0.39999999999999997,0.5,15.2822,19.10275,return,4.457662100001471,,,,,,,,,,,,,,,,,715,23,male,left_right_width,2024-08-26_17h02.48.035,exp1,2023.1.0,59.839713343737365,
,,,,,,,,,,,,,,,,3,8.525,10,11.475,0,0,1.475,1.225,0.25,3.2,10,match,36.05,307,361,414,0,0,9,9,9,0,0,,,,,,,1,0,1,0,0,11,11,45,,,,,,,,,,,,num_3,0.968508900001325,num_3,0.5,1.1,0.30000000000000004,1.1,11.46165,42.02605,return,3.9637193999988085,,,,,,,,,,,,,,,,,715,23,male,left_right_width,2024-08-26_17h02.48.035,exp1,2023.1.0,59.839713343737365,
,,,,,,,,,,,,,,,,5,8.6,9.3,10,10.7,11.4,0.7,0.1499999999999999,0.55,3.3499999999999996,10,initial,36.05,310,335,361,386,411,9,9,9,9,9,,,,,,,1,0,1,0,0,12,12,40,,,,,,,,,,,,num_4,0.7776159000022744,num_4,0.2,1.3,0.44999999999999996,0.7,17.19248,26.74385,return,4.3440106000016385,,,,,,,,,,,,,,,,,715,23,male,left_right_width,2024-08-26_17h02.48.035,exp1,2023.1.0,59.839713343737365,
,,,,,,,,,,,,,,,,3,8.9,10,11.1,0,0,1.1,0.8500000000000001,0.25,2.45,10,initial,36.05,321,361,400,0,0,9,9,9,0,0,,,,,,,1,0,1,0,0,13,13,2,,,,,,,,,,,,num_3,0.7720622000015283,num_3,0.35,0.6,0.35,0.65,13.37193,24.83358,return,5.84016100000008,,,,,,,,,,,,,,,,,715,23,male,left_right_width,2024-08-26_17h02.48.035,exp1,2023.1.0,59.839713343737365,
,,,,,,,,,,,,,,,,3,8.2,10,11.8,0,0,1.8,1.55,0.25,3.85,10,match,36.05,296,361,425,0,0,9,9,9,0,0,,,,,,,1,0,1,0,0,14,14,49,,,,,,,,,,,,num_3,0.7635413999996672,num_3,0.2,1.2,0.3,0.95,11.46165,36.29523,return,3.2892350000001898,,,,,,,,,,,,,,,,,715,23,male,left_right_width,2024-08-26_17h02.48.035,exp1,2023.1.0,59.839713343737365,
,,,,,,,,,,,,,,,,4,8.35,9.45,10.55,11.65,0,1.1,0.8500000000000001,0.25,3.5500000000000003,10,initial,36.05,301,341,380,420,0,9,9,9,9,0,,,,,,,1,0,1,0,0,15,15,19,,,,,,,,,,,,num_4,2.399256000000605,num_4,0.55,0.7,0.30000000000000004,0.8,11.46165,30.5644,return,3.1285279000003356,,,,,,,,,,,,,,,,,715,23,male,left_right_width,2024-08-26_17h02.48.035,exp1,2023.1.0,59.839713343737365,
,,,,,,,,,,,,,,,,3,7.800000000000001,10,12.2,0,0,2.1999999999999997,1.7999999999999998,0.4,4.8,10,match,36.05,281,361,440,0,0,9,9,9,0,0,,,,,,,1,0,1,0,0,16,16,39,,,,,,,,,,,,num_3,0.7872458000019833,num_3,0.3,1.3,0.35,1.05,13.37193,40.11578,return,3.359284900001512,,,,,,,,,,,,,,,,,715,23,male,left_right_width,2024-08-26_17h02.48.035,exp1,2023.1.0,59.839713343737365,
,,,,,,,,,,,,,,,,5,8.35,9.175,10,10.825,11.65,0.825,0.575,0.25,3.55,10,match,36.05,301,331,361,390,420,9,9,9,9,9,,,,,,,1,0,1,0,0,17,17,20,,,,,,,,,,,,num_5,0.872850900002959,num_5,0.25,0.8,0.3,0.6,11.46165,22.9233,return,3.646316400001524,,,,,,,,,,,,,,,,,715,23,male,left_right_width,2024-08-26_17h02.48.035,exp1,2023.1.0,59.839713343737365,
,,,,,,,,,,,,,,,,4,8.65,9.55,10.45,11.35,0,0.9,0.35,0.55,3.25,10,initial,36.05,312,344,377,409,0,9,9,9,9,0,,,,,,,1,0,1,0,0,18,18,28,,,,,,,,,,,,num_3,1.339559799998824,num_3,0.5,0.8,0.4,0.75,15.2822,28.65413,return,4.014801000001171,,,,,,,,,,,,,,,,,715,23,male,left_right_width,2024-08-26_17h02.48.035,exp1,2023.1.0,59.839713343737365,
,,,,,,,,,,,,,,,,4,8.35,9.45,10.55,11.65,0,1.1,0.7000000000000001,0.4,3.7,10,initial,36.05,301,341,380,420,0,9,9,9,9,0,,,,,,,1,0,1,0,0,19,19,21,,,,,,,,,,,,num_3,1.4944941000030667,num_3,0.55,1,0.35000000000000003,0.6,13.37193,22.9233,return,2.949219099999027,,,,,,,,,,,,,,,,,715,23,male,left_right_width,2024-08-26_17h02.48.035,exp1,2023.1.0,59.839713343737365,
,,,,,,,,,,,,,,,,5,8.2,9.1,10,10.9,11.8,0.9,0.65,0.25,3.85,10,initial,36.05,296,328,361,393,425,9,9,9,9,9,,,,,,,1,0,1,0,0,20,20,48,,,,,,,,,,,,num_4,1.281579900001816,num_4,0.25,1.2,0.35,0.6,13.37193,22.9233,return,3.514128700000583,,,,,,,,,,,,,,,,,715,23,male,left_right_width,2024-08-26_17h02.48.035,exp1,2023.1.0,59.839713343737365,
,,,,,,,,,,,,,,,,3,8.6,10,11.4,0,0,1.4,0.85,0.55,3.35,10,match,36.05,310,361,411,0,0,9,9,9,0,0,,,,,,,1,0,1,0,0,21,21,41,,,,,,,,,,,,num_3,0.7286712000022817,num_3,0.5,1,0.35000000000000003,0.6,13.37193,22.9233,return,2.7862218000009307,,,,,,,,,,,,,,,,,715,23,male,left_right_width,2024-08-26_17h02.48.035,exp1,2023.1.0,59.839713343737365,
,,,,,,,,,,,,,,,,4,8.65,9.55,10.45,11.35,0,0.9,0.5,0.4,3.1,10,initial,36.05,312,344,377,409,0,9,9,9,9,0,,,,,,,1,0,1,0,0,22,22,32,,,,,,,,,,,,num_4,0.8195865000016056,num_4,0.25,0.8,0.35,0.5,13.37193,19.10275,return,2.049347200001648,,,,,,,,,,,,,,,,,715,23,male,left_right_width,2024-08-26_17h02.48.035,exp1,2023.1.0,59.839713343737365,
,,,,,,,,,,,,,,,,3,9.1,10,10.9,0,0,0.9,0.5,0.4,2.2,10,initial,36.05,328,361,393,0,0,9,9,9,0,0,,,,,,,1,0,1,0,0,23,23,15,,,,,,,,,,,,num_3,0.7767019999992044,num_3,0.2,0.6,0.35,0.55,13.37193,21.01303,return,1.586924100000033,,,,,,,,,,,,,,,,,715,23,male,left_right_width,2024-08-26_17h02.48.035,exp1,2023.1.0,59.839713343737365,
,,,,,,,,,,,,,,,,3,9.1,10,10.9,0,0,0.9,0.65,0.25,2.05,10,initial,36.05,328,361,393,0,0,9,9,9,0,0,,,,,,,1,0,1,0,0,24,24,13,,,,,,,,,,,,num_3,0.7425715999997919,num_3,0.25,0.8,0.3,0.65,11.46165,24.83358,return,1.5911580000029062,,,,,,,,,,,,,,,,,715,23,male,left_right_width,2024-08-26_17h02.48.035,exp1,2023.1.0,59.839713343737365,
,,,,,,,,,,,,,,,,5,8.6,9.3,10,10.7,11.4,0.7,0.44999999999999996,0.25,3.05,10,initial,36.05,310,335,361,386,411,9,9,9,9,9,,,,,,,1,0,1,0,0,25,25,42,,,,,,,,,,,,num_5,0.9016398000021582,num_5,0.35,0.9,0.25,0.55,9.55138,21.01303,return,2.799108500003058,,,,,,,,,,,,,,,,,715,23,male,left_right_width,2024-08-26_17h02.48.035,exp1,2023.1.0,59.839713343737365,
,,,,,,,,,,,,,,,,5,8.2,9.1,10,10.9,11.8,0.9,0.5,0.4,4,10,initial,36.05,296,328,361,393,425,9,9,9,9,9,,,,,,,1,0,1,0,0,26,26,50,,,,,,,,,,,,num_4,0.7234372000020812,num_4,0.35,1.1,0.3,0.6,11.46165,22.9233,return,2.724923600002512,,,,,,,,,,,,,,,,,715,23,male,left_right_width,2024-08-26_17h02.48.035,exp1,2023.1.0,59.839713343737365,
,,,,,,,,,,,,,,,,5,7.8,8.9,10,11.1,12.2,1.1,0.7000000000000001,0.4,4.800000000000001,10,initial,36.05,281,321,361,400,440,9,9,9,9,9,,,,,,,1,0,1,0,0,27,27,38,,,,,,,,,,,,num_4,0.7180189000027895,num_4,0.45,1.0,0.25000000000000006,0.5,9.55138,19.10275,return,2.0596509000024525,,,,,,,,,,,,,,,,,715,23,male,left_right_width,2024-08-26_17h02.48.035,exp1,2023.1.0,59.839713343737365,
,,,,,,,,,,,,,,,,3,9.1,10,10.9,0,0,0.9,0.35,0.55,2.35,10,initial,36.05,328,361,393,0,0,9,9,9,0,0,,,,,,,1,0,1,0,0,28,28,11,,,,,,,,,,,,num_3,0.8115487000031862,num_3,0.4,0.7,0.4,0.85,15.2822,32.47468,return,3.4990833000010753,,,,,,,,,,,,,,,,,715,23,male,left_right_width,2024-08-26_17h02.48.035,exp1,2023.1.0,59.839713343737365,
,,,,,,,,,,,,,,,,4,9.3,9.766666666666667,10.233333333333333,10.7,0,0.4666666666666667,0.06666666666666665,0.4,1.8,10,match,36.05,335,352,369,386,0,9,9,9,9,0,,,,,,,1,0,1,0,0,29,29,10,,,,,,,,,,,,num_3,0.9325390000012703,num_3,0.2,1.3,0.39999999999999997,0.75,15.2822,28.65413,return,5.787291200002073,,,,,,,,,,,,,,,,,715,23,male,left_right_width,2024-08-26_17h02.48.035,exp1,2023.1.0,59.839713343737365,
,,,,,,,,,,,,,,,,3,8.2,10,11.8,0,0,1.7999999999999998,1.4,0.4,4,10,match,36.05,296,361,425,0,0,9,9,9,0,0,,,,,,,1,0,1,0,0,30,30,51,,,,,,,,,,,,num_3,1.0080002000031527,num_3,0.4,0.6,0.25000000000000006,0.7,9.55138,26.74385,return,2.1961620000038238,,,,,,,,,,,,,,,,,715,23,male,left_right_width,2024-08-26_17h02.48.035,exp1,2023.1.0,59.839713343737365,
,,,,,,,,,,,,,,,,5,8.95,9.475,10,10.525,11.05,0.525,0.125,0.4,2.5,10,match,36.05,323,342,361,379,398,9,9,9,9,9,,,,,,,1,0,1,0,0,31,31,27,,,,,,,,,,,,num_4,0.8187279000048875,num_4,0.45,1.2,0.35000000000000003,0.6,13.37193,22.9233,return,2.138311499998963,,,,,,,,,,,,,,,,,715,23,male,left_right_width,2024-08-26_17h02.48.035,exp1,2023.1.0,59.839713343737365,
,,,,,,,,,,,,,,,,5,7.8,8.9,10,11.1,12.2,1.1,0.55,0.55,4.95,10,initial,36.05,281,321,361,400,440,9,9,9,9,9,,,,,,,1,0,1,0,0,32,32,34,,,,,,,,,,,,num_4,0.8659379000018816,num_4,0.45,1.0,0.35000000000000003,0.6,13.37193,22.9233,return,1.9461134000011953,,,,,,,,,,,,,,,,,715,23,male,left_right_width,2024-08-26_17h02.48.035,exp1,2023.1.0,59.839713343737365,
,,,,,,,,,,,,,,,,3,9.3,10,10.7,0,0,0.7,0.44999999999999996,0.25,1.65,10,initial,36.05,335,361,386,0,0,9,9,9,0,0,,,,,,,1,0,1,0,0,33,33,7,,,,,,,,,,,,num_3,0.9377530999990995,num_3,0.2,1.1,0.35,0.7,13.37193,26.74385,return,3.1462015000033716,,,,,,,,,,,,,,,,,715,23,male,left_right_width,2024-08-26_17h02.48.035,exp1,2023.1.0,59.839713343737365,
,,,,,,,,,,,,,,,,4,9.3,9.766666666666667,10.233333333333333,10.7,0,0.4666666666666667,0.21666666666666665,0.25,1.65,10,match,36.05,335,352,369,386,0,9,9,9,9,0,,,,,,,1,0,1,0,0,34,34,8,,,,,,,,,,,,num_3,2.0704783000001044,num_3,0.3,1,-0.39999999999999997,0.65,-15.2822,24.83358,return,7.585162400002446,,,,,,,,,,,,,,,,,715,23,male,left_right_width,2024-08-26_17h02.48.035,exp1,2023.1.0,59.839713343737365,
,,,,,,,,,,,,,,,,3,7.8,10,12.2,0,0,2.2,1.65,0.55,4.95,10,match,36.05,281,361,440,0,0,9,9,9,0,0,,,,,,,1,0,1,0,0,35,35,35,,,,,,,,,,,,num_3,0.7307495000022755,num_3,0.35,0.6,0.3,0.95,11.46165,36.29523,return,4.246724600001471,,,,,,,,,,,,,,,,,715,23,male,left_right_width,2024-08-26_17h02.48.035,exp1,2023.1.0,59.839713343737365,
,,,,,,,,,,,,,,,,3,8.9,10,11.1,0,0,1.1,0.55,0.55,2.75,10,initial,36.05,321,361,400,0,0,9,9,9,0,0,,,,,,,1,0,1,0,0,36,36,0,,,,,,,,,,,,num_3,0.8090001000018674,num_3,0.3,0.6,0.49999999999999994,1.05,19.10275,40.11578,return,2.7735253000028024,,,,,,,,,,,,,,,,,715,23,male,left_right_width,2024-08-26_17h02.48.035,exp1,2023.1.0,59.839713343737365,
,,,,,,,,,,,,,,,,3,9.3,10,10.7,0,0,0.7,0.1499999999999999,0.55,1.95,10,initial,36.05,335,361,386,0,0,9,9,9,0,0,,,,,,,1,0,1,0,0,37,37,6,,,,,,,,,,,,num_3,0.7995286000041233,num_3,0.45,1.1,0.8000000000000003,1.15,30.5644,43.93633,return,2.1043395999986387,,,,,,,,,,,,,,,,,715,23,male,left_right_width,2024-08-26_17h02.48.035,exp1,2023.1.0,59.839713343737365,
,,,,,,,,,,,,,,,,4,8.95,9.65,10.35,11.05,0,0.7,0.29999999999999993,0.4,2.5,10,initial,36.05,323,348,373,398,0,9,9,9,9,0,,,,,,,1,0,1,0,0,38,38,26,,,,,,,,,,,,num_3,0.6600426000004518,num_3,0.3,0.9,0.65,0.95,24.83358,36.29523,return,2.165243700001156,,,,,,,,,,,,,,,,,715,23,male,left_right_width,2024-08-26_17h02.48.035,exp1,2023.1.0,59.839713343737365,
,,,,,,,,,,,,,,,,5,8.65,9.325,10,10.675,11.35,0.675,0.275,0.4,3.1,10,match,36.05,312,336,361,385,409,9,9,9,9,9,,,,,,,1,0,1,0,0,39,39,33,,,,,,,,,,,,num_4,0.8697013999990304,num_4,0.55,1.3,0.6000000000000001,0.8,22.9233,30.5644,return,5.9659120000033,,,,,,,,,,,,,,,,,715,23,male,left_right_width,2024-08-26_17h02.48.035,exp1,2023.1.0,59.839713343737365,
,,,,,,,,,,,,,,,,4,8.35,9.45,10.55,11.65,0,1.1,0.55,0.55,3.8500000000000005,10,initial,36.05,301,341,380,420,0,9,9,9,9,0,,,,,,,1,0,1,0,0,40,40,17,,,,,,,,,,,,num_4,1.1992131000042718,num_4,0.25,1.0,0.49999999999999994,0.7,19.10275,26.74385,return,2.461158500002057,,,,,,,,,,,,,,,,,715,23,male,left_right_width,2024-08-26_17h02.48.035,exp1,2023.1.0,59.839713343737365,
,,,,,,,,,,,,,,,,5,7.8,8.9,10,11.1,12.2,1.1,0.8500000000000001,0.25,4.65,10,initial,36.05,281,321,361,400,440,9,9,9,9,9,,,,,,,1,0,1,0,0,41,41,36,,,,,,,,,,,,num_4,0.9959501000012096,num_4,0.45,1.2,0.25000000000000006,1.2,9.55138,45.8466,return,1.6394862000015564,,,,,,,,,,,,,,,,,715,23,male,left_right_width,2024-08-26_17h02.48.035,exp1,2023.1.0,59.839713343737365,
,,,,,,,,,,,,,,,,5,8.6,9.3,10,10.7,11.4,0.7,0.29999999999999993,0.4,3.1999999999999997,10,initial,36.05,310,335,361,386,411,9,9,9,9,9,,,,,,,1,0,1,0,0,42,42,44,,,,,,,,,,,,num_4,0.7052576000023691,num_4,0.2,0.8,0.35,0.8,13.37193,30.5644,return,2.082904700004292,,,,,,,,,,,,,,,,,715,23,male,left_right_width,2024-08-26_17h02.48.035,exp1,2023.1.0,59.839713343737365,
,,,,,,,,,,,,,,,,4,9.1,9.7,10.3,10.9,0,0.6,0.04999999999999997,0.55,2.35,10,match,36.05,328,350,371,393,0,9,9,9,9,0,,,,,,,1,0,1,0,0,43,43,12,,,,,,,,,,,,num_4,0.8658919000008609,num_4,0.25,1.1,0.7000000000000001,0.8,26.74385,30.5644,return,4.749300400002539,,,,,,,,,,,,,,,,,715,23,male,left_right_width,2024-08-26_17h02.48.035,exp1,2023.1.0,59.839713343737365,
,,,,,,,,,,,,,,,,4,9.1,9.7,10.3,10.9,0,0.5999999999999999,0.3499999999999999,0.25,2.05,10,match,36.05,328,350,371,393,0,9,9,9,9,0,,,,,,,1,0,1,0,0,44,44,14,,,,,,,,,,,,num_4,0.8740348999999696,num_4,0.4,1.0,0.25000000000000006,0.8,9.55138,30.5644,return,2.845502899999701,,,,,,,,,,,,,,,,,715,23,male,left_right_width,2024-08-26_17h02.48.035,exp1,2023.1.0,59.839713343737365,
,,,,,,,,,,,,,,,,4,9.1,9.7,10.3,10.9,0,0.6000000000000001,0.20000000000000004,0.4,2.2,10,match,36.05,328,350,371,393,0,9,9,9,9,0,,,,,,,1,0,1,0,0,45,45,16,,,,,,,,,,,,num_4,0.9651737000021967,num_4,0.3,0.9,0.35,0.8,13.37193,30.5644,return,1.8684160000011616,,,,,,,,,,,,,,,,,715,23,male,left_right_width,2024-08-26_17h02.48.035,exp1,2023.1.0,59.839713343737365,
,,,,,,,,,,,,,,,,3,8.9,10,11.1,0,0,1.1,0.7000000000000001,0.4,2.6000000000000005,10,initial,36.05,321,361,400,0,0,9,9,9,0,0,,,,,,,1,0,1,0,0,46,46,4,,,,,,,,,,,,num_3,0.9279550000028394,num_3,0.4,0.6,0.25000000000000006,0.7,9.55138,26.74385,return,2.9009450000012293,,,,,,,,,,,,,,,,,715,23,male,left_right_width,2024-08-26_17h02.48.035,exp1,2023.1.0,59.839713343737365,
,,,,,,,,,,,,,,,,5,8.35,9.175,10,10.825,11.65,0.8250000000000001,0.275,0.55,3.85,10,match,36.05,301,331,361,390,420,9,9,9,9,9,,,,,,,1,0,1,0,0,47,47,18,,,,,,,,,,,,num_4,0.7676510000019334,num_4,0.2,1.0,0.44999999999999996,0.7,17.19248,26.74385,return,2.751083600000129,,,,,,,,,,,,,,,,,715,23,male,left_right_width,2024-08-26_17h02.48.035,exp1,2023.1.0,59.839713343737365,
,,,,,,,,,,,,,,,,4,8.65,9.55,10.45,11.35,0,0.9,0.65,0.25,2.95,10,initial,36.05,312,344,377,409,0,9,9,9,9,0,,,,,,,1,0,1,0,0,48,48,30,,,,,,,,,,,,num_4,0.7121422000018356,num_4,0.3,1.3,0.25,0.8,9.55138,30.5644,return,2.5190363000001526,,,,,,,,,,,,,,,,,715,23,male,left_right_width,2024-08-26_17h02.48.035,exp1,2023.1.0,59.839713343737365,
,,,,,,,,,,,,,,,,5,8.65,9.325,10,10.675,11.35,0.675,0.42500000000000004,0.25,2.95,10,match,36.05,312,336,361,385,409,9,9,9,9,9,,,,,,,1,0,1,0,0,49,49,31,,,,,,,,,,,,num_5,0.8132429000033881,num_5,0.35,1.2,0.2,0.75,7.6411,28.65413,return,2.501643300001888,,,,,,,,,,,,,,,,,715,23,male,left_right_width,2024-08-26_17h02.48.035,exp1,2023.1.0,59.839713343737365,
,,,,,,,,,,,,,,,,5,8.275,9.1375,10,10.8625,11.725,0.8625,0.6125,0.25,3.7,10,match,36.05,298,329,361,392,423,9,9,9,9,9,,,,,,,1,0,1,0,0,50,50,22,,,,,,,,,,,,num_5,0.9278392000014719,num_5,0.45,1.1,0.25000000000000006,0.8,9.55138,30.5644,return,2.1952121000031184,,,,,,,,,,,,,,,,,715,23,male,left_right_width,2024-08-26_17h02.48.035,exp1,2023.1.0,59.839713343737365,
,,,,,,,,,,,,,,,,4,8.9,9.633333333333333,10.366666666666667,11.1,0,0.7333333333333333,0.18333333333333326,0.55,2.75,10,match,36.05,321,347,374,400,0,9,9,9,9,0,,,,,,,1,0,1,0,0,51,51,1,,,,,,,,,,,,num_4,0.7737700000034238,num_4,0.5,1.1,0.4,0.8,15.2822,30.5644,return,2.3695112000023073,,,,,,,,,,,,,,,,,715,23,male,left_right_width,2024-08-26_17h02.48.035,exp1,2023.1.0,59.839713343737365,
,,,,,,,,,,,,,,,,,,,,,,,,,,,,,,,,,,,,,,,,,,,,,1,0,1,0,,,,,,,,,,,,,,,,,,,,,,,,,,,,,1401.0136749999983,1401.0136749999983,1401.0136749999983,,,,,,,,,,,,715,23,male,left_right_width,2024-08-26_17h02.48.035,exp1,2023.1.0,59.839713343737365,
,,,,,,,,,,,,,,,,4,9.1,9.7,10.3,10.9,0,0.6000000000000001,0.20000000000000004,0.4,2.2,10,match,36.05,328,350,371,393,0,9,9,9,9,0,,,,,,,2,0,2,0,0,0,0,16,,,,,,,,,,,,num_4,0.8208286000044609,num_4,0.25,0.8,0.3,0.5,11.46165,19.10275,return,3.4245926000039617,,,,,,,,,,,,,,,,,715,23,male,left_right_width,2024-08-26_17h02.48.035,exp1,2023.1.0,59.839713343737365,
,,,,,,,,,,,,,,,,5,8.65,9.325,10,10.675,11.35,0.675,0.42500000000000004,0.25,2.95,10,match,36.05,312,336,361,385,409,9,9,9,9,9,,,,,,,2,0,2,0,0,1,1,31,,,,,,,,,,,,num_6,0.922806300004595,num_6,0.45,0.6,0.30000000000000004,0.4,11.46165,15.2822,return,1.8063428999994358,,,,,,,,,,,,,,,,,715,23,male,left_right_width,2024-08-26_17h02.48.035,exp1,2023.1.0,59.839713343737365,
,,,,,,,,,,,,,,,,3,7.8,10,12.2,0,0,2.2,1.9500000000000002,0.25,4.65,10,match,36.05,281,361,440,0,0,9,9,9,0,0,,,,,,,2,0,2,0,0,2,2,37,,,,,,,,,,,,num_3,0.8142065000029106,num_3,0.2,0.5,0.3,1.2,11.46165,45.8466,return,7.479365200000757,,,,,,,,,,,,,,,,,715,23,male,left_right_width,2024-08-26_17h02.48.035,exp1,2023.1.0,59.839713343737365,
,,,,,,,,,,,,,,,,3,8.6,10,11.4,0,0,1.4,0.85,0.55,3.35,10,match,36.05,310,361,411,0,0,9,9,9,0,0,,,,,,,2,0,2,0,0,3,3,41,,,,,,,,,,,,num_3,0.8515545000045677,num_3,0.2,0.5,0.35,0.8,13.37193,30.5644,return,2.3472049000010884,,,,,,,,,,,,,,,,,715,23,male,left_right_width,2024-08-26_17h02.48.035,exp1,2023.1.0,59.839713343737365,
,,,,,,,,,,,,,,,,5,8.6,9.3,10,10.7,11.4,0.7,0.1499999999999999,0.55,3.3499999999999996,10,initial,36.05,310,335,361,386,411,9,9,9,9,9,,,,,,,2,0,2,0,0,4,4,40,,,,,,,,,,,,num_5,0.8861682999995537,num_5,0.55,1.0,0.45,0.75,17.19248,28.65413,return,2.2248851000040304,,,,,,,,,,,,,,,,,715,23,male,left_right_width,2024-08-26_17h02.48.035,exp1,2023.1.0,59.839713343737365,
,,,,,,,,,,,,,,,,5,8.65,9.325,10,10.675,11.35,0.675,0.275,0.4,3.1,10,match,36.05,312,336,361,385,409,9,9,9,9,9,,,,,,,2,0,2,0,0,5,5,33,,,,,,,,,,,,num_4,0.901785000001837,num_4,0.2,0.6,0.35,0.6,13.37193,22.9233,return,2.7845288000025903,,,,,,,,,,,,,,,,,715,23,male,left_right_width,2024-08-26_17h02.48.035,exp1,2023.1.0,59.839713343737365,
,,,,,,,,,,,,,,,,5,8.95,9.475,10,10.525,11.05,0.525,0.275,0.25,2.35,10,match,36.05,323,342,361,379,398,9,9,9,9,9,,,,,,,2,0,2,0,0,6,6,25,,,,,,,,,,,,num_4,0.7880097000015667,num_4,0.25,0.8,0.3,0.5,11.46165,19.10275,return,2.5905571000002965,,,,,,,,,,,,,,,,,715,23,male,left_right_width,2024-08-26_17h02.48.035,exp1,2023.1.0,59.839713343737365,
,,,,,,,,,,,,,,,,3,9.3,10,10.7,0,0,0.7,0.44999999999999996,0.25,1.65,10,initial,36.05,335,361,386,0,0,9,9,9,0,0,,,,,,,2,0,2,0,0,7,7,7,,,,,,,,,,,,num_3,0.7700182000007771,num_3,0.25,1.2,0.35,0.8,13.37193,30.5644,return,2.3382009000015387,,,,,,,,,,,,,,,,,715,23,male,left_right_width,2024-08-26_17h02.48.035,exp1,2023.1.0,59.839713343737365,
,,,,,,,,,,,,,,,,3,8.6,10,11.4,0,0,1.4,1.15,0.25,3.05,10,match,36.05,310,361,411,0,0,9,9,9,0,0,,,,,,,2,0,2,0,0,8,8,43,,,,,,,,,,,,num_3,0.8050346999989415,num_3,0.2,0.5,0.3,0.75,11.46165,28.65413,return,2.2243836000016017,,,,,,,,,,,,,,,,,715,23,male,left_right_width,2024-08-26_17h02.48.035,exp1,2023.1.0,59.839713343737365,
,,,,,,,,,,,,,,,,4,8.35,9.45,10.55,11.65,0,1.1,0.8500000000000001,0.25,3.5500000000000003,10,initial,36.05,301,341,380,420,0,9,9,9,9,0,,,,,,,2,0,2,0,0,9,9,19,,,,,,,,,,,,num_3,0.7168654000015522,num_3,0.35,1,0.25,1.1,9.55138,42.02605,return,2.2519634000018414,,,,,,,,,,,,,,,,,715,23,male,left_right_width,2024-08-26_17h02.48.035,exp1,2023.1.0,59.839713343737365,
,,,,,,,,,,,,,,,,3,7.800000000000001,10,12.2,0,0,2.1999999999999997,1.7999999999999998,0.4,4.8,10,match,36.05,281,361,440,0,0,9,9,9,0,0,,,,,,,2,0,2,0,0,10,10,39,,,,,,,,,,,,num_3,0.6265956999995979,num_3,0.45,0.9,0.35000000000000003,1.0,13.37193,38.2055,return,3.2556769000002532,,,,,,,,,,,,,,,,,715,23,male,left_right_width,2024-08-26_17h02.48.035,exp1,2023.1.0,59.839713343737365,
,,,,,,,,,,,,,,,,5,8.6,9.3,10,10.7,11.4,0.7,0.29999999999999993,0.4,3.1999999999999997,10,initial,36.05,310,335,361,386,411,9,9,9,9,9,,,,,,,2,0,2,0,0,11,11,44,,,,,,,,,,,,num_4,0.9900005999988934,num_4,0.3,0.9,0.35,0.6,13.37193,22.9233,return,2.2940157000011823,,,,,,,,,,,,,,,,,715,23,male,left_right_width,2024-08-26_17h02.48.035,exp1,2023.1.0,59.839713343737365,
,,,,,,,,,,,,,,,,3,9.1,10,10.9,0,0,0.9,0.65,0.25,2.05,10,initial,36.05,328,361,393,0,0,9,9,9,0,0,,,,,,,2,0,2,0,0,12,12,13,,,,,,,,,,,,num_3,0.7435440000008384,num_3,0.25,1.3,0.35,0.8,13.37193,30.5644,return,3.2356834999991406,,,,,,,,,,,,,,,,,715,23,male,left_right_width,2024-08-26_17h02.48.035,exp1,2023.1.0,59.839713343737365,
,,,,,,,,,,,,,,,,5,8.2,9.1,10,10.9,11.8,0.9,0.35,0.55,4.15,10,initial,36.05,296,328,361,393,425,9,9,9,9,9,,,,,,,2,0,2,0,0,13,13,46,,,,,,,,,,,,num_5,1.5206402000003436,num_5,0.45,0.7,0.4,0.6,15.2822,22.9233,return,2.062576700001955,,,,,,,,,,,,,,,,,715,23,male,left_right_width,2024-08-26_17h02.48.035,exp1,2023.1.0,59.839713343737365,
,,,,,,,,,,,,,,,,5,8.6,9.3,10,10.7,11.4,0.7,0.44999999999999996,0.25,3.05,10,initial,36.05,310,335,361,386,411,9,9,9,9,9,,,,,,,2,0,2,0,0,14,14,42,,,,,,,,,,,,num_4,0.9509966000005079,num_4,0.25,0.6,0.35,0.7,13.37193,26.74385,return,1.960732999999891,,,,,,,,,,,,,,,,,715,23,male,left_right_width,2024-08-26_17h02.48.035,exp1,2023.1.0,59.839713343737365,
,,,,,,,,,,,,,,,,5,7.8,8.9,10,11.1,12.2,1.1,0.7000000000000001,0.4,4.800000000000001,10,initial,36.05,281,321,361,400,440,9,9,9,9,9,,,,,,,2,0,2,0,0,15,15,38,,,,,,,,,,,,num_5,0.9541729999982635,num_5,0.45,0.9,0.4,0.7,15.2822,26.74385,return,3.342148100000486,,,,,,,,,,,,,,,,,715,23,male,left_right_width,2024-08-26_17h02.48.035,exp1,2023.1.0,59.839713343737365,
,,,,,,,,,,,,,,,,5,8.2,9.1,10,10.9,11.8,0.9,0.65,0.25,3.85,10,initial,36.05,296,328,361,393,425,9,9,9,9,9,,,,,,,2,0,2,0,0,16,16,48,,,,,,,,,,,,num_4,0.7240536000026623,num_4,0.5,1.0,0.4,0.7,15.2822,26.74385,return,1.5049456000015198,,,,,,,,,,,,,,,,,715,23,male,left_right_width,2024-08-26_17h02.48.035,exp1,2023.1.0,59.839713343737365,
,,,,,,,,,,,,,,,,5,8.2,9.1,10,10.9,11.8,0.9,0.5,0.4,4,10,initial,36.05,296,328,361,393,425,9,9,9,9,9,,,,,,,2,0,2,0,0,17,17,50,,,,,,,,,,,,num_4,0.7466175000008661,num_4,0.4,1.1,0.4,0.8,15.2822,30.5644,return,2.5076728999993065,,,,,,,,,,,,,,,,,715,23,male,left_right_width,2024-08-26_17h02.48.035,exp1,2023.1.0,59.839713343737365,
,,,,,,,,,,,,,,,,5,7.8,8.9,10,11.1,12.2,1.1,0.8500000000000001,0.25,4.65,10,initial,36.05,281,321,361,400,440,9,9,9,9,9,,,,,,,2,0,2,0,0,18,18,36,,,,,,,,,,,,num_4,0.7770278000025428,num_4,0.2,1.3,0.25,0.7,9.55138,26.74385,return,2.5358463000011398,,,,,,,,,,,,,,,,,715,23,male,left_right_width,2024-08-26_17h02.48.035,exp1,2023.1.0,59.839713343737365,
,,,,,,,,,,,,,,,,3,8.9,10,11.1,0,0,1.1,0.8500000000000001,0.25,2.45,10,initial,36.05,321,361,400,0,0,9,9,9,0,0,,,,,,,2,0,2,0,0,19,19,2,,,,,,,,,,,,num_3,1.0852076000046509,num_3,0.3,0.4,0.2,0.65,7.6411,24.83358,return,2.3515688000043156,,,,,,,,,,,,,,,,,715,23,male,left_right_width,2024-08-26_17h02.48.035,exp1,2023.1.0,59.839713343737365,
,,,,,,,,,,,,,,,,5,7.8,8.9,10,11.1,12.2,1.1,0.55,0.55,4.95,10,initial,36.05,281,321,361,400,440,9,9,9,9,9,,,,,,,2,0,2,0,0,20,20,34,,,,,,,,,,,,num_5,0.8824954000010621,num_5,0.3,1.1,0.39999999999999997,0.8,15.2822,30.5644,return,2.6174212000005355,,,,,,,,,,,,,,,,,715,23,male,left_right_width,2024-08-26_17h02.48.035,exp1,2023.1.0,59.839713343737365,
,,,,,,,,,,,,,,,,3,8.2,10,11.8,0,0,1.8,1.25,0.55,4.15,10,match,36.05,296,361,425,0,0,9,9,9,0,0,,,,,,,2,0,2,0,0,21,21,47,,,,,,,,,,,,num_3,0.8554513000017323,num_3,0.5,0.6,0.35000000000000003,0.75,13.37193,28.65413,return,2.8528148000004876,,,,,,,,,,,,,,,,,715,23,male,left_right_width,2024-08-26_17h02.48.035,exp1,2023.1.0,59.839713343737365,
,,,,,,,,,,,,,,,,4,8.35,9.45,10.55,11.65,0,1.1,0.7000000000000001,0.4,3.7,10,initial,36.05,301,341,380,420,0,9,9,9,9,0,,,,,,,2,0,2,0,0,22,22,21,,,,,,,,,,,,num_4,0.9077104999996664,num_4,0.55,0.9,0.45,0.7,17.19248,26.74385,return,1.7659941000019899,,,,,,,,,,,,,,,,,715,23,male,left_right_width,2024-08-26_17h02.48.035,exp1,2023.1.0,59.839713343737365,
,,,,,,,,,,,,,,,,4,9.3,9.766666666666667,10.233333333333333,10.7,0,0.4666666666666667,0.06666666666666665,0.4,1.8,10,match,36.05,335,352,369,386,0,9,9,9,9,0,,,,,,,2,0,2,0,0,23,23,10,,,,,,,,,,,,num_4,1.0199905000044964,num_4,0.45,1.0,0.5,0.6,19.10275,22.9233,return,2.0181960000008985,,,,,,,,,,,,,,,,,715,23,male,left_right_width,2024-08-26_17h02.48.035,exp1,2023.1.0,59.839713343737365,
,,,,,,,,,,,,,,,,4,8.9,9.633333333333333,10.366666666666667,11.1,0,0.7333333333333334,0.4833333333333334,0.25,2.45,10,match,36.05,321,347,374,400,0,9,9,9,9,0,,,,,,,2,0,2,0,0,24,24,3,,,,,,,,,,,,num_4,0.7315850000013597,num_4,0.25,1.3,0.25,0.7,9.55138,26.74385,return,2.089765200002148,,,,,,,,,,,,,,,,,715,23,male,left_right_width,2024-08-26_17h02.48.035,exp1,2023.1.0,59.839713343737365,
,,,,,,,,,,,,,,,,3,9.1,10,10.9,0,0,0.9,0.35,0.55,2.35,10,initial,36.05,328,361,393,0,0,9,9,9,0,0,,,,,,,2,0,2,0,0,25,25,11,,,,,,,,,,,,num_3,0.8593293000012636,num_3,0.4,1.1,0.4,0.5,15.2822,19.10275,return,5.215582200002245,,,,,,,,,,,,,,,,,715,23,male,left_right_width,2024-08-26_17h02.48.035,exp1,2023.1.0,59.839713343737365,
,,,,,,,,,,,,,,,,4,8.95,9.65,10.35,11.05,0,0.7,0.1499999999999999,0.55,2.65,10,initial,36.05,323,348,373,398,0,9,9,9,9,0,,,,,,,2,0,2,0,0,26,26,23,,,,,,,,,,,,num_3,0.9441464000010455,num_3,0.55,0.8,0.35000000000000003,0.55,13.37193,21.01303,return,2.1044711000031384,,,,,,,,,,,,,,,,,715,23,male,left_right_width,2024-08-26_17h02.48.035,exp1,2023.1.0,59.839713343737365,
,,,,,,,,,,,,,,,,4,8.65,9.55,10.45,11.35,0,0.9,0.65,0.25,2.95,10,initial,36.05,312,344,377,409,0,9,9,9,9,0,,,,,,,2,0,2,0,0,27,27,30,,,,,,,,,,,,num_3,1.1735044000015478,num_3,0.55,0.7,0.20000000000000007,0.9,7.6411,34.38495,return,2.737482299999101,,,,,,,,,,,,,,,,,715,23,male,left_right_width,2024-08-26_17h02.48.035,exp1,2023.1.0,59.839713343737365,
,,,,,,,,,,,,,,,,3,8.2,10,11.8,0,0,1.7999999999999998,1.4,0.4,4,10,match,36.05,296,361,425,0,0,9,9,9,0,0,,,,,,,2,0,2,0,0,28,28,51,,,,,,,,,,,,num_3,0.8039997000014409,num_3,0.25,0.5,0.35,0.65,13.37193,24.83358,return,2.751385300001857,,,,,,,,,,,,,,,,,715,23,male,left_right_width,2024-08-26_17h02.48.035,exp1,2023.1.0,59.839713343737365,
,,,,,,,,,,,,,,,,5,8.275,9.1375,10,10.8625,11.725,0.8625,0.6125,0.25,3.7,10,match,36.05,298,329,361,392,423,9,9,9,9,9,,,,,,,2,0,2,0,0,29,29,22,,,,,,,,,,,,num_4,1.0060531000017363,num_4,0.3,0.9,0.3,0.7,11.46165,26.74385,return,2.672118300004513,,,,,,,,,,,,,,,,,715,23,male,left_right_width,2024-08-26_17h02.48.035,exp1,2023.1.0,59.839713343737365,
,,,,,,,,,,,,,,,,4,8.65,9.55,10.45,11.35,0,0.9,0.5,0.4,3.1,10,initial,36.05,312,344,377,409,0,9,9,9,9,0,,,,,,,2,0,2,0,0,30,30,32,,,,,,,,,,,,num_4,0.8872020000017073,num_4,0.55,0.6,0.30000000000000004,0.7,11.46165,26.74385,return,2.302726999998413,,,,,,,,,,,,,,,,,715,23,male,left_right_width,2024-08-26_17h02.48.035,exp1,2023.1.0,59.839713343737365,
,,,,,,,,,,,,,,,,4,8.825,9.608333333333333,10.391666666666667,11.175,0,0.7833333333333333,0.5333333333333333,0.25,2.6,10,match,36.05,318,346,375,403,0,9,9,9,9,0,,,,,,,2,0,2,0,0,31,31,5,,,,,,,,,,,,num_4,0.6913703000027454,num_4,0.45,0.9,0.25000000000000006,0.4,9.55138,15.2822,return,2.48599589999867,,,,,,,,,,,,,,,,,715,23,male,left_right_width,2024-08-26_17h02.48.035,exp1,2023.1.0,59.839713343737365,
,,,,,,,,,,,,,,,,4,8.95,9.65,10.35,11.05,0,0.7,0.29999999999999993,0.4,2.5,10,initial,36.05,323,348,373,398,0,9,9,9,9,0,,,,,,,2,0,2,0,0,32,32,26,,,,,,,,,,,,num_4,0.6517723000033584,num_4,0.45,0.9,0.35000000000000003,0.7,13.37193,26.74385,return,2.605333300001803,,,,,,,,,,,,,,,,,715,23,male,left_right_width,2024-08-26_17h02.48.035,exp1,2023.1.0,59.839713343737365,
,,,,,,,,,,,,,,,,5,8.35,9.175,10,10.825,11.65,0.8250000000000001,0.275,0.55,3.85,10,match,36.05,301,331,361,390,420,9,9,9,9,9,,,,,,,2,0,2,0,0,33,33,18,,,,,,,,,,,,num_5,0.8374714000019594,num_5,0.4,0.9,0.35000000000000003,0.55,13.37193,21.01303,return,3.71594929999992,,,,,,,,,,,,,,,,,715,23,male,left_right_width,2024-08-26_17h02.48.035,exp1,2023.1.0,59.839713343737365,
,,,,,,,,,,,,,,,,4,8.35,9.45,10.55,11.65,0,1.1,0.55,0.55,3.8500000000000005,10,initial,36.05,301,341,380,420,0,9,9,9,9,0,,,,,,,2,0,2,0,0,34,34,17,,,,,,,,,,,,num_4,0.7100430999998935,num_4,0.35,0.5,0.35,0.6,13.37193,22.9233,return,1.8132721000038146,,,,,,,,,,,,,,,,,715,23,male,left_right_width,2024-08-26_17h02.48.035,exp1,2023.1.0,59.839713343737365,
,,,,,,,,,,,,,,,,3,8.525,10,11.475,0,0,1.475,1.225,0.25,3.2,10,match,36.05,307,361,414,0,0,9,9,9,0,0,,,,,,,2,0,2,0,0,35,35,45,,,,,,,,,,,,num_3,0.9933918000024278,num_3,0.45,0.9,0.35000000000000003,0.75,13.37193,28.65413,return,1.365413499999704,,,,,,,,,,,,,,,,,715,23,male,left_right_width,2024-08-26_17h02.48.035,exp1,2023.1.0,59.839713343737365,
,,,,,,,,,,,,,,,,4,8.9,9.633333333333333,10.366666666666667,11.1,0,0.7333333333333333,0.18333333333333326,0.55,2.75,10,match,36.05,321,347,374,400,0,9,9,9,9,0,,,,,,,2,0,2,0,0,36,36,1,,,,,,,,,,,,num_4,0.8030102000047918,num_4,0.25,0.6,0.44999999999999996,0.6,17.19248,22.9233,return,1.521245200001431,,,,,,,,,,,,,,,,,715,23,male,left_right_width,2024-08-26_17h02.48.035,exp1,2023.1.0,59.839713343737365,
,,,,,,,,,,,,,,,,3,8.2,10,11.8,0,0,1.8,1.55,0.25,3.85,10,match,36.05,296,361,425,0,0,9,9,9,0,0,,,,,,,2,0,2,0,0,37,37,49,,,,,,,,,,,,num_3,0.9172780000008061,num_3,0.25,0.3,0.2,1.25,7.6411,47.75688,return,9.833860400001868,,,,,,,,,,,,,,,,,715,23,male,left_right_width,2024-08-26_17h02.48.035,exp1,2023.1.0,59.839713343737365,
,,,,,,,,,,,,,,,,3,8.9,10,11.1,0,0,1.1,0.55,0.55,2.75,10,initial,36.05,321,361,400,0,0,9,9,9,0,0,,,,,,,2,0,2,0,0,38,38,0,,,,,,,,,,,,num_3,0.7812156000036339,num_3,0.25,0.4,0.6,0.85,22.9233,32.47468,return,4.077348800001346,,,,,,,,,,,,,,,,,715,23,male,left_right_width,2024-08-26_17h02.48.035,exp1,2023.1.0,59.839713343737365,
,,,,,,,,,,,,,,,,3,9.3,10,10.7,0,0,0.7,0.1499999999999999,0.55,1.95,10,initial,36.05,335,361,386,0,0,9,9,9,0,0,,,,,,,2,0,2,0,0,39,39,6,,,,,,,,,,,,num_3,0.6988653000007616,num_3,0.4,0.5,0.55,0.9,21.01303,34.38495,return,2.4585752000020875,,,,,,,,,,,,,,,,,715,23,male,left_right_width,2024-08-26_17h02.48.035,exp1,2023.1.0,59.839713343737365,
,,,,,,,,,,,,,,,,4,9.1,9.7,10.3,10.9,0,0.6,0.04999999999999997,0.55,2.35,10,match,36.05,328,350,371,393,0,9,9,9,9,0,,,,,,,2,0,2,0,0,40,40,12,,,,,,,,,,,,num_3,0.7966245000025083,num_3,0.5,0.7,0.7000000000000002,0.8,26.74385,30.5644,return,2.330313499998738,,,,,,,,,,,,,,,,,715,23,male,left_right_width,2024-08-26_17h02.48.035,exp1,2023.1.0,59.839713343737365,
,,,,,,,,,,,,,,,,4,8.95,9.65,10.35,11.05,0,0.7,0.44999999999999996,0.25,2.3499999999999996,10,initial,36.05,323,348,373,398,0,9,9,9,9,0,,,,,,,2,0,2,0,0,41,41,24,,,,,,,,,,,,num_4,1.0584532000029867,num_4,0.45,0.5,0.15000000000000008,0.7,5.73083,26.74385,return,2.454906099999789,,,,,,,,,,,,,,,,,715,23,male,left_right_width,2024-08-26_17h02.48.035,exp1,2023.1.0,59.839713343737365,
,,,,,,,,,,,,,,,,3,7.8,10,12.2,0,0,2.2,1.65,0.55,4.95,10,match,36.05,281,361,440,0,0,9,9,9,0,0,,,,,,,2,0,2,0,0,42,42,35,,,,,,,,,,,,num_3,0.7815782000034233,num_3,0.4,1.2,0.4,1.75,15.2822,66.85963,return,2.6791929000028176,,,,,,,,,,,,,,,,,715,23,male,left_right_width,2024-08-26_17h02.48.035,exp1,2023.1.0,59.839713343737365,
,,,,,,,,,,,,,,,,5,8.65,9.325,10,10.675,11.35,0.675,0.125,0.55,3.25,10,match,36.05,312,336,361,385,409,9,9,9,9,9,,,,,,,2,0,2,0,0,43,43,29,,,,,,,,,,,,num_4,0.7897177000013471,num_4,0.3,1.1,0.44999999999999996,0.7,17.19248,26.74385,return,2.3972147000022233,,,,,,,,,,,,,,,,,715,23,male,left_right_width,2024-08-26_17h02.48.035,exp1,2023.1.0,59.839713343737365,
,,,,,,,,,,,,,,,,3,9.3,10,10.7,0,0,0.7,0.29999999999999993,0.4,1.8,10,initial,36.05,335,361,386,0,0,9,9,9,0,0,,,,,,,2,0,2,0,0,44,44,9,,,,,,,,,,,,num_3,0.7009302000005846,num_3,0.5,0.9,0.4,0.7,15.2822,26.74385,return,2.508504699999321,,,,,,,,,,,,,,,,,715,23,male,left_right_width,2024-08-26_17h02.48.035,exp1,2023.1.0,59.839713343737365,
,,,,,,,,,,,,,,,,4,9.1,9.7,10.3,10.9,0,0.5999999999999999,0.3499999999999999,0.25,2.05,10,match,36.05,328,350,371,393,0,9,9,9,9,0,,,,,,,2,0,2,0,0,45,45,14,,,,,,,,,,,,num_4,0.732139300002018,num_4,0.5,1.3,0.35000000000000003,0.6,13.37193,22.9233,return,3.3724230000007083,,,,,,,,,,,,,,,,,715,23,male,left_right_width,2024-08-26_17h02.48.035,exp1,2023.1.0,59.839713343737365,
,,,,,,,,,,,,,,,,5,8.35,9.175,10,10.825,11.65,0.825,0.575,0.25,3.55,10,match,36.05,301,331,361,390,420,9,9,9,9,9,,,,,,,2,0,2,0,0,46,46,20,,,,,,,,,,,,num_5,0.8329292000016721,num_5,0.25,1.3,0.3,0.65,11.46165,24.83358,return,3.192488600001525,,,,,,,,,,,,,,,,,715,23,male,left_right_width,2024-08-26_17h02.48.035,exp1,2023.1.0,59.839713343737365,
,,,,,,,,,,,,,,,,4,8.65,9.55,10.45,11.35,0,0.9,0.35,0.55,3.25,10,initial,36.05,312,344,377,409,0,9,9,9,9,0,,,,,,,2,0,2,0,0,47,47,28,,,,,,,,,,,,num_4,1.3599906000017654,num_4,0.45,1.2,0.35000000000000003,0.7,13.37193,26.74385,return,3.0806989000011527,,,,,,,,,,,,,,,,,715,23,male,left_right_width,2024-08-26_17h02.48.035,exp1,2023.1.0,59.839713343737365,
,,,,,,,,,,,,,,,,4,9.3,9.766666666666667,10.233333333333333,10.7,0,0.4666666666666667,0.21666666666666665,0.25,1.65,10,match,36.05,335,352,369,386,0,9,9,9,9,0,,,,,,,2,0,2,0,0,48,48,8,,,,,,,,,,,,num_4,0.9805783000010706,num_4,0.35,1.2,0.25,0.4,9.55138,15.2822,return,1.9976252000014938,,,,,,,,,,,,,,,,,715,23,male,left_right_width,2024-08-26_17h02.48.035,exp1,2023.1.0,59.839713343737365,
,,,,,,,,,,,,,,,,5,8.95,9.475,10,10.525,11.05,0.525,0.125,0.4,2.5,10,match,36.05,323,342,361,379,398,9,9,9,9,9,,,,,,,2,0,2,0,0,49,49,27,,,,,,,,,,,,num_4,0.6655149000034726,num_4,0.55,0.7,0.20000000000000007,0.4,7.6411,15.2822,return,2.54020379999929,,,,,,,,,,,,,,,,,715,23,male,left_right_width,2024-08-26_17h02.48.035,exp1,2023.1.0,59.839713343737365,
,,,,,,,,,,,,,,,,3,9.1,10,10.9,0,0,0.9,0.5,0.4,2.2,10,initial,36.05,328,361,393,0,0,9,9,9,0,0,,,,,,,2,0,2,0,0,50,50,15,,,,,,,,,,,,num_3,0.9658720000006724,num_3,0.3,0.8,0.35,0.65,13.37193,24.83358,return,1.8012046000003465,,,,,,,,,,,,,,,,,715,23,male,left_right_width,2024-08-26_17h02.48.035,exp1,2023.1.0,59.839713343737365,
,,,,,,,,,,,,,,,,3,8.9,10,11.1,0,0,1.1,0.7000000000000001,0.4,2.6000000000000005,10,initial,36.05,321,361,400,0,0,9,9,9,0,0,,,,,,,2,0,2,0,0,51,51,4,,,,,,,,,,,,num_3,0.6478191999995033,num_3,0.4,1,0.30000000000000004,0.6,11.46165,22.9233,return,2.280322000002343,,,,,,,,,,,,,,,,,715,23,male,left_right_width,2024-08-26_17h02.48.035,exp1,2023.1.0,59.839713343737365,
,,,,,,,,,,,,,,,,,,,,,,,,,,,,,,,,,,,,,,,,,,,,,2,0,2,0,,,,,,,,,,,,,,,,,,,,,,,,,,,,,1677.5303716999988,1677.5303716999988,1677.5303716999988,,,,,,,,,,,,715,23,male,left_right_width,2024-08-26_17h02.48.035,exp1,2023.1.0,59.839713343737365,
,,,,,,,,,,,,,,,,3,9.1,10,10.9,0,0,0.9,0.35,0.55,2.35,10,initial,36.05,328,361,393,0,0,9,9,9,0,0,,,,,,,3,0,3,0,0,0,0,11,,,,,,,,,,,,num_3,1.117332500001794,num_3,0.35,1.2,0.39999999999999997,0.9,15.2822,34.38495,return,2.348942199998419,,,,,,,,,,,,,,,,,715,23,male,left_right_width,2024-08-26_17h02.48.035,exp1,2023.1.0,59.839713343737365,
,,,,,,,,,,,,,,,,3,9.3,10,10.7,0,0,0.7,0.44999999999999996,0.25,1.65,10,initial,36.05,335,361,386,0,0,9,9,9,0,0,,,,,,,3,0,3,0,0,1,1,7,,,,,,,,,,,,num_3,0.6978233000008913,num_3,0.3,1.1,0.3,0.55,11.46165,21.01303,return,3.826606600003288,,,,,,,,,,,,,,,,,715,23,male,left_right_width,2024-08-26_17h02.48.035,exp1,2023.1.0,59.839713343737365,
,,,,,,,,,,,,,,,,4,9.1,9.7,10.3,10.9,0,0.5999999999999999,0.3499999999999999,0.25,2.05,10,match,36.05,328,350,371,393,0,9,9,9,9,0,,,,,,,3,0,3,0,0,2,2,14,,,,,,,,,,,,num_4,0.758745800001634,num_4,0.55,1.0,0.25000000000000006,0.5,9.55138,19.10275,return,2.534559800002171,,,,,,,,,,,,,,,,,715,23,male,left_right_width,2024-08-26_17h02.48.035,exp1,2023.1.0,59.839713343737365,
,,,,,,,,,,,,,,,,3,9.1,10,10.9,0,0,0.9,0.5,0.4,2.2,10,initial,36.05,328,361,393,0,0,9,9,9,0,0,,,,,,,3,0,3,0,0,3,3,15,,,,,,,,,,,,num_3,0.7894104000006337,num_3,0.2,1.1,0.3,0.7,11.46165,26.74385,return,2.8014757000019017,,,,,,,,,,,,,,,,,715,23,male,left_right_width,2024-08-26_17h02.48.035,exp1,2023.1.0,59.839713343737365,
,,,,,,,,,,,,,,,,4,8.95,9.65,10.35,11.05,0,0.7,0.1499999999999999,0.55,2.65,10,initial,36.05,323,348,373,398,0,9,9,9,9,0,,,,,,,3,0,3,0,0,4,4,23,,,,,,,,,,,,num_4,1.268815999999788,num_4,0.35,1.0,0.44999999999999996,0.6,17.19248,22.9233,return,2.184113900002558,,,,,,,,,,,,,,,,,715,23,male,left_right_width,2024-08-26_17h02.48.035,exp1,2023.1.0,59.839713343737365,
,,,,,,,,,,,,,,,,3,7.800000000000001,10,12.2,0,0,2.1999999999999997,1.7999999999999998,0.4,4.8,10,match,36.05,281,361,440,0,0,9,9,9,0,0,,,,,,,3,0,3,0,0,5,5,39,,,,,,,,,,,,num_3,0.864912800003367,num_3,0.2,1,0.44999999999999996,1.1,17.19248,42.02605,return,2.839837000003172,,,,,,,,,,,,,,,,,715,23,male,left_right_width,2024-08-26_17h02.48.035,exp1,2023.1.0,59.839713343737365,
,,,,,,,,,,,,,,,,4,8.9,9.633333333333333,10.366666666666667,11.1,0,0.7333333333333334,0.4833333333333334,0.25,2.45,10,match,36.05,321,347,374,400,0,9,9,9,9,0,,,,,,,3,0,3,0,0,6,6,3,,,,,,,,,,,,num_4,0.8182911000003514,num_4,0.55,1.0,0.30000000000000004,0.7,11.46165,26.74385,return,2.3216481000017666,,,,,,,,,,,,,,,,,715,23,male,left_right_width,2024-08-26_17h02.48.035,exp1,2023.1.0,59.839713343737365,
,,,,,,,,,,,,,,,,5,7.8,8.9,10,11.1,12.2,1.1,0.55,0.55,4.95,10,initial,36.05,281,321,361,400,440,9,9,9,9,9,,,,,,,3,0,3,0,0,7,7,34,,,,,,,,,,,,num_5,0.8124979000021995,num_5,0.35,1.3,0.44999999999999996,0.7,17.19248,26.74385,return,4.0272135000013805,,,,,,,,,,,,,,,,,715,23,male,left_right_width,2024-08-26_17h02.48.035,exp1,2023.1.0,59.839713343737365,
,,,,,,,,,,,,,,,,4,8.35,9.45,10.55,11.65,0,1.1,0.7000000000000001,0.4,3.7,10,initial,36.05,301,341,380,420,0,9,9,9,9,0,,,,,,,3,0,3,0,0,8,8,21,,,,,,,,,,,,num_3,0.9934162000026845,num_3,0.2,1.2,0.39999999999999997,0.8,15.2822,30.5644,return,2.868127200003073,,,,,,,,,,,,,,,,,715,23,male,left_right_width,2024-08-26_17h02.48.035,exp1,2023.1.0,59.839713343737365,
,,,,,,,,,,,,,,,,4,8.35,9.45,10.55,11.65,0,1.1,0.8500000000000001,0.25,3.5500000000000003,10,initial,36.05,301,341,380,420,0,9,9,9,9,0,,,,,,,3,0,3,0,0,9,9,19,,,,,,,,,,,,num_4,0.7060282000020379,num_4,0.25,0.9,0.25,1.1,9.55138,42.02605,return,1.0407006000023102,,,,,,,,,,,,,,,,,715,23,male,left_right_width,2024-08-26_17h02.48.035,exp1,2023.1.0,59.839713343737365,
,,,,,,,,,,,,,,,,4,9.3,9.766666666666667,10.233333333333333,10.7,0,0.4666666666666667,0.21666666666666665,0.25,1.65,10,match,36.05,335,352,369,386,0,9,9,9,9,0,,,,,,,3,0,3,0,0,10,10,8,,,,,,,,,,,,num_3,0.9272454999991169,num_3,0.5,1.3,0.35000000000000003,0.6,13.37193,22.9233,return,3.8324689000000944,,,,,,,,,,,,,,,,,715,23,male,left_right_width,2024-08-26_17h02.48.035,exp1,2023.1.0,59.839713343737365,
,,,,,,,,,,,,,,,,4,8.95,9.65,10.35,11.05,0,0.7,0.29999999999999993,0.4,2.5,10,initial,36.05,323,348,373,398,0,9,9,9,9,0,,,,,,,3,0,3,0,0,11,11,26,,,,,,,,,,,,num_4,0.9091038000005938,num_4,0.5,1.3,0.35000000000000003,0.7,13.37193,26.74385,return,3.3152854000036314,,,,,,,,,,,,,,,,,715,23,male,left_right_width,2024-08-26_17h02.48.035,exp1,2023.1.0,59.839713343737365,
,,,,,,,,,,,,,,,,5,8.2,9.1,10,10.9,11.8,0.9,0.65,0.25,3.85,10,initial,36.05,296,328,361,393,425,9,9,9,9,9,,,,,,,3,0,3,0,0,12,12,48,,,,,,,,,,,,num_4,0.7491910999997344,num_4,0.45,0.6,0.25000000000000006,0.5,9.55138,19.10275,return,5.709644500002469,,,,,,,,,,,,,,,,,715,23,male,left_right_width,2024-08-26_17h02.48.035,exp1,2023.1.0,59.839713343737365,
,,,,,,,,,,,,,,,,5,8.6,9.3,10,10.7,11.4,0.7,0.44999999999999996,0.25,3.05,10,initial,36.05,310,335,361,386,411,9,9,9,9,9,,,,,,,3,0,3,0,0,13,13,42,,,,,,,,,,,,num_5,0.828997900003742,num_5,0.25,0.7,0.2,0.5,7.6411,19.10275,return,1.3854685000042082,,,,,,,,,,,,,,,,,715,23,male,left_right_width,2024-08-26_17h02.48.035,exp1,2023.1.0,59.839713343737365,
,,,,,,,,,,,,,,,,3,7.8,10,12.2,0,0,2.2,1.65,0.55,4.95,10,match,36.05,281,361,440,0,0,9,9,9,0,0,,,,,,,3,0,3,0,0,14,14,35,,,,,,,,,,,,num_3,0.8387298000016017,num_3,0.25,1.1,0.44999999999999996,0.9,17.19248,34.38495,return,2.46394610000425,,,,,,,,,,,,,,,,,715,23,male,left_right_width,2024-08-26_17h02.48.035,exp1,2023.1.0,59.839713343737365,
,,,,,,,,,,,,,,,,3,8.9,10,11.1,0,0,1.1,0.7000000000000001,0.4,2.6000000000000005,10,initial,36.05,321,361,400,0,0,9,9,9,0,0,,,,,,,3,0,3,0,0,15,15,4,,,,,,,,,,,,num_3,0.7080761000033817,num_3,0.4,1,0.30000000000000004,1.0,11.46165,38.2055,return,1.8264406000016606,,,,,,,,,,,,,,,,,715,23,male,left_right_width,2024-08-26_17h02.48.035,exp1,2023.1.0,59.839713343737365,
,,,,,,,,,,,,,,,,4,9.1,9.7,10.3,10.9,0,0.6000000000000001,0.20000000000000004,0.4,2.2,10,match,36.05,328,350,371,393,0,9,9,9,9,0,,,,,,,3,0,3,0,0,16,16,16,,,,,,,,,,,,num_4,0.9070090000022901,num_4,0.2,0.9,0.44999999999999996,0.7,17.19248,26.74385,return,2.7836664999995264,,,,,,,,,,,,,,,,,715,23,male,left_right_width,2024-08-26_17h02.48.035,exp1,2023.1.0,59.839713343737365,
,,,,,,,,,,,,,,,,3,7.8,10,12.2,0,0,2.2,1.9500000000000002,0.25,4.65,10,match,36.05,281,361,440,0,0,9,9,9,0,0,,,,,,,3,0,3,0,0,17,17,37,,,,,,,,,,,,num_3,0.7507952000014484,num_3,0.4,0.9,0.30000000000000004,0.9,11.46165,34.38495,return,2.4897813000025053,,,,,,,,,,,,,,,,,715,23,male,left_right_width,2024-08-26_17h02.48.035,exp1,2023.1.0,59.839713343737365,
,,,,,,,,,,,,,,,,4,8.35,9.45,10.55,11.65,0,1.1,0.55,0.55,3.8500000000000005,10,initial,36.05,301,341,380,420,0,9,9,9,9,0,,,,,,,3,0,3,0,0,18,18,17,,,,,,,,,,,,num_3,0.6914297000002989,num_3,0.4,0.8,0.30000000000000004,0.85,11.46165,32.47468,return,1.9388660000004165,,,,,,,,,,,,,,,,,715,23,male,left_right_width,2024-08-26_17h02.48.035,exp1,2023.1.0,59.839713343737365,
,,,,,,,,,,,,,,,,5,7.8,8.9,10,11.1,12.2,1.1,0.8500000000000001,0.25,4.65,10,initial,36.05,281,321,361,400,440,9,9,9,9,9,,,,,,,3,0,3,0,0,19,19,36,,,,,,,,,,,,num_4,0.8059525999997277,num_4,0.4,1.3,0.30000000000000004,0.9,11.46165,34.38495,return,2.2915782000018226,,,,,,,,,,,,,,,,,715,23,male,left_right_width,2024-08-26_17h02.48.035,exp1,2023.1.0,59.839713343737365,
,,,,,,,,,,,,,,,,5,8.95,9.475,10,10.525,11.05,0.525,0.275,0.25,2.35,10,match,36.05,323,342,361,379,398,9,9,9,9,9,,,,,,,3,0,3,0,0,20,20,25,,,,,,,,,,,,num_4,0.6874246000006679,num_4,0.2,1.1,0.25,0.6,9.55138,22.9233,return,2.371351700003288,,,,,,,,,,,,,,,,,715,23,male,left_right_width,2024-08-26_17h02.48.035,exp1,2023.1.0,59.839713343737365,
,,,,,,,,,,,,,,,,5,8.65,9.325,10,10.675,11.35,0.675,0.125,0.55,3.25,10,match,36.05,312,336,361,385,409,9,9,9,9,9,,,,,,,3,0,3,0,0,21,21,29,,,,,,,,,,,,num_5,0.8293969000005745,num_5,0.2,1.1,0.6,0.75,22.9233,28.65413,return,4.1185633999994025,,,,,,,,,,,,,,,,,715,23,male,left_right_width,2024-08-26_17h02.48.035,exp1,2023.1.0,59.839713343737365,
,,,,,,,,,,,,,,,,5,8.275,9.1375,10,10.8625,11.725,0.8625,0.6125,0.25,3.7,10,match,36.05,298,329,361,392,423,9,9,9,9,9,,,,,,,3,0,3,0,0,22,22,22,,,,,,,,,,,,num_5,0.9040589000032924,num_5,0.55,1.1,0.25000000000000006,0.85,9.55138,32.47468,return,3.262305900003412,,,,,,,,,,,,,,,,,715,23,male,left_right_width,2024-08-26_17h02.48.035,exp1,2023.1.0,59.839713343737365,
,,,,,,,,,,,,,,,,5,7.8,8.9,10,11.1,12.2,1.1,0.7000000000000001,0.4,4.800000000000001,10,initial,36.05,281,321,361,400,440,9,9,9,9,9,,,,,,,3,0,3,0,0,23,23,38,,,,,,,,,,,,num_4,0.7768786000015098,num_4,0.55,0.8,0.35000000000000003,0.6,13.37193,22.9233,return,3.300584100001288,,,,,,,,,,,,,,,,,715,23,male,left_right_width,2024-08-26_17h02.48.035,exp1,2023.1.0,59.839713343737365,
,,,,,,,,,,,,,,,,5,8.35,9.175,10,10.825,11.65,0.8250000000000001,0.275,0.55,3.85,10,match,36.05,301,331,361,390,420,9,9,9,9,9,,,,,,,3,0,3,0,0,24,24,18,,,,,,,,,,,,num_5,0.8051864000044588,num_5,0.4,0.8,0.5,0.75,19.10275,28.65413,return,2.751501600003394,,,,,,,,,,,,,,,,,715,23,male,left_right_width,2024-08-26_17h02.48.035,exp1,2023.1.0,59.839713343737365,
,,,,,,,,,,,,,,,,3,8.9,10,11.1,0,0,1.1,0.55,0.55,2.75,10,initial,36.05,321,361,400,0,0,9,9,9,0,0,,,,,,,3,0,3,0,0,25,25,0,,,,,,,,,,,,num_3,0.9674140000024636,num_3,0.35,0.6,0.39999999999999997,0.7,15.2822,26.74385,return,2.2997250000007625,,,,,,,,,,,,,,,,,715,23,male,left_right_width,2024-08-26_17h02.48.035,exp1,2023.1.0,59.839713343737365,
,,,,,,,,,,,,,,,,4,9.1,9.7,10.3,10.9,0,0.6,0.04999999999999997,0.55,2.35,10,match,36.05,328,350,371,393,0,9,9,9,9,0,,,,,,,3,0,3,0,0,26,26,12,,,,,,,,,,,,num_3,1.0893613000007463,num_3,0.25,1.3,0.7500000000000001,0.8,28.65413,30.5644,return,5.60036300000138,,,,,,,,,,,,,,,,,715,23,male,left_right_width,2024-08-26_17h02.48.035,exp1,2023.1.0,59.839713343737365,
,,,,,,,,,,,,,,,,4,8.65,9.55,10.45,11.35,0,0.9,0.65,0.25,2.95,10,initial,36.05,312,344,377,409,0,9,9,9,9,0,,,,,,,3,0,3,0,0,27,27,30,,,,,,,,,,,,num_4,0.887300200000027,num_4,0.55,1.0,0.20000000000000007,1.0,7.6411,38.2055,return,1.7911905000037223,,,,,,,,,,,,,,,,,715,23,male,left_right_width,2024-08-26_17h02.48.035,exp1,2023.1.0,59.839713343737365,
,,,,,,,,,,,,,,,,3,8.6,10,11.4,0,0,1.4,1.15,0.25,3.05,10,match,36.05,310,361,411,0,0,9,9,9,0,0,,,,,,,3,0,3,0,0,28,28,43,,,,,,,,,,,,num_3,0.7530836000005365,num_3,0.2,1.3,0.2,1.3,7.6411,49.66716,return,1.372465500004182,,,,,,,,,,,,,,,,,715,23,male,left_right_width,2024-08-26_17h02.48.035,exp1,2023.1.0,59.839713343737365,
,,,,,,,,,,,,,,,,4,9.3,9.766666666666667,10.233333333333333,10.7,0,0.4666666666666667,0.06666666666666665,0.4,1.8,10,match,36.05,335,352,369,386,0,9,9,9,9,0,,,,,,,3,0,3,0,0,29,29,10,,,,,,,,,,,,num_4,0.8684177000031923,num_4,0.5,0.6,0.45,0.7,17.19248,26.74385,return,1.2595634999997856,,,,,,,,,,,,,,,,,715,23,male,left_right_width,2024-08-26_17h02.48.035,exp1,2023.1.0,59.839713343737365,
,,,,,,,,,,,,,,,,3,9.1,10,10.9,0,0,0.9,0.65,0.25,2.05,10,initial,36.05,328,361,393,0,0,9,9,9,0,0,,,,,,,3,0,3,0,0,30,30,13,,,,,,,,,,,,num_3,0.7210429000006116,num_3,0.25,1,0.35,1.05,13.37193,40.11578,return,1.4837655000010272,,,,,,,,,,,,,,,,,715,23,male,left_right_width,2024-08-26_17h02.48.035,exp1,2023.1.0,59.839713343737365,
,,,,,,,,,,,,,,,,5,8.6,9.3,10,10.7,11.4,0.7,0.29999999999999993,0.4,3.1999999999999997,10,initial,36.05,310,335,361,386,411,9,9,9,9,9,,,,,,,3,0,3,0,0,31,31,44,,,,,,,,,,,,num_5,0.8325939000023936,num_5,0.35,1.1,0.49999999999999994,0.75,19.10275,28.65413,return,2.701945799999521,,,,,,,,,,,,,,,,,715,23,male,left_right_width,2024-08-26_17h02.48.035,exp1,2023.1.0,59.839713343737365,
,,,,,,,,,,,,,,,,5,8.2,9.1,10,10.9,11.8,0.9,0.5,0.4,4,10,initial,36.05,296,328,361,393,425,9,9,9,9,9,,,,,,,3,0,3,0,0,32,32,50,,,,,,,,,,,,num_5,0.820818700001837,num_5,0.4,1.0,0.45,1.0,17.19248,38.2055,return,1.1346907000042847,,,,,,,,,,,,,,,,,715,23,male,left_right_width,2024-08-26_17h02.48.035,exp1,2023.1.0,59.839713343737365,
,,,,,,,,,,,,,,,,3,8.2,10,11.8,0,0,1.7999999999999998,1.4,0.4,4,10,match,36.05,296,361,425,0,0,9,9,9,0,0,,,,,,,3,0,3,0,0,33,33,51,,,,,,,,,,,,num_3,1.0372998999991978,num_3,0.25,1.3,0.39999999999999997,1.4,15.2822,53.48771,return,1.5179985000031593,,,,,,,,,,,,,,,,,715,23,male,left_right_width,2024-08-26_17h02.48.035,exp1,2023.1.0,59.839713343737365,
,,,,,,,,,,,,,,,,3,8.9,10,11.1,0,0,1.1,0.8500000000000001,0.25,2.45,10,initial,36.05,321,361,400,0,0,9,9,9,0,0,,,,,,,3,0,3,0,0,34,34,2,,,,,,,,,,,,num_3,0.6485573000027216,num_3,0.5,1.1,0.25000000000000006,1.05,9.55138,40.11578,return,1.9973676000008709,,,,,,,,,,,,,,,,,715,23,male,left_right_width,2024-08-26_17h02.48.035,exp1,2023.1.0,59.839713343737365,
,,,,,,,,,,,,,,,,5,8.65,9.325,10,10.675,11.35,0.675,0.42500000000000004,0.25,2.95,10,match,36.05,312,336,361,385,409,9,9,9,9,9,,,,,,,3,0,3,0,0,35,35,31,,,,,,,,,,,,num_5,0.7427872000043862,num_5,0.3,1.0,0.3,0.85,11.46165,32.47468,return,2.274975100004667,,,,,,,,,,,,,,,,,715,23,male,left_right_width,2024-08-26_17h02.48.035,exp1,2023.1.0,59.839713343737365,
,,,,,,,,,,,,,,,,4,8.9,9.633333333333333,10.366666666666667,11.1,0,0.7333333333333333,0.18333333333333326,0.55,2.75,10,match,36.05,321,347,374,400,0,9,9,9,9,0,,,,,,,3,0,3,0,0,36,36,1,,,,,,,,,,,,num_3,0.724659800001973,num_3,0.3,0.7,0.49999999999999994,0.7,19.10275,26.74385,return,4.693191000002116,,,,,,,,,,,,,,,,,715,23,male,left_right_width,2024-08-26_17h02.48.035,exp1,2023.1.0,59.839713343737365,
,,,,,,,,,,,,,,,,3,8.2,10,11.8,0,0,1.8,1.25,0.55,4.15,10,match,36.05,296,361,425,0,0,9,9,9,0,0,,,,,,,3,0,3,0,0,37,37,47,,,,,,,,,,,,num_3,0.7277438000019174,num_3,0.4,1.3,0.6000000000000001,1.05,22.9233,40.11578,return,2.714454900000419,,,,,,,,,,,,,,,,,715,23,male,left_right_width,2024-08-26_17h02.48.035,exp1,2023.1.0,59.839713343737365,
,,,,,,,,,,,,,,,,5,8.65,9.325,10,10.675,11.35,0.675,0.275,0.4,3.1,10,match,36.05,312,336,361,385,409,9,9,9,9,9,,,,,,,3,0,3,0,0,38,38,33,,,,,,,,,,,,num_4,0.7982319000002462,num_4,0.55,0.6,0.4,0.6,15.2822,22.9233,return,1.290441600001941,,,,,,,,,,,,,,,,,715,23,male,left_right_width,2024-08-26_17h02.48.035,exp1,2023.1.0,59.839713343737365,
,,,,,,,,,,,,,,,,3,8.525,10,11.475,0,0,1.475,1.225,0.25,3.2,10,match,36.05,307,361,414,0,0,9,9,9,0,0,,,,,,,3,0,3,0,0,39,39,45,,,,,,,,,,,,num_3,0.7010102000022016,num_3,0.55,1,0.45,0.75,17.19248,28.65413,return,2.156483800001297,,,,,,,,,,,,,,,,,715,23,male,left_right_width,2024-08-26_17h02.48.035,exp1,2023.1.0,59.839713343737365,
,,,,,,,,,,,,,,,,3,8.2,10,11.8,0,0,1.8,1.55,0.25,3.85,10,match,36.05,296,361,425,0,0,9,9,9,0,0,,,,,,,3,0,3,0,0,40,40,49,,,,,,,,,,,,num_3,0.7739839000023494,num_3,0.5,1.3,0.4,0.85,15.2822,32.47468,return,2.4003135999992082,,,,,,,,,,,,,,,,,715,23,male,left_right_width,2024-08-26_17h02.48.035,exp1,2023.1.0,59.839713343737365,
,,,,,,,,,,,,,,,,5,8.2,9.1,10,10.9,11.8,0.9,0.35,0.55,4.15,10,initial,36.05,296,328,361,393,425,9,9,9,9,9,,,,,,,3,0,3,0,0,41,41,46,,,,,,,,,,,,num_4,0.8779499000011128,num_4,0.45,1.2,0.4,0.6,15.2822,22.9233,return,2.085918800003128,,,,,,,,,,,,,,,,,715,23,male,left_right_width,2024-08-26_17h02.48.035,exp1,2023.1.0,59.839713343737365,
,,,,,,,,,,,,,,,,4,8.65,9.55,10.45,11.35,0,0.9,0.35,0.55,3.25,10,initial,36.05,312,344,377,409,0,9,9,9,9,0,,,,,,,3,0,3,0,0,42,42,28,,,,,,,,,,,,num_4,0.8395829000000958,num_4,0.45,1.2,0.5,0.7,19.10275,26.74385,return,2.7170081000003847,,,,,,,,,,,,,,,,,715,23,male,left_right_width,2024-08-26_17h02.48.035,exp1,2023.1.0,59.839713343737365,
,,,,,,,,,,,,,,,,4,8.825,9.608333333333333,10.391666666666667,11.175,0,0.7833333333333333,0.5333333333333333,0.25,2.6,10,match,36.05,318,346,375,403,0,9,9,9,9,0,,,,,,,3,0,3,0,0,43,43,5,,,,,,,,,,,,num_4,0.6866840000038792,num_4,0.55,0.9,0.35000000000000003,0.6,13.37193,22.9233,return,1.795930700001918,,,,,,,,,,,,,,,,,715,23,male,left_right_width,2024-08-26_17h02.48.035,exp1,2023.1.0,59.839713343737365,
,,,,,,,,,,,,,,,,3,8.6,10,11.4,0,0,1.4,0.85,0.55,3.35,10,match,36.05,310,361,411,0,0,9,9,9,0,0,,,,,,,3,0,3,0,0,44,44,41,,,,,,,,,,,,num_3,0.7178135000031034,num_3,0.35,1.3,0.44999999999999996,0.85,17.19248,32.47468,return,2.8161392000001797,,,,,,,,,,,,,,,,,715,23,male,left_right_width,2024-08-26_17h02.48.035,exp1,2023.1.0,59.839713343737365,
,,,,,,,,,,,,,,,,5,8.6,9.3,10,10.7,11.4,0.7,0.1499999999999999,0.55,3.3499999999999996,10,initial,36.05,310,335,361,386,411,9,9,9,9,9,,,,,,,3,0,3,0,0,45,45,40,,,,,,,,,,,,num_5,0.920955600002344,num_5,0.5,1.2,0.6000000000000001,0.75,22.9233,28.65413,return,2.562986400000227,,,,,,,,,,,,,,,,,715,23,male,left_right_width,2024-08-26_17h02.48.035,exp1,2023.1.0,59.839713343737365,
,,,,,,,,,,,,,,,,5,8.35,9.175,10,10.825,11.65,0.825,0.575,0.25,3.55,10,match,36.05,301,331,361,390,420,9,9,9,9,9,,,,,,,3,0,3,0,0,46,46,20,,,,,,,,,,,,num_4,0.8537745000030554,num_4,0.35,0.5,0.2,0.8,7.6411,30.5644,return,1.6821358000015607,,,,,,,,,,,,,,,,,715,23,male,left_right_width,2024-08-26_17h02.48.035,exp1,2023.1.0,59.839713343737365,
,,,,,,,,,,,,,,,,3,9.3,10,10.7,0,0,0.7,0.1499999999999999,0.55,1.95,10,initial,36.05,335,361,386,0,0,9,9,9,0,0,,,,,,,3,0,3,0,0,47,47,6,,,,,,,,,,,,num_3,0.758504700002959,num_3,0.35,0.6,0.3,0.8,11.46165,30.5644,return,1.7507857999989938,,,,,,,,,,,,,,,,,715,23,male,left_right_width,2024-08-26_17h02.48.035,exp1,2023.1.0,59.839713343737365,
,,,,,,,,,,,,,,,,4,8.95,9.65,10.35,11.05,0,0.7,0.44999999999999996,0.25,2.3499999999999996,10,initial,36.05,323,348,373,398,0,9,9,9,9,0,,,,,,,3,0,3,0,0,48,48,24,,,,,,,,,,,,num_4,0.6980756000011752,num_4,0.5,1.2,0.30000000000000004,0.7,11.46165,26.74385,return,2.1096639999996114,,,,,,,,,,,,,,,,,715,23,male,left_right_width,2024-08-26_17h02.48.035,exp1,2023.1.0,59.839713343737365,
,,,,,,,,,,,,,,,,4,8.65,9.55,10.45,11.35,0,0.9,0.5,0.4,3.1,10,initial,36.05,312,344,377,409,0,9,9,9,9,0,,,,,,,3,0,3,0,0,49,49,32,,,,,,,,,,,,num_1,0.5492518999999447,num_1,0.35,9999,0.25,9999,9.55138,382016.8345,return,2.5710833000011917,,,,,,,,,,,,,,,,,715,23,male,left_right_width,2024-08-26_17h02.48.035,exp1,2023.1.0,59.839713343737365,
,,,,,,,,,,,,,,,,5,8.95,9.475,10,10.525,11.05,0.525,0.125,0.4,2.5,10,match,36.05,323,342,361,379,398,9,9,9,9,9,,,,,,,3,0,3,0,0,50,50,27,,,,,,,,,,,,num_4,0.7311964000036824,num_4,0.4,0.6,0.4,0.6,15.2822,22.9233,return,2.2331199000036577,,,,,,,,,,,,,,,,,715,23,male,left_right_width,2024-08-26_17h02.48.035,exp1,2023.1.0,59.839713343737365,
,,,,,,,,,,,,,,,,3,9.3,10,10.7,0,0,0.7,0.29999999999999993,0.4,1.8,10,initial,36.05,335,361,386,0,0,9,9,9,0,0,,,,,,,3,0,3,0,0,51,51,9,,,,,,,,,,,,num_4,0.7746614000025147,num_4,0.2,0.8,0.3,0.4,11.46165,15.2822,return,4.1191560000006575,,,,,,,,,,,,,,,,,715,23,male,left_right_width,2024-08-26_17h02.48.035,exp1,2023.1.0,59.839713343737365,
,,,,,,,,,,,,,,,,,,,,,,,,,,,,,,,,,,,,,,,,,,,,,3,0,3,0,,,,,,,,,,,,,,,,,,,,,,,,,,,,,1948.2971011000009,1948.2971011000009,1948.2971011000009,,,,,,,,,,,,715,23,male,left_right_width,2024-08-26_17h02.48.035,exp1,2023.1.0,59.839713343737365,
,,,,,,,,,,,,,,,,4,8.35,9.45,10.55,11.65,0,1.1,0.7000000000000001,0.4,3.7,10,initial,36.05,301,341,380,420,0,9,9,9,9,0,,,,,,,4,0,4,0,0,0,0,21,,,,,,,,,,,,num_4,1.6158871000043291,num_4,0.4,1.0,0.35000000000000003,0.9,13.37193,34.38495,return,0.9093995000039286,,,,,,,,,,,,,,,,,715,23,male,left_right_width,2024-08-26_17h02.48.035,exp1,2023.1.0,59.839713343737365,
,,,,,,,,,,,,,,,,3,7.800000000000001,10,12.2,0,0,2.1999999999999997,1.7999999999999998,0.4,4.8,10,match,36.05,281,361,440,0,0,9,9,9,0,0,,,,,,,4,0,4,0,0,1,1,39,,,,,,,,,,,,num_3,0.6846017000025313,num_3,0.4,1.2,0.4,1.05,15.2822,40.11578,return,4.523731000001135,,,,,,,,,,,,,,,,,715,23,male,left_right_width,2024-08-26_17h02.48.035,exp1,2023.1.0,59.839713343737365,
,,,,,,,,,,,,,,,,3,7.8,10,12.2,0,0,2.2,1.9500000000000002,0.25,4.65,10,match,36.05,281,361,440,0,0,9,9,9,0,0,,,,,,,4,0,4,0,0,2,2,37,,,,,,,,,,,,num_3,0.6580026000010548,num_3,0.45,0.9,0.30000000000000004,1.1,11.46165,42.02605,return,1.7780230000025767,,,,,,,,,,,,,,,,,715,23,male,left_right_width,2024-08-26_17h02.48.035,exp1,2023.1.0,59.839713343737365,
,,,,,,,,,,,,,,,,3,9.3,10,10.7,0,0,0.7,0.1499999999999999,0.55,1.95,10,initial,36.05,335,361,386,0,0,9,9,9,0,0,,,,,,,4,0,4,0,0,3,3,6,,,,,,,,,,,,num_3,0.657937399999355,num_3,0.55,0.6,0.5,0.6,19.10275,22.9233,return,1.111646600002132,,,,,,,,,,,,,,,,,715,23,male,left_right_width,2024-08-26_17h02.48.035,exp1,2023.1.0,59.839713343737365,
,,,,,,,,,,,,,,,,3,8.6,10,11.4,0,0,1.4,0.85,0.55,3.35,10,match,36.05,310,361,411,0,0,9,9,9,0,0,,,,,,,4,0,4,0,0,4,4,41,,,,,,,,,,,,num_3,0.9904667000009795,num_3,0.55,0.7,0.45,0.8,17.19248,30.5644,return,3.5251490000009653,,,,,,,,,,,,,,,,,715,23,male,left_right_width,2024-08-26_17h02.48.035,exp1,2023.1.0,59.839713343737365,
,,,,,,,,,,,,,,,,3,9.1,10,10.9,0,0,0.9,0.35,0.55,2.35,10,initial,36.05,328,361,393,0,0,9,9,9,0,0,,,,,,,4,0,4,0,0,5,5,11,,,,,,,,,,,,num_3,0.7933741000015289,num_3,0.35,0.8,0.49999999999999994,1.0,19.10275,38.2055,return,2.5634676000008767,,,,,,,,,,,,,,,,,715,23,male,left_right_width,2024-08-26_17h02.48.035,exp1,2023.1.0,59.839713343737365,
,,,,,,,,,,,,,,,,5,7.8,8.9,10,11.1,12.2,1.1,0.55,0.55,4.95,10,initial,36.05,281,321,361,400,440,9,9,9,9,9,,,,,,,4,0,4,0,0,6,6,34,,,,,,,,,,,,num_4,0.8853018000008888,num_4,0.2,0.9,0.6,1.1,22.9233,42.02605,return,2.280307000000903,,,,,,,,,,,,,,,,,715,23,male,left_right_width,2024-08-26_17h02.48.035,exp1,2023.1.0,59.839713343737365,
,,,,,,,,,,,,,,,,4,8.9,9.633333333333333,10.366666666666667,11.1,0,0.7333333333333334,0.4833333333333334,0.25,2.45,10,match,36.05,321,347,374,400,0,9,9,9,9,0,,,,,,,4,0,4,0,0,7,7,3,,,,,,,,,,,,num_3,0.9568634999995993,num_3,0.5,1.3,0.45,0.8,17.19248,30.5644,return,2.9491033000012976,,,,,,,,,,,,,,,,,715,23,male,left_right_width,2024-08-26_17h02.48.035,exp1,2023.1.0,59.839713343737365,
,,,,,,,,,,,,,,,,5,8.95,9.475,10,10.525,11.05,0.525,0.125,0.4,2.5,10,match,36.05,323,342,361,379,398,9,9,9,9,9,,,,,,,4,0,4,0,0,8,8,27,,,,,,,,,,,,num_4,0.8807670999995025,num_4,0.3,0.8,0.39999999999999997,0.7,15.2822,26.74385,return,3.4034970000029716,,,,,,,,,,,,,,,,,715,23,male,left_right_width,2024-08-26_17h02.48.035,exp1,2023.1.0,59.839713343737365,
,,,,,,,,,,,,,,,,3,8.2,10,11.8,0,0,1.7999999999999998,1.4,0.4,4,10,match,36.05,296,361,425,0,0,9,9,9,0,0,,,,,,,4,0,4,0,0,9,9,51,,,,,,,,,,,,num_3,0.8975713000036194,num_3,0.2,0.9,0.39999999999999997,0.65,15.2822,24.83358,return,2.358951400001388,,,,,,,,,,,,,,,,,715,23,male,left_right_width,2024-08-26_17h02.48.035,exp1,2023.1.0,59.839713343737365,
,,,,,,,,,,,,,,,,5,8.2,9.1,10,10.9,11.8,0.9,0.65,0.25,3.85,10,initial,36.05,296,328,361,393,425,9,9,9,9,9,,,,,,,4,0,4,0,0,10,10,48,,,,,,,,,,,,num_4,0.847416600001452,num_4,0.35,0.7,0.35,0.6,13.37193,22.9233,return,3.068058100001508,,,,,,,,,,,,,,,,,715,23,male,left_right_width,2024-08-26_17h02.48.035,exp1,2023.1.0,59.839713343737365,
,,,,,,,,,,,,,,,,5,8.6,9.3,10,10.7,11.4,0.7,0.1499999999999999,0.55,3.3499999999999996,10,initial,36.05,310,335,361,386,411,9,9,9,9,9,,,,,,,4,0,4,0,0,11,11,40,,,,,,,,,,,,num_4,0.6495419000020775,num_4,0.25,1.2,0.49999999999999994,0.8,19.10275,30.5644,return,2.6470747999992454,,,,,,,,,,,,,,,,,715,23,male,left_right_width,2024-08-26_17h02.48.035,exp1,2023.1.0,59.839713343737365,
,,,,,,,,,,,,,,,,4,9.1,9.7,10.3,10.9,0,0.5999999999999999,0.3499999999999999,0.25,2.05,10,match,36.05,328,350,371,393,0,9,9,9,9,0,,,,,,,4,0,4,0,0,12,12,14,,,,,,,,,,,,num_4,0.9238615000031132,num_4,0.3,1.1,0.2,0.5,7.6411,19.10275,return,2.4500267000039457,,,,,,,,,,,,,,,,,715,23,male,left_right_width,2024-08-26_17h02.48.035,exp1,2023.1.0,59.839713343737365,
,,,,,,,,,,,,,,,,4,9.3,9.766666666666667,10.233333333333333,10.7,0,0.4666666666666667,0.21666666666666665,0.25,1.65,10,match,36.05,335,352,369,386,0,9,9,9,9,0,,,,,,,4,0,4,0,0,13,13,8,,,,,,,,,,,,num_4,0.667438200001925,num_4,0.4,1.0,0.35000000000000003,0.5,13.37193,19.10275,return,2.076154000002134,,,,,,,,,,,,,,,,,715,23,male,left_right_width,2024-08-26_17h02.48.035,exp1,2023.1.0,59.839713343737365,
,,,,,,,,,,,,,,,,4,8.95,9.65,10.35,11.05,0,0.7,0.44999999999999996,0.25,2.3499999999999996,10,initial,36.05,323,348,373,398,0,9,9,9,9,0,,,,,,,4,0,4,0,0,14,14,24,,,,,,,,,,,,num_4,0.7270578000025125,num_4,0.35,0.9,0.25,0.5,9.55138,19.10275,return,1.6842707000032533,,,,,,,,,,,,,,,,,715,23,male,left_right_width,2024-08-26_17h02.48.035,exp1,2023.1.0,59.839713343737365,
,,,,,,,,,,,,,,,,5,7.8,8.9,10,11.1,12.2,1.1,0.8500000000000001,0.25,4.65,10,initial,36.05,281,321,361,400,440,9,9,9,9,9,,,,,,,4,0,4,0,0,15,15,36,,,,,,,,,,,,num_4,0.8393290000021807,num_4,0.35,1.1,0.25,0.6,9.55138,22.9233,return,1.5375277000021015,,,,,,,,,,,,,,,,,715,23,male,left_right_width,2024-08-26_17h02.48.035,exp1,2023.1.0,59.839713343737365,
,,,,,,,,,,,,,,,,5,8.35,9.175,10,10.825,11.65,0.825,0.575,0.25,3.55,10,match,36.05,301,331,361,390,420,9,9,9,9,9,,,,,,,4,0,4,0,0,16,16,20,,,,,,,,,,,,num_5,0.8132984000003489,num_5,0.35,1.2,0.25,0.9,9.55138,34.38495,return,1.6695988000028592,,,,,,,,,,,,,,,,,715,23,male,left_right_width,2024-08-26_17h02.48.035,exp1,2023.1.0,59.839713343737365,
,,,,,,,,,,,,,,,,3,9.3,10,10.7,0,0,0.7,0.29999999999999993,0.4,1.8,10,initial,36.05,335,361,386,0,0,9,9,9,0,0,,,,,,,4,0,4,0,0,17,17,9,,,,,,,,,,,,num_3,0.9240506000023743,num_3,0.25,1.3,0.39999999999999997,0.7,15.2822,26.74385,return,3.8228535000016564,,,,,,,,,,,,,,,,,715,23,male,left_right_width,2024-08-26_17h02.48.035,exp1,2023.1.0,59.839713343737365,
,,,,,,,,,,,,,,,,3,8.6,10,11.4,0,0,1.4,1.15,0.25,3.05,10,match,36.05,310,361,411,0,0,9,9,9,0,0,,,,,,,4,0,4,0,0,18,18,43,,,,,,,,,,,,num_3,0.6548847000012756,num_3,0.5,1.2,0.30000000000000004,0.85,11.46165,32.47468,return,3.0564812000011443,,,,,,,,,,,,,,,,,715,23,male,left_right_width,2024-08-26_17h02.48.035,exp1,2023.1.0,59.839713343737365,
,,,,,,,,,,,,,,,,3,9.3,10,10.7,0,0,0.7,0.44999999999999996,0.25,1.65,10,initial,36.05,335,361,386,0,0,9,9,9,0,0,,,,,,,4,0,4,0,0,19,19,7,,,,,,,,,,,,num_3,0.7140231000012136,num_3,0.3,0.7,0.35,0.8,13.37193,30.5644,return,2.3159997000038857,,,,,,,,,,,,,,,,,715,23,male,left_right_width,2024-08-26_17h02.48.035,exp1,2023.1.0,59.839713343737365,
,,,,,,,,,,,,,,,,5,8.95,9.475,10,10.525,11.05,0.525,0.275,0.25,2.35,10,match,36.05,323,342,361,379,398,9,9,9,9,9,,,,,,,4,0,4,0,0,20,20,25,,,,,,,,,,,,num_4,0.6441785999995773,num_4,0.25,1.1,0.3,0.7,11.46165,26.74385,return,2.1046636999999464,,,,,,,,,,,,,,,,,715,23,male,left_right_width,2024-08-26_17h02.48.035,exp1,2023.1.0,59.839713343737365,
,,,,,,,,,,,,,,,,4,8.35,9.45,10.55,11.65,0,1.1,0.8500000000000001,0.25,3.5500000000000003,10,initial,36.05,301,341,380,420,0,9,9,9,9,0,,,,,,,4,0,4,0,0,21,21,19,,,,,,,,,,,,num_4,0.914070000002539,num_4,0.2,0.8,0.25,0.6,9.55138,22.9233,return,1.5434673000017938,,,,,,,,,,,,,,,,,715,23,male,left_right_width,2024-08-26_17h02.48.035,exp1,2023.1.0,59.839713343737365,
,,,,,,,,,,,,,,,,3,8.2,10,11.8,0,0,1.8,1.55,0.25,3.85,10,match,36.05,296,361,425,0,0,9,9,9,0,0,,,,,,,4,0,4,0,0,22,22,49,,,,,,,,,,,,num_3,0.8394065000029514,num_3,0.55,0.7,0.30000000000000004,0.75,11.46165,28.65413,return,1.7777338000014424,,,,,,,,,,,,,,,,,715,23,male,left_right_width,2024-08-26_17h02.48.035,exp1,2023.1.0,59.839713343737365,
,,,,,,,,,,,,,,,,4,9.1,9.7,10.3,10.9,0,0.6000000000000001,0.20000000000000004,0.4,2.2,10,match,36.05,328,350,371,393,0,9,9,9,9,0,,,,,,,4,0,4,0,0,23,23,16,,,,,,,,,,,,num_4,0.7246500000037486,num_4,0.3,1.0,0.39999999999999997,0.6,15.2822,22.9233,return,2.034869400002208,,,,,,,,,,,,,,,,,715,23,male,left_right_width,2024-08-26_17h02.48.035,exp1,2023.1.0,59.839713343737365,
,,,,,,,,,,,,,,,,5,7.8,8.9,10,11.1,12.2,1.1,0.7000000000000001,0.4,4.800000000000001,10,initial,36.05,281,321,361,400,440,9,9,9,9,9,,,,,,,4,0,4,0,0,24,24,38,,,,,,,,,,,,num_4,0.7891844000005221,num_4,0.2,1.3,0.35,0.7,13.37193,26.74385,return,3.7825759000043035,,,,,,,,,,,,,,,,,715,23,male,left_right_width,2024-08-26_17h02.48.035,exp1,2023.1.0,59.839713343737365,
,,,,,,,,,,,,,,,,5,8.65,9.325,10,10.675,11.35,0.675,0.125,0.55,3.25,10,match,36.05,312,336,361,385,409,9,9,9,9,9,,,,,,,4,0,4,0,0,25,25,29,,,,,,,,,,,,num_5,0.7961488000000827,num_5,0.4,1.1,0.4,0.65,15.2822,24.83358,return,4.004540300000372,,,,,,,,,,,,,,,,,715,23,male,left_right_width,2024-08-26_17h02.48.035,exp1,2023.1.0,59.839713343737365,
,,,,,,,,,,,,,,,,4,8.35,9.45,10.55,11.65,0,1.1,0.55,0.55,3.8500000000000005,10,initial,36.05,301,341,380,420,0,9,9,9,9,0,,,,,,,4,0,4,0,0,26,26,17,,,,,,,,,,,,num_4,0.8675016000015603,num_4,0.35,0.4,0.35,0.7,13.37193,26.74385,return,2.5398316999999224,,,,,,,,,,,,,,,,,715,23,male,left_right_width,2024-08-26_17h02.48.035,exp1,2023.1.0,59.839713343737365,
,,,,,,,,,,,,,,,,5,8.275,9.1375,10,10.8625,11.725,0.8625,0.6125,0.25,3.7,10,match,36.05,298,329,361,392,423,9,9,9,9,9,,,,,,,4,0,4,0,0,27,27,22,,,,,,,,,,,,num_5,0.8495076000035624,num_5,0.3,1.3,0.3,0.7,11.46165,26.74385,return,3.4354162000017823,,,,,,,,,,,,,,,,,715,23,male,left_right_width,2024-08-26_17h02.48.035,exp1,2023.1.0,59.839713343737365,
,,,,,,,,,,,,,,,,3,8.9,10,11.1,0,0,1.1,0.7000000000000001,0.4,2.6000000000000005,10,initial,36.05,321,361,400,0,0,9,9,9,0,0,,,,,,,4,0,4,0,0,28,28,4,,,,,,,,,,,,num_3,0.8242148000026646,num_3,0.5,0.8,0.4,0.7,15.2822,26.74385,return,2.112842600003205,,,,,,,,,,,,,,,,,715,23,male,left_right_width,2024-08-26_17h02.48.035,exp1,2023.1.0,59.839713343737365,
,,,,,,,,,,,,,,,,4,8.65,9.55,10.45,11.35,0,0.9,0.65,0.25,2.95,10,initial,36.05,312,344,377,409,0,9,9,9,9,0,,,,,,,4,0,4,0,0,29,29,30,,,,,,,,,,,,num_4,0.7302959000044211,num_4,0.35,0.4,0.25,0.8,9.55138,30.5644,return,2.091547799998807,,,,,,,,,,,,,,,,,715,23,male,left_right_width,2024-08-26_17h02.48.035,exp1,2023.1.0,59.839713343737365,
,,,,,,,,,,,,,,,,3,8.2,10,11.8,0,0,1.8,1.25,0.55,4.15,10,match,36.05,296,361,425,0,0,9,9,9,0,0,,,,,,,4,0,4,0,0,30,30,47,,,,,,,,,,,,num_3,0.993674800000008,num_3,0.2,0.5,0.44999999999999996,0.95,17.19248,36.29523,return,3.048293100000592,,,,,,,,,,,,,,,,,715,23,male,left_right_width,2024-08-26_17h02.48.035,exp1,2023.1.0,59.839713343737365,
,,,,,,,,,,,,,,,,3,9.1,10,10.9,0,0,0.9,0.65,0.25,2.05,10,initial,36.05,328,361,393,0,0,9,9,9,0,0,,,,,,,4,0,4,0,0,31,31,13,,,,,,,,,,,,num_3,0.7802933999992092,num_3,0.2,1.3,0.3,1.3,11.46165,49.66716,return,1.4680942000013602,,,,,,,,,,,,,,,,,715,23,male,left_right_width,2024-08-26_17h02.48.035,exp1,2023.1.0,59.839713343737365,
,,,,,,,,,,,,,,,,4,8.9,9.633333333333333,10.366666666666667,11.1,0,0.7333333333333333,0.18333333333333326,0.55,2.75,10,match,36.05,321,347,374,400,0,9,9,9,9,0,,,,,,,4,0,4,0,0,32,32,1,,,,,,,,,,,,num_4,0.7993613000035111,num_4,0.55,0.8,0.30000000000000004,0.8,11.46165,30.5644,return,1.7053572000004351,,,,,,,,,,,,,,,,,715,23,male,left_right_width,2024-08-26_17h02.48.035,exp1,2023.1.0,59.839713343737365,
,,,,,,,,,,,,,,,,5,8.35,9.175,10,10.825,11.65,0.8250000000000001,0.275,0.55,3.85,10,match,36.05,301,331,361,390,420,9,9,9,9,9,,,,,,,4,0,4,0,0,33,33,18,,,,,,,,,,,,num_4,0.6996272000033059,num_4,0.3,0.6,0.35,0.9,13.37193,34.38495,return,1.6860546999996586,,,,,,,,,,,,,,,,,715,23,male,left_right_width,2024-08-26_17h02.48.035,exp1,2023.1.0,59.839713343737365,
,,,,,,,,,,,,,,,,3,8.9,10,11.1,0,0,1.1,0.8500000000000001,0.25,2.45,10,initial,36.05,321,361,400,0,0,9,9,9,0,0,,,,,,,4,0,4,0,0,34,34,2,,,,,,,,,,,,num_3,0.7718052000018361,num_3,0.25,0.4,0.2,0.7,7.6411,26.74385,return,1.617047800002183,,,,,,,,,,,,,,,,,715,23,male,left_right_width,2024-08-26_17h02.48.035,exp1,2023.1.0,59.839713343737365,
,,,,,,,,,,,,,,,,5,8.2,9.1,10,10.9,11.8,0.9,0.5,0.4,4,10,initial,36.05,296,328,361,393,425,9,9,9,9,9,,,,,,,4,0,4,0,0,35,35,50,,,,,,,,,,,,num_5,0.730751600003714,num_5,0.45,0.6,0.35000000000000003,0.7,13.37193,26.74385,return,1.4801600000027975,,,,,,,,,,,,,,,,,715,23,male,left_right_width,2024-08-26_17h02.48.035,exp1,2023.1.0,59.839713343737365,
,,,,,,,,,,,,,,,,4,9.1,9.7,10.3,10.9,0,0.6,0.04999999999999997,0.55,2.35,10,match,36.05,328,350,371,393,0,9,9,9,9,0,,,,,,,4,0,4,0,0,36,36,12,,,,,,,,,,,,num_4,0.9148740999989968,num_4,0.5,0.6,0.5,0.9,19.10275,34.38495,return,1.610163699999248,,,,,,,,,,,,,,,,,715,23,male,left_right_width,2024-08-26_17h02.48.035,exp1,2023.1.0,59.839713343737365,
,,,,,,,,,,,,,,,,4,8.65,9.55,10.45,11.35,0,0.9,0.35,0.55,3.25,10,initial,36.05,312,344,377,409,0,9,9,9,9,0,,,,,,,4,0,4,0,0,37,37,28,,,,,,,,,,,,num_4,0.7238560000041616,num_4,0.2,0.6,0.5499999999999999,0.7,21.01303,26.74385,return,1.9812306000021636,,,,,,,,,,,,,,,,,715,23,male,left_right_width,2024-08-26_17h02.48.035,exp1,2023.1.0,59.839713343737365,
,,,,,,,,,,,,,,,,4,9.3,9.766666666666667,10.233333333333333,10.7,0,0.4666666666666667,0.06666666666666665,0.4,1.8,10,match,36.05,335,352,369,386,0,9,9,9,9,0,,,,,,,4,0,4,0,0,38,38,10,,,,,,,,,,,,num_3,0.9529556000015873,num_3,0.25,0.6,0.5499999999999999,0.85,21.01303,32.47468,return,2.5894109000037133,,,,,,,,,,,,,,,,,715,23,male,left_right_width,2024-08-26_17h02.48.035,exp1,2023.1.0,59.839713343737365,
,,,,,,,,,,,,,,,,4,8.95,9.65,10.35,11.05,0,0.7,0.1499999999999999,0.55,2.65,10,initial,36.05,323,348,373,398,0,9,9,9,9,0,,,,,,,4,0,4,0,0,39,39,23,,,,,,,,,,,,num_3,0.8159739000002446,num_3,0.55,1,0.55,0.75,21.01303,28.65413,return,3.2750602000014624,,,,,,,,,,,,,,,,,715,23,male,left_right_width,2024-08-26_17h02.48.035,exp1,2023.1.0,59.839713343737365,
,,,,,,,,,,,,,,,,5,8.65,9.325,10,10.675,11.35,0.675,0.275,0.4,3.1,10,match,36.05,312,336,361,385,409,9,9,9,9,9,,,,,,,4,0,4,0,0,40,40,33,,,,,,,,,,,,num_4,0.8038440999989689,num_4,0.45,1.0,0.6000000000000001,1.0,22.9233,38.2055,return,1.3455376000019896,,,,,,,,,,,,,,,,,715,23,male,left_right_width,2024-08-26_17h02.48.035,exp1,2023.1.0,59.839713343737365,
,,,,,,,,,,,,,,,,3,9.1,10,10.9,0,0,0.9,0.5,0.4,2.2,10,initial,36.05,328,361,393,0,0,9,9,9,0,0,,,,,,,4,0,4,0,0,41,41,15,,,,,,,,,,,,num_3,0.6279238999995869,num_3,0.25,1.2,0.5499999999999999,0.85,21.01303,32.47468,return,3.059408600001916,,,,,,,,,,,,,,,,,715,23,male,left_right_width,2024-08-26_17h02.48.035,exp1,2023.1.0,59.839713343737365,
,,,,,,,,,,,,,,,,3,8.525,10,11.475,0,0,1.475,1.225,0.25,3.2,10,match,36.05,307,361,414,0,0,9,9,9,0,0,,,,,,,4,0,4,0,0,42,42,45,,,,,,,,,,,,num_3,0.8654427000037686,num_3,0.2,0.9,0.35,0.65,13.37193,24.83358,return,2.3003480000043055,,,,,,,,,,,,,,,,,715,23,male,left_right_width,2024-08-26_17h02.48.035,exp1,2023.1.0,59.839713343737365,
,,,,,,,,,,,,,,,,5,8.65,9.325,10,10.675,11.35,0.675,0.42500000000000004,0.25,2.95,10,match,36.05,312,336,361,385,409,9,9,9,9,9,,,,,,,4,0,4,0,0,43,43,31,,,,,,,,,,,,num_4,0.8207394000019121,num_4,0.25,0.3,0.35,0.8,13.37193,30.5644,return,3.5502244000017527,,,,,,,,,,,,,,,,,715,23,male,left_right_width,2024-08-26_17h02.48.035,exp1,2023.1.0,59.839713343737365,
,,,,,,,,,,,,,,,,5,8.6,9.3,10,10.7,11.4,0.7,0.29999999999999993,0.4,3.1999999999999997,10,initial,36.05,310,335,361,386,411,9,9,9,9,9,,,,,,,4,0,4,0,0,44,44,44,,,,,,,,,,,,num_5,0.9132167999996454,num_5,0.2,1.0,0.35,0.65,13.37193,24.83358,return,3.003253400001995,,,,,,,,,,,,,,,,,715,23,male,left_right_width,2024-08-26_17h02.48.035,exp1,2023.1.0,59.839713343737365,
,,,,,,,,,,,,,,,,3,8.9,10,11.1,0,0,1.1,0.55,0.55,2.75,10,initial,36.05,321,361,400,0,0,9,9,9,0,0,,,,,,,4,0,4,0,0,45,45,0,,,,,,,,,,,,num_3,0.7688037000007171,num_3,0.4,0.5,0.35000000000000003,0.6,13.37193,22.9233,return,1.7545260000042617,,,,,,,,,,,,,,,,,715,23,male,left_right_width,2024-08-26_17h02.48.035,exp1,2023.1.0,59.839713343737365,
,,,,,,,,,,,,,,,,5,8.2,9.1,10,10.9,11.8,0.9,0.35,0.55,4.15,10,initial,36.05,296,328,361,393,425,9,9,9,9,9,,,,,,,4,0,4,0,0,46,46,46,,,,,,,,,,,,num_4,0.9636300000020128,num_4,0.25,1.1,0.6,1.1,22.9233,42.02605,return,2.64625050000177,,,,,,,,,,,,,,,,,715,23,male,left_right_width,2024-08-26_17h02.48.035,exp1,2023.1.0,59.839713343737365,
,,,,,,,,,,,,,,,,4,8.825,9.608333333333333,10.391666666666667,11.175,0,0.7833333333333333,0.5333333333333333,0.25,2.6,10,match,36.05,318,346,375,403,0,9,9,9,9,0,,,,,,,4,0,4,0,0,47,47,5,,,,,,,,,,,,num_4,0.7722978000019793,num_4,0.2,1.1,0.44999999999999996,0.8,17.19248,30.5644,return,2.4947597999998834,,,,,,,,,,,,,,,,,715,23,male,left_right_width,2024-08-26_17h02.48.035,exp1,2023.1.0,59.839713343737365,
,,,,,,,,,,,,,,,,3,7.8,10,12.2,0,0,2.2,1.65,0.55,4.95,10,match,36.05,281,361,440,0,0,9,9,9,0,0,,,,,,,4,0,4,0,0,48,48,35,,,,,,,,,,,,num_3,0.8891997999999148,num_3,0.55,1.3,0.5,0.9,19.10275,34.38495,return,2.7484813000010035,,,,,,,,,,,,,,,,,715,23,male,left_right_width,2024-08-26_17h02.48.035,exp1,2023.1.0,59.839713343737365,
,,,,,,,,,,,,,,,,4,8.65,9.55,10.45,11.35,0,0.9,0.5,0.4,3.1,10,initial,36.05,312,344,377,409,0,9,9,9,9,0,,,,,,,4,0,4,0,0,49,49,32,,,,,,,,,,,,num_4,0.9630949000020337,num_4,0.35,1.2,0.44999999999999996,0.8,17.19248,30.5644,return,3.4798248000006424,,,,,,,,,,,,,,,,,715,23,male,left_right_width,2024-08-26_17h02.48.035,exp1,2023.1.0,59.839713343737365,
,,,,,,,,,,,,,,,,5,8.6,9.3,10,10.7,11.4,0.7,0.44999999999999996,0.25,3.05,10,initial,36.05,310,335,361,386,411,9,9,9,9,9,,,,,,,4,0,4,0,0,50,50,42,,,,,,,,,,,,num_6,1.0217601000003924,num_6,0.55,0.6,0.10000000000000007,0.5,3.82055,19.10275,return,2.85203520000141,,,,,,,,,,,,,,,,,715,23,male,left_right_width,2024-08-26_17h02.48.035,exp1,2023.1.0,59.839713343737365,
,,,,,,,,,,,,,,,,4,8.95,9.65,10.35,11.05,0,0.7,0.29999999999999993,0.4,2.5,10,initial,36.05,323,348,373,398,0,9,9,9,9,0,,,,,,,4,0,4,0,0,51,51,26,,,,,,,,,,,,num_4,0.8753703000038513,num_4,0.5,1.2,0.30000000000000004,1.0,11.46165,38.2055,return,1.8433568000000378,,,,,,,,,,,,,,,,,715,23,male,left_right_width,2024-08-26_17h02.48.035,exp1,2023.1.0,59.839713343737365,
,,,,,,,,,,,,,,,,,,,,,,,,,,,,,,,,,,,,,,,,,,,,,4,0,4,0,,,,,,,,,,,,,,,,,,,,,,,,,,,,,2208.4473021000013,2208.4473021000013,2208.4473021000013,,,,,,,,,,,,715,23,male,left_right_width,2024-08-26_17h02.48.035,exp1,2023.1.0,59.839713343737365,
,,,,,,,,,,,,,,,,5,8.6,9.3,10,10.7,11.4,0.7,0.44999999999999996,0.25,3.05,10,initial,36.05,310,335,361,386,411,9,9,9,9,9,,,,,,,5,0,5,0,0,0,0,42,,,,,,,,,,,,num_5,0.7427588000027754,num_5,0.4,0.6,0.30000000000000004,0.6,11.46165,22.9233,return,1.2319486000014876,,,,,,,,,,,,,,,,,715,23,male,left_right_width,2024-08-26_17h02.48.035,exp1,2023.1.0,59.839713343737365,
,,,,,,,,,,,,,,,,3,8.2,10,11.8,0,0,1.8,1.25,0.55,4.15,10,match,36.05,296,361,425,0,0,9,9,9,0,0,,,,,,,5,0,5,0,0,1,1,47,,,,,,,,,,,,num_4,0.8627331000025151,num_4,0.25,1.2,0.6,0.9,22.9233,34.38495,return,3.366199300002336,,,,,,,,,,,,,,,,,715,23,male,left_right_width,2024-08-26_17h02.48.035,exp1,2023.1.0,59.839713343737365,
,,,,,,,,,,,,,,,,4,8.35,9.45,10.55,11.65,0,1.1,0.7000000000000001,0.4,3.7,10,initial,36.05,301,341,380,420,0,9,9,9,9,0,,,,,,,5,0,5,0,0,2,2,21,,,,,,,,,,,,num_4,0.7326414000017394,num_4,0.4,0.6,0.4,1.0,15.2822,38.2055,return,1.4511472000012873,,,,,,,,,,,,,,,,,715,23,male,left_right_width,2024-08-26_17h02.48.035,exp1,2023.1.0,59.839713343737365,
,,,,,,,,,,,,,,,,4,8.65,9.55,10.45,11.35,0,0.9,0.5,0.4,3.1,10,initial,36.05,312,344,377,409,0,9,9,9,9,0,,,,,,,5,0,5,0,0,3,3,32,,,,,,,,,,,,num_4,0.6998538000007102,num_4,0.3,0.7,0.3,1.0,11.46165,38.2055,return,0.8326521000017237,,,,,,,,,,,,,,,,,715,23,male,left_right_width,2024-08-26_17h02.48.035,exp1,2023.1.0,59.839713343737365,
,,,,,,,,,,,,,,,,4,8.825,9.608333333333333,10.391666666666667,11.175,0,0.7833333333333333,0.5333333333333333,0.25,2.6,10,match,36.05,318,346,375,403,0,9,9,9,9,0,,,,,,,5,0,5,0,0,4,4,5,,,,,,,,,,,,num_4,0.6161212000006344,num_4,0.5,0.7,0.25000000000000006,0.7,9.55138,26.74385,return,2.280436600001849,,,,,,,,,,,,,,,,,715,23,male,left_right_width,2024-08-26_17h02.48.035,exp1,2023.1.0,59.839713343737365,
,,,,,,,,,,,,,,,,5,8.65,9.325,10,10.675,11.35,0.675,0.42500000000000004,0.25,2.95,10,match,36.05,312,336,361,385,409,9,9,9,9,9,,,,,,,5,0,5,0,0,5,5,31,,,,,,,,,,,,num_4,0.6940340000037395,num_4,0.25,1.1,0.2,0.8,7.6411,30.5644,return,1.6407442999989144,,,,,,,,,,,,,,,,,715,23,male,left_right_width,2024-08-26_17h02.48.035,exp1,2023.1.0,59.839713343737365,
