"","amount_p","posx1_p","posx2_p","posx3_p","posx4_p","posx5_p","center_to_center_p","edge_to_edge_p","w_p","stim_lengt_p","eccentricity_p","line1_p","line2_p","line3_p","line4_p","line5_p","amount","posx1","posx2","posx3","posx4","posx5","center_to_center","edge_to_edge","w","stim_length","eccentricity","trial_type","deg_to_pix_index","posx1_in_pix","posx2_in_pix","posx3_in_pix","posx4_in_pix","posx5_in_pix","line1","line2","line3","line4","line5","posx","setsize_cobdi","trials.thisRepN","trials.thisTrialN","trials.thisN","trials.thisIndex","blocks.thisRepN","blocks.thisTrialN","blocks.thisN","blocks.thisIndex","loop.thisRepN","loop.thisTrialN","loop.thisN","loop.thisIndex","first.thisRepN","first.thisTrialN","first.thisN","first.thisIndex","second.thisRepN","second.thisTrialN","second.thisN","second.thisIndex","key_resp_3.started","key_resp_3.keys","key_resp_3.rt","key_resp.keys","key_resp.rt","response","starting_width_deg","starting_space_deg","response_width_degree","response_spacing_degree","response_width_pixel","response_spacing_pixel","next_5.keys","next_5.rt","key_resp_4.keys","key_resp_4.rt","text_3.started","text_4.started","key_resp_2.started","text_2.started","key_resp_2.keys","key_resp_2.rt","adjusting.started","next.keys","next.rt","text_control2.started","key_resp.started","key_resp.corr","text_bye.started","text_bye.stopped","participant","age","gender","resp_group","date","expName","psychopyVersion","frameRate","...100"
"1",NA,NA,NA,NA,NA,NA,NA,NA,NA,NA,NA,NA,NA,NA,NA,NA,NA,NA,NA,NA,NA,NA,NA,NA,NA,NA,NA,NA,NA,NA,NA,NA,NA,NA,NA,NA,NA,NA,NA,NA,NA,NA,NA,NA,NA,NA,NA,NA,NA,NA,NA,NA,NA,NA,NA,NA,NA,NA,NA,NA,NA,31.6714358000027,"c",148.504391499999,NA,NA,NA,NA,NA,NA,NA,NA,NA,NA,NA,NA,NA,NA,NA,NA,NA,NA,NA,NA,NA,NA,NA,NA,NA,NA,NA,716,21,"female","left_right_width","2024-08-27_12h59.14.923","exp1","2023.1.0",60.0698371965243,NA
"2",3,9.5,10,10.5,0,0,0.5,0.4,0.1,1.1,10,9,9,9,0,0,NA,NA,NA,NA,NA,NA,NA,NA,NA,NA,NA,NA,NA,NA,NA,NA,NA,NA,NA,NA,NA,NA,NA,NA,NA,0,0,0,0,NA,NA,NA,NA,NA,NA,NA,NA,NA,NA,NA,NA,NA,NA,NA,NA,NA,NA,NA,"num_2",4.60577979999653,"num_2",0.5,0.6,0.3,0.6,11.46165,22.9233,"return",12.8691341000085,NA,NA,NA,NA,NA,NA,NA,NA,NA,NA,NA,NA,NA,NA,NA,NA,716,21,"female","left_right_width","2024-08-27_12h59.14.923","exp1","2023.1.0",60.0698371965243,NA
"3",5,9.25,9.625,10,10.375,10.75,0.375,0.125,0.25,1.75,10,9,9,9,9,9,NA,NA,NA,NA,NA,NA,NA,NA,NA,NA,NA,NA,NA,NA,NA,NA,NA,NA,NA,NA,NA,NA,NA,NA,NA,0,1,1,6,NA,NA,NA,NA,NA,NA,NA,NA,NA,NA,NA,NA,NA,NA,NA,NA,NA,NA,NA,"num_3",2.30304099999194,"num_3",0.4,0.6,0.5,0.6,19.10275,22.9233,"return",4.91312270000344,NA,NA,NA,NA,NA,NA,NA,NA,NA,NA,NA,NA,NA,NA,NA,NA,716,21,"female","left_right_width","2024-08-27_12h59.14.923","exp1","2023.1.0",60.0698371965243,NA
"4",4,8.65,9.55,10.45,11.35,0,0.9,0.5,0.4,3.1,10,9,9,9,9,0,NA,NA,NA,NA,NA,NA,NA,NA,NA,NA,NA,NA,NA,NA,NA,NA,NA,NA,NA,NA,NA,NA,NA,NA,NA,0,2,2,5,NA,NA,NA,NA,NA,NA,NA,NA,NA,NA,NA,NA,NA,NA,NA,NA,NA,NA,NA,"num_4",2.65579809999326,"num_4",0.45,1.1,0.4,1.1,15.2822,42.02605,"return",6.38833620000514,NA,NA,NA,NA,NA,NA,NA,NA,NA,NA,NA,NA,NA,NA,NA,NA,716,21,"female","left_right_width","2024-08-27_12h59.14.923","exp1","2023.1.0",60.0698371965243,NA
"5",4,9.5,9.83333333333333,10.1666666666667,10.5,0,0.333333333333333,0.233333333333333,0.1,1.1,10,9,9,9,9,0,NA,NA,NA,NA,NA,NA,NA,NA,NA,NA,NA,NA,NA,NA,NA,NA,NA,NA,NA,NA,NA,NA,NA,NA,NA,0,3,3,3,NA,NA,NA,NA,NA,NA,NA,NA,NA,NA,NA,NA,NA,NA,NA,NA,NA,NA,NA,"num_4",3.65109289999236,"num_4",0.4,0.5,0.25,0.5,9.55138,19.10275,"return",10.953271099992,NA,NA,NA,NA,NA,NA,NA,NA,NA,NA,NA,NA,NA,NA,NA,NA,716,21,"female","left_right_width","2024-08-27_12h59.14.923","exp1","2023.1.0",60.0698371965243,NA
"6",4,9.25,9.75,10.25,10.75,0,0.5,0.25,0.25,1.75,10,9,9,9,9,0,NA,NA,NA,NA,NA,NA,NA,NA,NA,NA,NA,NA,NA,NA,NA,NA,NA,NA,NA,NA,NA,NA,NA,NA,NA,0,4,4,4,NA,NA,NA,NA,NA,NA,NA,NA,NA,NA,NA,NA,NA,NA,NA,NA,NA,NA,NA,"num_4",4.46447510000144,"num_4",0.45,0.7,0.45,0.7,17.19248,26.74385,"return",5.29883749999863,NA,NA,NA,NA,NA,NA,NA,NA,NA,NA,NA,NA,NA,NA,NA,NA,716,21,"female","left_right_width","2024-08-27_12h59.14.923","exp1","2023.1.0",60.0698371965243,NA
"7",5,9,9.5,10,10.5,11,0.5,0.1,0.4,2.4,10,9,9,9,9,9,NA,NA,NA,NA,NA,NA,NA,NA,NA,NA,NA,NA,NA,NA,NA,NA,NA,NA,NA,NA,NA,NA,NA,NA,NA,0,5,5,8,NA,NA,NA,NA,NA,NA,NA,NA,NA,NA,NA,NA,NA,NA,NA,NA,NA,NA,NA,"num_4",3.49911249999423,"num_4",0.25,0.3,0.2,0.3,7.6411,11.46165,"return",13.4835023999913,NA,NA,NA,NA,NA,NA,NA,NA,NA,NA,NA,NA,NA,NA,NA,NA,716,21,"female","left_right_width","2024-08-27_12h59.14.923","exp1","2023.1.0",60.0698371965243,NA
"8",3,9,10,11,0,0,1,0.9,0.1,2.1,10,9,9,9,0,0,NA,NA,NA,NA,NA,NA,NA,NA,NA,NA,NA,NA,NA,NA,NA,NA,NA,NA,NA,NA,NA,NA,NA,NA,NA,0,6,6,1,NA,NA,NA,NA,NA,NA,NA,NA,NA,NA,NA,NA,NA,NA,NA,NA,NA,NA,NA,"num_4",2.00693150000006,"num_4",0.55,1.2,0.1,1.2,3.82055,45.8466,"return",3.78220270000747,NA,NA,NA,NA,NA,NA,NA,NA,NA,NA,NA,NA,NA,NA,NA,NA,716,21,"female","left_right_width","2024-08-27_12h59.14.923","exp1","2023.1.0",60.0698371965243,NA
"9",3,8.2,10,11.8,0,0,1.8,1.4,0.4,4,10,9,9,9,0,0,NA,NA,NA,NA,NA,NA,NA,NA,NA,NA,NA,NA,NA,NA,NA,NA,NA,NA,NA,NA,NA,NA,NA,NA,NA,0,7,7,2,NA,NA,NA,NA,NA,NA,NA,NA,NA,NA,NA,NA,NA,NA,NA,NA,NA,NA,NA,"num_3",2.15893219999271,"num_3",0.2,0.4,0.25,0.4,9.55138,15.2822,"return",7.08972779999021,NA,NA,NA,NA,NA,NA,NA,NA,NA,NA,NA,NA,NA,NA,NA,NA,716,21,"female","left_right_width","2024-08-27_12h59.14.923","exp1","2023.1.0",60.0698371965243,NA
"10",5,8.6,9.3,10,10.7,11.4,0.7,0.3,0.4,3.2,10,9,9,9,9,9,NA,NA,NA,NA,NA,NA,NA,NA,NA,NA,NA,NA,NA,NA,NA,NA,NA,NA,NA,NA,NA,NA,NA,NA,NA,0,8,8,7,NA,NA,NA,NA,NA,NA,NA,NA,NA,NA,NA,NA,NA,NA,NA,NA,NA,NA,NA,"num_5",4.75567559999763,"num_5",0.35,0.5,0.25,0.5,9.55138,19.10275,"return",3.843463600002,NA,NA,NA,NA,NA,NA,NA,NA,NA,NA,NA,NA,NA,NA,NA,NA,716,21,"female","left_right_width","2024-08-27_12h59.14.923","exp1","2023.1.0",60.0698371965243,NA
"11",NA,NA,NA,NA,NA,NA,NA,NA,NA,NA,NA,NA,NA,NA,NA,NA,NA,NA,NA,NA,NA,NA,NA,NA,NA,NA,NA,NA,NA,NA,NA,NA,NA,NA,NA,NA,NA,NA,NA,NA,NA,NA,NA,NA,NA,NA,NA,NA,NA,NA,NA,NA,NA,NA,NA,NA,NA,NA,NA,NA,NA,NA,NA,NA,NA,NA,NA,NA,NA,NA,NA,NA,NA,NA,NA,"c",180.8084638,NA,NA,NA,NA,NA,NA,NA,NA,NA,NA,NA,NA,NA,NA,716,21,"female","left_right_width","2024-08-27_12h59.14.923","exp1","2023.1.0",60.0698371965243,NA
"12",NA,NA,NA,NA,NA,NA,NA,NA,NA,NA,NA,NA,NA,NA,NA,NA,5,7.8,8.9,10,11.1,12.2,1.1,0.7,0.4,4.8,10,"initial",36.05,281,321,361,400,440,9,9,9,9,9,NA,NA,NA,NA,NA,NA,0,0,0,0,0,0,0,38,NA,NA,NA,NA,NA,NA,NA,NA,NA,NA,NA,"num_4",1.79654029999801,"num_4",0.4,0.7,0.3,0.7,11.46165,26.74385,"return",5.92550430000119,NA,NA,NA,NA,NA,NA,NA,NA,NA,NA,NA,NA,NA,NA,NA,NA,716,21,"female","left_right_width","2024-08-27_12h59.14.923","exp1","2023.1.0",60.0698371965243,NA
"13",NA,NA,NA,NA,NA,NA,NA,NA,NA,NA,NA,NA,NA,NA,NA,NA,4,8.65,9.55,10.45,11.35,0,0.9,0.65,0.25,2.95,10,"initial",36.05,312,344,377,409,0,9,9,9,9,0,NA,NA,NA,NA,NA,NA,0,0,0,0,0,1,1,30,NA,NA,NA,NA,NA,NA,NA,NA,NA,NA,NA,"num_4",3.39418810000643,"num_4",0.2,0.4,0.15,0.4,5.73083,15.2822,"return",3.38441520000924,NA,NA,NA,NA,NA,NA,NA,NA,NA,NA,NA,NA,NA,NA,NA,NA,716,21,"female","left_right_width","2024-08-27_12h59.14.923","exp1","2023.1.0",60.0698371965243,NA
"14",NA,NA,NA,NA,NA,NA,NA,NA,NA,NA,NA,NA,NA,NA,NA,NA,5,8.2,9.1,10,10.9,11.8,0.9,0.65,0.25,3.85,10,"initial",36.05,296,328,361,393,425,9,9,9,9,9,NA,NA,NA,NA,NA,NA,0,0,0,0,0,2,2,48,NA,NA,NA,NA,NA,NA,NA,NA,NA,NA,NA,"num_4",3.89147239999147,"num_4",0.5,0.9,0.35,0.9,13.37193,34.38495,"return",3.45932399999583,NA,NA,NA,NA,NA,NA,NA,NA,NA,NA,NA,NA,NA,NA,NA,NA,716,21,"female","left_right_width","2024-08-27_12h59.14.923","exp1","2023.1.0",60.0698371965243,NA
"15",NA,NA,NA,NA,NA,NA,NA,NA,NA,NA,NA,NA,NA,NA,NA,NA,4,8.35,9.45,10.55,11.65,0,1.1,0.7,0.4,3.7,10,"initial",36.05,301,341,380,420,0,9,9,9,9,0,NA,NA,NA,NA,NA,NA,0,0,0,0,0,3,3,21,NA,NA,NA,NA,NA,NA,NA,NA,NA,NA,NA,"num_3",1.4522588999971,"num_3",0.25,0.5,0.25,0.5,9.55138,19.10275,"return",3.24791199999163,NA,NA,NA,NA,NA,NA,NA,NA,NA,NA,NA,NA,NA,NA,NA,NA,716,21,"female","left_right_width","2024-08-27_12h59.14.923","exp1","2023.1.0",60.0698371965243,NA
"16",NA,NA,NA,NA,NA,NA,NA,NA,NA,NA,NA,NA,NA,NA,NA,NA,5,8.65,9.325,10,10.675,11.35,0.675,0.425,0.25,2.95,10,"match",36.05,312,336,361,385,409,9,9,9,9,9,NA,NA,NA,NA,NA,NA,0,0,0,0,0,4,4,31,NA,NA,NA,NA,NA,NA,NA,NA,NA,NA,NA,"num_4",1.97781640000176,"num_4",0.3,1,0.35,1,13.37193,38.2055,"return",5.87664410000434,NA,NA,NA,NA,NA,NA,NA,NA,NA,NA,NA,NA,NA,NA,NA,NA,716,21,"female","left_right_width","2024-08-27_12h59.14.923","exp1","2023.1.0",60.0698371965243,NA
"17",NA,NA,NA,NA,NA,NA,NA,NA,NA,NA,NA,NA,NA,NA,NA,NA,4,8.65,9.55,10.45,11.35,0,0.9,0.35,0.55,3.25,10,"initial",36.05,312,344,377,409,0,9,9,9,9,0,NA,NA,NA,NA,NA,NA,0,0,0,0,0,5,5,28,NA,NA,NA,NA,NA,NA,NA,NA,NA,NA,NA,"num_4",1.70623860000342,"num_4",0.2,0.7,0.4,0.7,15.2822,26.74385,"return",4.25887689999945,NA,NA,NA,NA,NA,NA,NA,NA,NA,NA,NA,NA,NA,NA,NA,NA,716,21,"female","left_right_width","2024-08-27_12h59.14.923","exp1","2023.1.0",60.0698371965243,NA
"18",NA,NA,NA,NA,NA,NA,NA,NA,NA,NA,NA,NA,NA,NA,NA,NA,4,9.1,9.7,10.3,10.9,0,0.6,0.05,0.55,2.35,10,"match",36.05,328,350,371,393,0,9,9,9,9,0,NA,NA,NA,NA,NA,NA,0,0,0,0,0,6,6,12,NA,NA,NA,NA,NA,NA,NA,NA,NA,NA,NA,"num_3",3.45414940000046,"num_3",0.2,1,0.85,1,32.47468,38.2055,"return",7.12045570000191,NA,NA,NA,NA,NA,NA,NA,NA,NA,NA,NA,NA,NA,NA,NA,NA,716,21,"female","left_right_width","2024-08-27_12h59.14.923","exp1","2023.1.0",60.0698371965243,NA
"19",NA,NA,NA,NA,NA,NA,NA,NA,NA,NA,NA,NA,NA,NA,NA,NA,3,8.2,10,11.8,0,0,1.8,1.25,0.55,4.15,10,"match",36.05,296,361,425,0,0,9,9,9,0,0,NA,NA,NA,NA,NA,NA,0,0,0,0,0,7,7,47,NA,NA,NA,NA,NA,NA,NA,NA,NA,NA,NA,"num_3",1.91338169999653,"num_3",0.2,1.2,0.6,1.2,22.9233,45.8466,"return",6.08659099999932,NA,NA,NA,NA,NA,NA,NA,NA,NA,NA,NA,NA,NA,NA,NA,NA,716,21,"female","left_right_width","2024-08-27_12h59.14.923","exp1","2023.1.0",60.0698371965243,NA
"20",NA,NA,NA,NA,NA,NA,NA,NA,NA,NA,NA,NA,NA,NA,NA,NA,5,8.95,9.475,10,10.525,11.05,0.525,0.125,0.4,2.5,10,"match",36.05,323,342,361,379,398,9,9,9,9,9,NA,NA,NA,NA,NA,NA,0,0,0,0,0,8,8,27,NA,NA,NA,NA,NA,NA,NA,NA,NA,NA,NA,"num_4",1.66303969999717,"num_4",0.35,1.2,0.55,0.8,21.01303,30.5644,"return",13.5273396999983,NA,NA,NA,NA,NA,NA,NA,NA,NA,NA,NA,NA,NA,NA,NA,NA,716,21,"female","left_right_width","2024-08-27_12h59.14.923","exp1","2023.1.0",60.0698371965243,NA
"21",NA,NA,NA,NA,NA,NA,NA,NA,NA,NA,NA,NA,NA,NA,NA,NA,3,8.6,10,11.4,0,0,1.4,0.85,0.55,3.35,10,"match",36.05,310,361,411,0,0,9,9,9,0,0,NA,NA,NA,NA,NA,NA,0,0,0,0,0,9,9,41,NA,NA,NA,NA,NA,NA,NA,NA,NA,NA,NA,"num_3",1.88039410000783,"num_3",0.45,0.7,0.55,1.15,21.01303,43.93633,"return",10.5501027999999,NA,NA,NA,NA,NA,NA,NA,NA,NA,NA,NA,NA,NA,NA,NA,NA,716,21,"female","left_right_width","2024-08-27_12h59.14.923","exp1","2023.1.0",60.0698371965243,NA
"22",NA,NA,NA,NA,NA,NA,NA,NA,NA,NA,NA,NA,NA,NA,NA,NA,4,8.9,9.63333333333333,10.3666666666667,11.1,0,0.733333333333333,0.183333333333333,0.55,2.75,10,"match",36.05,321,347,374,400,0,9,9,9,9,0,NA,NA,NA,NA,NA,NA,0,0,0,0,0,10,10,1,NA,NA,NA,NA,NA,NA,NA,NA,NA,NA,NA,"num_3",2.20602430000145,"num_3",0.2,0.3,0.55,0.75,21.01303,28.65413,"return",14.9135889000027,NA,NA,NA,NA,NA,NA,NA,NA,NA,NA,NA,NA,NA,NA,NA,NA,716,21,"female","left_right_width","2024-08-27_12h59.14.923","exp1","2023.1.0",60.0698371965243,NA
"23",NA,NA,NA,NA,NA,NA,NA,NA,NA,NA,NA,NA,NA,NA,NA,NA,4,8.95,9.65,10.35,11.05,0,0.7,0.15,0.55,2.65,10,"initial",36.05,323,348,373,398,0,9,9,9,9,0,NA,NA,NA,NA,NA,NA,0,0,0,0,0,11,11,23,NA,NA,NA,NA,NA,NA,NA,NA,NA,NA,NA,"num_3",1.58274219998566,"num_3",0.5,0.9,0.65,0.8,24.83358,30.5644,"return",3.72419439999794,NA,NA,NA,NA,NA,NA,NA,NA,NA,NA,NA,NA,NA,NA,NA,NA,716,21,"female","left_right_width","2024-08-27_12h59.14.923","exp1","2023.1.0",60.0698371965243,NA
"24",NA,NA,NA,NA,NA,NA,NA,NA,NA,NA,NA,NA,NA,NA,NA,NA,5,8.35,9.175,10,10.825,11.65,0.825,0.575,0.25,3.55,10,"match",36.05,301,331,361,390,420,9,9,9,9,9,NA,NA,NA,NA,NA,NA,0,0,0,0,0,12,12,20,NA,NA,NA,NA,NA,NA,NA,NA,NA,NA,NA,"num_3",2.08512899999914,"num_3",0.45,0.6,0.15,0.85,5.73083,32.47468,"return",10.8142959999968,NA,NA,NA,NA,NA,NA,NA,NA,NA,NA,NA,NA,NA,NA,NA,NA,716,21,"female","left_right_width","2024-08-27_12h59.14.923","exp1","2023.1.0",60.0698371965243,NA
"25",NA,NA,NA,NA,NA,NA,NA,NA,NA,NA,NA,NA,NA,NA,NA,NA,4,8.825,9.60833333333333,10.3916666666667,11.175,0,0.783333333333333,0.533333333333333,0.25,2.6,10,"match",36.05,318,346,375,403,0,9,9,9,9,0,NA,NA,NA,NA,NA,NA,0,0,0,0,0,13,13,5,NA,NA,NA,NA,NA,NA,NA,NA,NA,NA,NA,"num_3",1.91749349999009,"num_3",0.55,0.6,0.2,0.9,7.6411,34.38495,"return",10.1392682000005,NA,NA,NA,NA,NA,NA,NA,NA,NA,NA,NA,NA,NA,NA,NA,NA,716,21,"female","left_right_width","2024-08-27_12h59.14.923","exp1","2023.1.0",60.0698371965243,NA
"26",NA,NA,NA,NA,NA,NA,NA,NA,NA,NA,NA,NA,NA,NA,NA,NA,4,8.65,9.55,10.45,11.35,0,0.9,0.5,0.4,3.1,10,"initial",36.05,312,344,377,409,0,9,9,9,9,0,NA,NA,NA,NA,NA,NA,0,0,0,0,0,14,14,32,NA,NA,NA,NA,NA,NA,NA,NA,NA,NA,NA,"num_3",1.93119100001059,"num_3",0.55,0.8,0.4,0.9,15.2822,34.38495,"return",11.2614199999953,NA,NA,NA,NA,NA,NA,NA,NA,NA,NA,NA,NA,NA,NA,NA,NA,716,21,"female","left_right_width","2024-08-27_12h59.14.923","exp1","2023.1.0",60.0698371965243,NA
"27",NA,NA,NA,NA,NA,NA,NA,NA,NA,NA,NA,NA,NA,NA,NA,NA,3,7.8,10,12.2,0,0,2.2,1.8,0.4,4.8,10,"match",36.05,281,361,440,0,0,9,9,9,0,0,NA,NA,NA,NA,NA,NA,0,0,0,0,0,15,15,39,NA,NA,NA,NA,NA,NA,NA,NA,NA,NA,NA,"num_3",1.60812679999799,"num_3",0.25,0.7,0.3,1.75,11.46165,66.85963,"return",11.6960816000064,NA,NA,NA,NA,NA,NA,NA,NA,NA,NA,NA,NA,NA,NA,NA,NA,716,21,"female","left_right_width","2024-08-27_12h59.14.923","exp1","2023.1.0",60.0698371965243,NA
"28",NA,NA,NA,NA,NA,NA,NA,NA,NA,NA,NA,NA,NA,NA,NA,NA,3,7.8,10,12.2,0,0,2.2,1.95,0.25,4.65,10,"match",36.05,281,361,440,0,0,9,9,9,0,0,NA,NA,NA,NA,NA,NA,0,0,0,0,0,16,16,37,NA,NA,NA,NA,NA,NA,NA,NA,NA,NA,NA,"num_3",1.6688725999993,"num_3",0.55,0.7,0.15,1.75,5.73083,66.85963,"return",15.985197499991,NA,NA,NA,NA,NA,NA,NA,NA,NA,NA,NA,NA,NA,NA,NA,NA,716,21,"female","left_right_width","2024-08-27_12h59.14.923","exp1","2023.1.0",60.0698371965243,NA
"29",NA,NA,NA,NA,NA,NA,NA,NA,NA,NA,NA,NA,NA,NA,NA,NA,3,8.9,10,11.1,0,0,1.1,0.7,0.4,2.6,10,"initial",36.05,321,361,400,0,0,9,9,9,0,0,NA,NA,NA,NA,NA,NA,0,0,0,0,0,17,17,4,NA,NA,NA,NA,NA,NA,NA,NA,NA,NA,NA,"num_3",1.43394250000711,"num_3",0.4,1.1,0.35,1,13.37193,38.2055,"return",5.62608299999556,NA,NA,NA,NA,NA,NA,NA,NA,NA,NA,NA,NA,NA,NA,NA,NA,716,21,"female","left_right_width","2024-08-27_12h59.14.923","exp1","2023.1.0",60.0698371965243,NA
"30",NA,NA,NA,NA,NA,NA,NA,NA,NA,NA,NA,NA,NA,NA,NA,NA,3,9.1,10,10.9,0,0,0.9,0.35,0.55,2.35,10,"initial",36.05,328,361,393,0,0,9,9,9,0,0,NA,NA,NA,NA,NA,NA,0,0,0,0,0,18,18,11,NA,NA,NA,NA,NA,NA,NA,NA,NA,NA,NA,"num_3",1.21101499999349,"num_3",0.5,0.6,0.45,0.95,17.19248,36.29523,"return",5.12746159998642,NA,NA,NA,NA,NA,NA,NA,NA,NA,NA,NA,NA,NA,NA,NA,NA,716,21,"female","left_right_width","2024-08-27_12h59.14.923","exp1","2023.1.0",60.0698371965243,NA
"31",NA,NA,NA,NA,NA,NA,NA,NA,NA,NA,NA,NA,NA,NA,NA,NA,3,9.3,10,10.7,0,0,0.7,0.45,0.25,1.65,10,"initial",36.05,335,361,386,0,0,9,9,9,0,0,NA,NA,NA,NA,NA,NA,0,0,0,0,0,19,19,7,NA,NA,NA,NA,NA,NA,NA,NA,NA,NA,NA,"num_3",1.28401659999508,"num_3",0.3,0.4,0.3,0.95,11.46165,36.29523,"return",5.38580139999976,NA,NA,NA,NA,NA,NA,NA,NA,NA,NA,NA,NA,NA,NA,NA,NA,716,21,"female","left_right_width","2024-08-27_12h59.14.923","exp1","2023.1.0",60.0698371965243,NA
"32",NA,NA,NA,NA,NA,NA,NA,NA,NA,NA,NA,NA,NA,NA,NA,NA,5,8.2,9.1,10,10.9,11.8,0.9,0.5,0.4,4,10,"initial",36.05,296,328,361,393,425,9,9,9,9,9,NA,NA,NA,NA,NA,NA,0,0,0,0,0,20,20,50,NA,NA,NA,NA,NA,NA,NA,NA,NA,NA,NA,"num_4",1.81585679999262,"num_4",0.4,0.7,0.35,0.8,13.37193,30.5644,"return",5.38410299998941,NA,NA,NA,NA,NA,NA,NA,NA,NA,NA,NA,NA,NA,NA,NA,NA,716,21,"female","left_right_width","2024-08-27_12h59.14.923","exp1","2023.1.0",60.0698371965243,NA
"33",NA,NA,NA,NA,NA,NA,NA,NA,NA,NA,NA,NA,NA,NA,NA,NA,3,8.2,10,11.8,0,0,1.8,1.4,0.4,4,10,"match",36.05,296,361,425,0,0,9,9,9,0,0,NA,NA,NA,NA,NA,NA,0,0,0,0,0,21,21,51,NA,NA,NA,NA,NA,NA,NA,NA,NA,NA,NA,"num_3",2.40082310000435,"num_3",0.2,1.1,0.3,1.2,11.46165,45.8466,"return",6.01001729999552,NA,NA,NA,NA,NA,NA,NA,NA,NA,NA,NA,NA,NA,NA,NA,NA,716,21,"female","left_right_width","2024-08-27_12h59.14.923","exp1","2023.1.0",60.0698371965243,NA
"34",NA,NA,NA,NA,NA,NA,NA,NA,NA,NA,NA,NA,NA,NA,NA,NA,3,9.1,10,10.9,0,0,0.9,0.65,0.25,2.05,10,"initial",36.05,328,361,393,0,0,9,9,9,0,0,NA,NA,NA,NA,NA,NA,0,0,0,0,0,22,22,13,NA,NA,NA,NA,NA,NA,NA,NA,NA,NA,NA,"num_3",1.32982149999589,"num_3",0.45,0.6,0.25,0.85,9.55138,32.47468,"return",5.10917989999871,NA,NA,NA,NA,NA,NA,NA,NA,NA,NA,NA,NA,NA,NA,NA,NA,716,21,"female","left_right_width","2024-08-27_12h59.14.923","exp1","2023.1.0",60.0698371965243,NA
"35",NA,NA,NA,NA,NA,NA,NA,NA,NA,NA,NA,NA,NA,NA,NA,NA,5,8.6,9.3,10,10.7,11.4,0.7,0.3,0.4,3.2,10,"initial",36.05,310,335,361,386,411,9,9,9,9,9,NA,NA,NA,NA,NA,NA,0,0,0,0,0,23,23,44,NA,NA,NA,NA,NA,NA,NA,NA,NA,NA,NA,"num_4",1.60707869999169,"num_4",0.4,0.6,0.3,0.5,11.46165,19.10275,"return",6.37213209999027,NA,NA,NA,NA,NA,NA,NA,NA,NA,NA,NA,NA,NA,NA,NA,NA,716,21,"female","left_right_width","2024-08-27_12h59.14.923","exp1","2023.1.0",60.0698371965243,NA
"36",NA,NA,NA,NA,NA,NA,NA,NA,NA,NA,NA,NA,NA,NA,NA,NA,3,8.9,10,11.1,0,0,1.1,0.85,0.25,2.45,10,"initial",36.05,321,361,400,0,0,9,9,9,0,0,NA,NA,NA,NA,NA,NA,0,0,0,0,0,24,24,2,NA,NA,NA,NA,NA,NA,NA,NA,NA,NA,NA,"num_3",1.83769949999987,"num_3",0.35,0.9,0.2,0.8,7.6411,30.5644,"return",10.4479569999967,NA,NA,NA,NA,NA,NA,NA,NA,NA,NA,NA,NA,NA,NA,NA,NA,716,21,"female","left_right_width","2024-08-27_12h59.14.923","exp1","2023.1.0",60.0698371965243,NA
"37",NA,NA,NA,NA,NA,NA,NA,NA,NA,NA,NA,NA,NA,NA,NA,NA,3,8.525,10,11.475,0,0,1.475,1.225,0.25,3.2,10,"match",36.05,307,361,414,0,0,9,9,9,0,0,NA,NA,NA,NA,NA,NA,0,0,0,0,0,25,25,45,NA,NA,NA,NA,NA,NA,NA,NA,NA,NA,NA,"num_3",1.5140878999955,"num_3",0.45,0.6,0.15,1.1,5.73083,42.02605,"return",8.96765279999818,NA,NA,NA,NA,NA,NA,NA,NA,NA,NA,NA,NA,NA,NA,NA,NA,716,21,"female","left_right_width","2024-08-27_12h59.14.923","exp1","2023.1.0",60.0698371965243,NA
"38",NA,NA,NA,NA,NA,NA,NA,NA,NA,NA,NA,NA,NA,NA,NA,NA,5,8.6,9.3,10,10.7,11.4,0.7,0.45,0.25,3.05,10,"initial",36.05,310,335,361,386,411,9,9,9,9,9,NA,NA,NA,NA,NA,NA,0,0,0,0,0,26,26,42,NA,NA,NA,NA,NA,NA,NA,NA,NA,NA,NA,"num_4",1.41563220000535,"num_4",0.2,0.6,0.2,0.7,7.6411,26.74385,"return",6.39632030000212,NA,NA,NA,NA,NA,NA,NA,NA,NA,NA,NA,NA,NA,NA,NA,NA,716,21,"female","left_right_width","2024-08-27_12h59.14.923","exp1","2023.1.0",60.0698371965243,NA
"39",NA,NA,NA,NA,NA,NA,NA,NA,NA,NA,NA,NA,NA,NA,NA,NA,4,8.95,9.65,10.35,11.05,0,0.7,0.3,0.4,2.5,10,"initial",36.05,323,348,373,398,0,9,9,9,9,0,NA,NA,NA,NA,NA,NA,0,0,0,0,0,27,27,26,NA,NA,NA,NA,NA,NA,NA,NA,NA,NA,NA,"num_4",2.89040699999896,"num_4",0.25,0.3,0.3,0.6,11.46165,22.9233,"return",9.41111679999449,NA,NA,NA,NA,NA,NA,NA,NA,NA,NA,NA,NA,NA,NA,NA,NA,716,21,"female","left_right_width","2024-08-27_12h59.14.923","exp1","2023.1.0",60.0698371965243,NA
"40",NA,NA,NA,NA,NA,NA,NA,NA,NA,NA,NA,NA,NA,NA,NA,NA,4,8.95,9.65,10.35,11.05,0,0.7,0.45,0.25,2.35,10,"initial",36.05,323,348,373,398,0,9,9,9,9,0,NA,NA,NA,NA,NA,NA,0,0,0,0,0,28,28,24,NA,NA,NA,NA,NA,NA,NA,NA,NA,NA,NA,"num_4",2.18634519999614,"num_4",0.2,1.1,0.25,0.7,9.55138,26.74385,"return",7.16762150000432,NA,NA,NA,NA,NA,NA,NA,NA,NA,NA,NA,NA,NA,NA,NA,NA,716,21,"female","left_right_width","2024-08-27_12h59.14.923","exp1","2023.1.0",60.0698371965243,NA
"41",NA,NA,NA,NA,NA,NA,NA,NA,NA,NA,NA,NA,NA,NA,NA,NA,3,8.6,10,11.4,0,0,1.4,1.15,0.25,3.05,10,"match",36.05,310,361,411,0,0,9,9,9,0,0,NA,NA,NA,NA,NA,NA,0,0,0,0,0,29,29,43,NA,NA,NA,NA,NA,NA,NA,NA,NA,NA,NA,"num_3",4.27647820000129,"num_3",0.25,0.4,0.2,1.15,7.6411,43.93633,"return",8.52128990000347,NA,NA,NA,NA,NA,NA,NA,NA,NA,NA,NA,NA,NA,NA,NA,NA,716,21,"female","left_right_width","2024-08-27_12h59.14.923","exp1","2023.1.0",60.0698371965243,NA
"42",NA,NA,NA,NA,NA,NA,NA,NA,NA,NA,NA,NA,NA,NA,NA,NA,5,8.65,9.325,10,10.675,11.35,0.675,0.125,0.55,3.25,10,"match",36.05,312,336,361,385,409,9,9,9,9,9,NA,NA,NA,NA,NA,NA,0,0,0,0,0,30,30,29,NA,NA,NA,NA,NA,NA,NA,NA,NA,NA,NA,"num_4",1.70794530000421,"num_4",0.45,1.1,0.5,0.8,19.10275,30.5644,"return",6.69176070000685,NA,NA,NA,NA,NA,NA,NA,NA,NA,NA,NA,NA,NA,NA,NA,NA,716,21,"female","left_right_width","2024-08-27_12h59.14.923","exp1","2023.1.0",60.0698371965243,NA
"43",NA,NA,NA,NA,NA,NA,NA,NA,NA,NA,NA,NA,NA,NA,NA,NA,4,8.35,9.45,10.55,11.65,0,1.1,0.85,0.25,3.55,10,"initial",36.05,301,341,380,420,0,9,9,9,9,0,NA,NA,NA,NA,NA,NA,0,0,0,0,0,31,31,19,NA,NA,NA,NA,NA,NA,NA,NA,NA,NA,NA,"num_4",1.46854139999778,"num_4",0.2,0.3,0.15,1,5.73083,38.2055,"return",4.87654800000018,NA,NA,NA,NA,NA,NA,NA,NA,NA,NA,NA,NA,NA,NA,NA,NA,716,21,"female","left_right_width","2024-08-27_12h59.14.923","exp1","2023.1.0",60.0698371965243,NA
"44",NA,NA,NA,NA,NA,NA,NA,NA,NA,NA,NA,NA,NA,NA,NA,NA,3,9.3,10,10.7,0,0,0.7,0.3,0.4,1.8,10,"initial",36.05,335,361,386,0,0,9,9,9,0,0,NA,NA,NA,NA,NA,NA,0,0,0,0,0,32,32,9,NA,NA,NA,NA,NA,NA,NA,NA,NA,NA,NA,"num_2",2.13898509999854,"num_2",0.55,1.2,0.55,0.8,21.01303,30.5644,"return",11.9232771000097,NA,NA,NA,NA,NA,NA,NA,NA,NA,NA,NA,NA,NA,NA,NA,NA,716,21,"female","left_right_width","2024-08-27_12h59.14.923","exp1","2023.1.0",60.0698371965243,NA
"45",NA,NA,NA,NA,NA,NA,NA,NA,NA,NA,NA,NA,NA,NA,NA,NA,5,7.8,8.9,10,11.1,12.2,1.1,0.55,0.55,4.95,10,"initial",36.05,281,321,361,400,440,9,9,9,9,9,NA,NA,NA,NA,NA,NA,0,0,0,0,0,33,33,34,NA,NA,NA,NA,NA,NA,NA,NA,NA,NA,NA,"num_5",3.3848500999884,"num_5",0.4,1,0.55,0.95,21.01303,36.29523,"return",9.3053549999895,NA,NA,NA,NA,NA,NA,NA,NA,NA,NA,NA,NA,NA,NA,NA,NA,716,21,"female","left_right_width","2024-08-27_12h59.14.923","exp1","2023.1.0",60.0698371965243,NA
"46",NA,NA,NA,NA,NA,NA,NA,NA,NA,NA,NA,NA,NA,NA,NA,NA,4,9.1,9.7,10.3,10.9,0,0.6,0.2,0.4,2.2,10,"match",36.05,328,350,371,393,0,9,9,9,9,0,NA,NA,NA,NA,NA,NA,0,0,0,0,0,34,34,16,NA,NA,NA,NA,NA,NA,NA,NA,NA,NA,NA,"num_3",6.79184150000219,"num_3",0.45,0.9,0.5,0.7,19.10275,26.74385,"return",25.5860508000042,NA,NA,NA,NA,NA,NA,NA,NA,NA,NA,NA,NA,NA,NA,NA,NA,716,21,"female","left_right_width","2024-08-27_12h59.14.923","exp1","2023.1.0",60.0698371965243,NA
"47",NA,NA,NA,NA,NA,NA,NA,NA,NA,NA,NA,NA,NA,NA,NA,NA,5,8.2,9.1,10,10.9,11.8,0.9,0.35,0.55,4.15,10,"initial",36.05,296,328,361,393,425,9,9,9,9,9,NA,NA,NA,NA,NA,NA,0,0,0,0,0,35,35,46,NA,NA,NA,NA,NA,NA,NA,NA,NA,NA,NA,"num_5",7.26770689999103,"num_5",0.55,0.7,0.45,0.7,17.19248,26.74385,"return",5.0976484999992,NA,NA,NA,NA,NA,NA,NA,NA,NA,NA,NA,NA,NA,NA,NA,NA,716,21,"female","left_right_width","2024-08-27_12h59.14.923","exp1","2023.1.0",60.0698371965243,NA
"48",NA,NA,NA,NA,NA,NA,NA,NA,NA,NA,NA,NA,NA,NA,NA,NA,4,8.35,9.45,10.55,11.65,0,1.1,0.55,0.55,3.85,10,"initial",36.05,301,341,380,420,0,9,9,9,9,0,NA,NA,NA,NA,NA,NA,0,0,0,0,0,36,36,17,NA,NA,NA,NA,NA,NA,NA,NA,NA,NA,NA,"num_4",1.98958009999478,"num_4",0.25,0.9,0.5,0.9,19.10275,34.38495,"return",5.78132979999646,NA,NA,NA,NA,NA,NA,NA,NA,NA,NA,NA,NA,NA,NA,NA,NA,716,21,"female","left_right_width","2024-08-27_12h59.14.923","exp1","2023.1.0",60.0698371965243,NA
"49",NA,NA,NA,NA,NA,NA,NA,NA,NA,NA,NA,NA,NA,NA,NA,NA,5,8.35,9.175,10,10.825,11.65,0.825,0.275,0.55,3.85,10,"match",36.05,301,331,361,390,420,9,9,9,9,9,NA,NA,NA,NA,NA,NA,0,0,0,0,0,37,37,18,NA,NA,NA,NA,NA,NA,NA,NA,NA,NA,NA,"num_5",2.59051409999665,"num_5",0.55,1.1,0.55,0.9,21.01303,34.38495,"return",4.76639020000584,NA,NA,NA,NA,NA,NA,NA,NA,NA,NA,NA,NA,NA,NA,NA,NA,716,21,"female","left_right_width","2024-08-27_12h59.14.923","exp1","2023.1.0",60.0698371965243,NA
"50",NA,NA,NA,NA,NA,NA,NA,NA,NA,NA,NA,NA,NA,NA,NA,NA,4,8.9,9.63333333333333,10.3666666666667,11.1,0,0.733333333333333,0.483333333333333,0.25,2.45,10,"match",36.05,321,347,374,400,0,9,9,9,9,0,NA,NA,NA,NA,NA,NA,0,0,0,0,0,38,38,3,NA,NA,NA,NA,NA,NA,NA,NA,NA,NA,NA,"num_4",1.95116729999427,"num_4",0.35,1.2,0.25,0.9,9.55138,34.38495,"return",9.53679489999195,NA,NA,NA,NA,NA,NA,NA,NA,NA,NA,NA,NA,NA,NA,NA,NA,716,21,"female","left_right_width","2024-08-27_12h59.14.923","exp1","2023.1.0",60.0698371965243,NA
"51",NA,NA,NA,NA,NA,NA,NA,NA,NA,NA,NA,NA,NA,NA,NA,NA,3,9.3,10,10.7,0,0,0.7,0.15,0.55,1.95,10,"initial",36.05,335,361,386,0,0,9,9,9,0,0,NA,NA,NA,NA,NA,NA,0,0,0,0,0,39,39,6,NA,NA,NA,NA,NA,NA,NA,NA,NA,NA,NA,"num_3",1.50841149999178,"num_3",0.35,0.7,0.5,0.7,19.10275,26.74385,"return",8.38214069999231,NA,NA,NA,NA,NA,NA,NA,NA,NA,NA,NA,NA,NA,NA,NA,NA,716,21,"female","left_right_width","2024-08-27_12h59.14.923","exp1","2023.1.0",60.0698371965243,NA
"52",NA,NA,NA,NA,NA,NA,NA,NA,NA,NA,NA,NA,NA,NA,NA,NA,3,7.8,10,12.2,0,0,2.2,1.65,0.55,4.95,10,"match",36.05,281,361,440,0,0,9,9,9,0,0,NA,NA,NA,NA,NA,NA,0,0,0,0,0,40,40,35,NA,NA,NA,NA,NA,NA,NA,NA,NA,NA,NA,"num_3",1.71218069999304,"num_3",0.35,1.3,0.5,1.7,19.10275,64.94936,"return",12.3883736999996,NA,NA,NA,NA,NA,NA,NA,NA,NA,NA,NA,NA,NA,NA,NA,NA,716,21,"female","left_right_width","2024-08-27_12h59.14.923","exp1","2023.1.0",60.0698371965243,NA
"53",NA,NA,NA,NA,NA,NA,NA,NA,NA,NA,NA,NA,NA,NA,NA,NA,4,9.3,9.76666666666667,10.2333333333333,10.7,0,0.466666666666667,0.0666666666666667,0.4,1.8,10,"match",36.05,335,352,369,386,0,9,9,9,9,0,NA,NA,NA,NA,NA,NA,0,0,0,0,0,41,41,10,NA,NA,NA,NA,NA,NA,NA,NA,NA,NA,NA,"num_3",2.17375539999921,"num_3",0.55,1.2,0.55,0.7,21.01303,26.74385,"return",7.93816530000186,NA,NA,NA,NA,NA,NA,NA,NA,NA,NA,NA,NA,NA,NA,NA,NA,716,21,"female","left_right_width","2024-08-27_12h59.14.923","exp1","2023.1.0",60.0698371965243,NA
"54",NA,NA,NA,NA,NA,NA,NA,NA,NA,NA,NA,NA,NA,NA,NA,NA,5,7.8,8.9,10,11.1,12.2,1.1,0.85,0.25,4.65,10,"initial",36.05,281,321,361,400,440,9,9,9,9,9,NA,NA,NA,NA,NA,NA,0,0,0,0,0,42,42,36,NA,NA,NA,NA,NA,NA,NA,NA,NA,NA,NA,"num_5",2.49146889999975,"num_5",0.2,0.5,0.15,0.9,5.73083,34.38495,"return",8.00423929998942,NA,NA,NA,NA,NA,NA,NA,NA,NA,NA,NA,NA,NA,NA,NA,NA,716,21,"female","left_right_width","2024-08-27_12h59.14.923","exp1","2023.1.0",60.0698371965243,NA
"55",NA,NA,NA,NA,NA,NA,NA,NA,NA,NA,NA,NA,NA,NA,NA,NA,4,9.1,9.7,10.3,10.9,0,0.6,0.35,0.25,2.05,10,"match",36.05,328,350,371,393,0,9,9,9,9,0,NA,NA,NA,NA,NA,NA,0,0,0,0,0,43,43,14,NA,NA,NA,NA,NA,NA,NA,NA,NA,NA,NA,"num_4",1.85973939999531,"num_4",0.4,0.7,0.2,0.6,7.6411,22.9233,"return",8.21280049999768,NA,NA,NA,NA,NA,NA,NA,NA,NA,NA,NA,NA,NA,NA,NA,NA,716,21,"female","left_right_width","2024-08-27_12h59.14.923","exp1","2023.1.0",60.0698371965243,NA
"56",NA,NA,NA,NA,NA,NA,NA,NA,NA,NA,NA,NA,NA,NA,NA,NA,5,8.95,9.475,10,10.525,11.05,0.525,0.275,0.25,2.35,10,"match",36.05,323,342,361,379,398,9,9,9,9,9,NA,NA,NA,NA,NA,NA,0,0,0,0,0,44,44,25,NA,NA,NA,NA,NA,NA,NA,NA,NA,NA,NA,"num_4",1.66137250000611,"num_4",0.2,0.3,0.25,0.7,9.55138,26.74385,"return",9.14434869999241,NA,NA,NA,NA,NA,NA,NA,NA,NA,NA,NA,NA,NA,NA,NA,NA,716,21,"female","left_right_width","2024-08-27_12h59.14.923","exp1","2023.1.0",60.0698371965243,NA
"57",NA,NA,NA,NA,NA,NA,NA,NA,NA,NA,NA,NA,NA,NA,NA,NA,3,9.1,10,10.9,0,0,0.9,0.5,0.4,2.2,10,"initial",36.05,328,361,393,0,0,9,9,9,0,0,NA,NA,NA,NA,NA,NA,0,0,0,0,0,45,45,15,NA,NA,NA,NA,NA,NA,NA,NA,NA,NA,NA,"num_3",2.65898179999203,"num_3",0.5,1.3,0.3,0.8,11.46165,30.5644,"return",15.6482700000051,NA,NA,NA,NA,NA,NA,NA,NA,NA,NA,NA,NA,NA,NA,NA,NA,716,21,"female","left_right_width","2024-08-27_12h59.14.923","exp1","2023.1.0",60.0698371965243,NA
"58",NA,NA,NA,NA,NA,NA,NA,NA,NA,NA,NA,NA,NA,NA,NA,NA,4,9.3,9.76666666666667,10.2333333333333,10.7,0,0.466666666666667,0.216666666666667,0.25,1.65,10,"match",36.05,335,352,369,386,0,9,9,9,9,0,NA,NA,NA,NA,NA,NA,0,0,0,0,0,46,46,8,NA,NA,NA,NA,NA,NA,NA,NA,NA,NA,NA,"num_4",4.34769029999734,"num_4",0.4,0.8,0.25,0.6,9.55138,22.9233,"return",10.4568801999994,NA,NA,NA,NA,NA,NA,NA,NA,NA,NA,NA,NA,NA,NA,NA,NA,716,21,"female","left_right_width","2024-08-27_12h59.14.923","exp1","2023.1.0",60.0698371965243,NA
"59",NA,NA,NA,NA,NA,NA,NA,NA,NA,NA,NA,NA,NA,NA,NA,NA,5,8.6,9.3,10,10.7,11.4,0.7,0.15,0.55,3.35,10,"initial",36.05,310,335,361,386,411,9,9,9,9,9,NA,NA,NA,NA,NA,NA,0,0,0,0,0,47,47,40,NA,NA,NA,NA,NA,NA,NA,NA,NA,NA,NA,"num_4",2.18034099999932,"num_4",0.55,1.2,0.55,0.8,21.01303,30.5644,"return",14.7407352999871,NA,NA,NA,NA,NA,NA,NA,NA,NA,NA,NA,NA,NA,NA,NA,NA,716,21,"female","left_right_width","2024-08-27_12h59.14.923","exp1","2023.1.0",60.0698371965243,NA
"60",NA,NA,NA,NA,NA,NA,NA,NA,NA,NA,NA,NA,NA,NA,NA,NA,3,8.2,10,11.8,0,0,1.8,1.55,0.25,3.85,10,"match",36.05,296,361,425,0,0,9,9,9,0,0,NA,NA,NA,NA,NA,NA,0,0,0,0,0,48,48,49,NA,NA,NA,NA,NA,NA,NA,NA,NA,NA,NA,"num_4",1.52556840000034,"num_4",0.4,0.5,0.2,1,7.6411,38.2055,"return",11.3763452999992,NA,NA,NA,NA,NA,NA,NA,NA,NA,NA,NA,NA,NA,NA,NA,NA,716,21,"female","left_right_width","2024-08-27_12h59.14.923","exp1","2023.1.0",60.0698371965243,NA
"61",NA,NA,NA,NA,NA,NA,NA,NA,NA,NA,NA,NA,NA,NA,NA,NA,5,8.275,9.1375,10,10.8625,11.725,0.8625,0.6125,0.25,3.7,10,"match",36.05,298,329,361,392,423,9,9,9,9,9,NA,NA,NA,NA,NA,NA,0,0,0,0,0,49,49,22,NA,NA,NA,NA,NA,NA,NA,NA,NA,NA,NA,"num_5",3.4640012000018,"num_5",0.5,0.8,0.15,0.8,5.73083,30.5644,"return",7.51568700000644,NA,NA,NA,NA,NA,NA,NA,NA,NA,NA,NA,NA,NA,NA,NA,NA,716,21,"female","left_right_width","2024-08-27_12h59.14.923","exp1","2023.1.0",60.0698371965243,NA
"62",NA,NA,NA,NA,NA,NA,NA,NA,NA,NA,NA,NA,NA,NA,NA,NA,3,8.9,10,11.1,0,0,1.1,0.55,0.55,2.75,10,"initial",36.05,321,361,400,0,0,9,9,9,0,0,NA,NA,NA,NA,NA,NA,0,0,0,0,0,50,50,0,NA,NA,NA,NA,NA,NA,NA,NA,NA,NA,NA,"num_3",1.84938580000016,"num_3",0.2,1.2,0.45,1.05,17.19248,40.11578,"return",10.9387112999975,NA,NA,NA,NA,NA,NA,NA,NA,NA,NA,NA,NA,NA,NA,NA,NA,716,21,"female","left_right_width","2024-08-27_12h59.14.923","exp1","2023.1.0",60.0698371965243,NA
"63",NA,NA,NA,NA,NA,NA,NA,NA,NA,NA,NA,NA,NA,NA,NA,NA,5,8.65,9.325,10,10.675,11.35,0.675,0.275,0.4,3.1,10,"match",36.05,312,336,361,385,409,9,9,9,9,9,NA,NA,NA,NA,NA,NA,0,0,0,0,0,51,51,33,NA,NA,NA,NA,NA,NA,NA,NA,NA,NA,NA,"num_4",2.94339069999114,"num_4",0.3,0.4,0.35,0.6,13.37193,22.9233,"return",28.5023447999993,NA,NA,NA,NA,NA,NA,NA,NA,NA,NA,NA,NA,NA,NA,NA,NA,716,21,"female","left_right_width","2024-08-27_12h59.14.923","exp1","2023.1.0",60.0698371965243,NA
"64",NA,NA,NA,NA,NA,NA,NA,NA,NA,NA,NA,NA,NA,NA,NA,NA,NA,NA,NA,NA,NA,NA,NA,NA,NA,NA,NA,NA,NA,NA,NA,NA,NA,NA,NA,NA,NA,NA,NA,NA,NA,NA,NA,NA,NA,0,0,0,0,NA,NA,NA,NA,NA,NA,NA,NA,NA,NA,NA,NA,NA,NA,NA,NA,NA,NA,NA,NA,NA,NA,NA,NA,NA,NA,NA,NA,1152.1249089,1152.1249089,1152.1249089,NA,NA,NA,NA,NA,NA,NA,NA,NA,NA,NA,716,21,"female","left_right_width","2024-08-27_12h59.14.923","exp1","2023.1.0",60.0698371965243,NA
"65",NA,NA,NA,NA,NA,NA,NA,NA,NA,NA,NA,NA,NA,NA,NA,NA,5,8.2,9.1,10,10.9,11.8,0.9,0.5,0.4,4,10,"initial",36.05,296,328,361,393,425,9,9,9,9,9,NA,NA,NA,NA,NA,NA,1,0,1,0,0,0,0,50,NA,NA,NA,NA,NA,NA,NA,NA,NA,NA,NA,"num_4",2.54510849999497,"num_4",0.4,0.5,0.5,0.7,19.10275,26.74385,"return",10.9707702999876,NA,NA,NA,NA,NA,NA,NA,NA,NA,NA,NA,NA,NA,NA,NA,NA,716,21,"female","left_right_width","2024-08-27_12h59.14.923","exp1","2023.1.0",60.0698371965243,NA
"66",NA,NA,NA,NA,NA,NA,NA,NA,NA,NA,NA,NA,NA,NA,NA,NA,4,8.35,9.45,10.55,11.65,0,1.1,0.55,0.55,3.85,10,"initial",36.05,301,341,380,420,0,9,9,9,9,0,NA,NA,NA,NA,NA,NA,1,0,1,0,0,1,1,17,NA,NA,NA,NA,NA,NA,NA,NA,NA,NA,NA,"num_4",2.14032019999286,"num_4",0.5,1,0.55,1,21.01303,38.2055,"return",6.57582209998509,NA,NA,NA,NA,NA,NA,NA,NA,NA,NA,NA,NA,NA,NA,NA,NA,716,21,"female","left_right_width","2024-08-27_12h59.14.923","exp1","2023.1.0",60.0698371965243,NA
"67",NA,NA,NA,NA,NA,NA,NA,NA,NA,NA,NA,NA,NA,NA,NA,NA,3,8.525,10,11.475,0,0,1.475,1.225,0.25,3.2,10,"match",36.05,307,361,414,0,0,9,9,9,0,0,NA,NA,NA,NA,NA,NA,1,0,1,0,0,2,2,45,NA,NA,NA,NA,NA,NA,NA,NA,NA,NA,NA,"num_3",1.62071169998671,"num_3",0.25,1,0.15,1.1,5.73083,42.02605,"return",5.69395179999992,NA,NA,NA,NA,NA,NA,NA,NA,NA,NA,NA,NA,NA,NA,NA,NA,716,21,"female","left_right_width","2024-08-27_12h59.14.923","exp1","2023.1.0",60.0698371965243,NA
"68",NA,NA,NA,NA,NA,NA,NA,NA,NA,NA,NA,NA,NA,NA,NA,NA,3,8.9,10,11.1,0,0,1.1,0.7,0.4,2.6,10,"initial",36.05,321,361,400,0,0,9,9,9,0,0,NA,NA,NA,NA,NA,NA,1,0,1,0,0,3,3,4,NA,NA,NA,NA,NA,NA,NA,NA,NA,NA,NA,"num_3",2.10534199999529,"num_3",0.5,1.1,0.4,1.05,15.2822,40.11578,"return",7.50623729999643,NA,NA,NA,NA,NA,NA,NA,NA,NA,NA,NA,NA,NA,NA,NA,NA,716,21,"female","left_right_width","2024-08-27_12h59.14.923","exp1","2023.1.0",60.0698371965243,NA
"69",NA,NA,NA,NA,NA,NA,NA,NA,NA,NA,NA,NA,NA,NA,NA,NA,4,8.65,9.55,10.45,11.35,0,0.9,0.35,0.55,3.25,10,"initial",36.05,312,344,377,409,0,9,9,9,9,0,NA,NA,NA,NA,NA,NA,1,0,1,0,0,4,4,28,NA,NA,NA,NA,NA,NA,NA,NA,NA,NA,NA,"num_3",2.99946740000451,"num_3",0.5,0.9,0.5,0.95,19.10275,36.29523,"return",8.08947539998917,NA,NA,NA,NA,NA,NA,NA,NA,NA,NA,NA,NA,NA,NA,NA,NA,716,21,"female","left_right_width","2024-08-27_12h59.14.923","exp1","2023.1.0",60.0698371965243,NA
"70",NA,NA,NA,NA,NA,NA,NA,NA,NA,NA,NA,NA,NA,NA,NA,NA,5,8.2,9.1,10,10.9,11.8,0.9,0.65,0.25,3.85,10,"initial",36.05,296,328,361,393,425,9,9,9,9,9,NA,NA,NA,NA,NA,NA,1,0,1,0,0,5,5,48,NA,NA,NA,NA,NA,NA,NA,NA,NA,NA,NA,"num_4",1.84245709999232,"num_4",0.2,0.6,0.25,0.7,9.55138,26.74385,"return",5.2876408000011,NA,NA,NA,NA,NA,NA,NA,NA,NA,NA,NA,NA,NA,NA,NA,NA,716,21,"female","left_right_width","2024-08-27_12h59.14.923","exp1","2023.1.0",60.0698371965243,NA
"71",NA,NA,NA,NA,NA,NA,NA,NA,NA,NA,NA,NA,NA,NA,NA,NA,5,8.65,9.325,10,10.675,11.35,0.675,0.425,0.25,2.95,10,"match",36.05,312,336,361,385,409,9,9,9,9,9,NA,NA,NA,NA,NA,NA,1,0,1,0,0,6,6,31,NA,NA,NA,NA,NA,NA,NA,NA,NA,NA,NA,"num_4",1.93724289999227,"num_4",0.4,1.2,0.2,0.8,7.6411,30.5644,"return",3.88717650000763,NA,NA,NA,NA,NA,NA,NA,NA,NA,NA,NA,NA,NA,NA,NA,NA,716,21,"female","left_right_width","2024-08-27_12h59.14.923","exp1","2023.1.0",60.0698371965243,NA
"72",NA,NA,NA,NA,NA,NA,NA,NA,NA,NA,NA,NA,NA,NA,NA,NA,3,8.6,10,11.4,0,0,1.4,1.15,0.25,3.05,10,"match",36.05,310,361,411,0,0,9,9,9,0,0,NA,NA,NA,NA,NA,NA,1,0,1,0,0,7,7,43,NA,NA,NA,NA,NA,NA,NA,NA,NA,NA,NA,"num_3",2.66574469998886,"num_3",0.5,0.6,0.2,0.85,7.6411,32.47468,"return",8.0785726000031,NA,NA,NA,NA,NA,NA,NA,NA,NA,NA,NA,NA,NA,NA,NA,NA,716,21,"female","left_right_width","2024-08-27_12h59.14.923","exp1","2023.1.0",60.0698371965243,NA
"73",NA,NA,NA,NA,NA,NA,NA,NA,NA,NA,NA,NA,NA,NA,NA,NA,3,8.9,10,11.1,0,0,1.1,0.85,0.25,2.45,10,"initial",36.05,321,361,400,0,0,9,9,9,0,0,NA,NA,NA,NA,NA,NA,1,0,1,0,0,8,8,2,NA,NA,NA,NA,NA,NA,NA,NA,NA,NA,NA,"num_2",4.6492780999979,"num_2",0.4,1.2,0.35,0.8,13.37193,30.5644,"return",16.0727331999951,NA,NA,NA,NA,NA,NA,NA,NA,NA,NA,NA,NA,NA,NA,NA,NA,716,21,"female","left_right_width","2024-08-27_12h59.14.923","exp1","2023.1.0",60.0698371965243,NA
"74",NA,NA,NA,NA,NA,NA,NA,NA,NA,NA,NA,NA,NA,NA,NA,NA,4,9.1,9.7,10.3,10.9,0,0.6,0.35,0.25,2.05,10,"match",36.05,328,350,371,393,0,9,9,9,9,0,NA,NA,NA,NA,NA,NA,1,0,1,0,0,9,9,14,NA,NA,NA,NA,NA,NA,NA,NA,NA,NA,NA,"num_4",3.53987920000509,"num_4",0.55,0.9,0.4,0.7,15.2822,26.74385,"return",8.64457039999252,NA,NA,NA,NA,NA,NA,NA,NA,NA,NA,NA,NA,NA,NA,NA,NA,716,21,"female","left_right_width","2024-08-27_12h59.14.923","exp1","2023.1.0",60.0698371965243,NA
"75",NA,NA,NA,NA,NA,NA,NA,NA,NA,NA,NA,NA,NA,NA,NA,NA,3,8.2,10,11.8,0,0,1.8,1.4,0.4,4,10,"match",36.05,296,361,425,0,0,9,9,9,0,0,NA,NA,NA,NA,NA,NA,1,0,1,0,0,10,10,51,NA,NA,NA,NA,NA,NA,NA,NA,NA,NA,NA,"num_2",2.51434639999934,"num_2",0.4,0.8,0.4,2.1,15.2822,80.23156,"return",9.70448569998553,NA,NA,NA,NA,NA,NA,NA,NA,NA,NA,NA,NA,NA,NA,NA,NA,716,21,"female","left_right_width","2024-08-27_12h59.14.923","exp1","2023.1.0",60.0698371965243,NA
"76",NA,NA,NA,NA,NA,NA,NA,NA,NA,NA,NA,NA,NA,NA,NA,NA,5,7.8,8.9,10,11.1,12.2,1.1,0.55,0.55,4.95,10,"initial",36.05,281,321,361,400,440,9,9,9,9,9,NA,NA,NA,NA,NA,NA,1,0,1,0,0,11,11,34,NA,NA,NA,NA,NA,NA,NA,NA,NA,NA,NA,"num_5",2.23061500000767,"num_5",0.5,0.9,0.45,0.95,17.19248,36.29523,"return",5.27528100000927,NA,NA,NA,NA,NA,NA,NA,NA,NA,NA,NA,NA,NA,NA,NA,NA,716,21,"female","left_right_width","2024-08-27_12h59.14.923","exp1","2023.1.0",60.0698371965243,NA
"77",NA,NA,NA,NA,NA,NA,NA,NA,NA,NA,NA,NA,NA,NA,NA,NA,3,9.3,10,10.7,0,0,0.7,0.3,0.4,1.8,10,"initial",36.05,335,361,386,0,0,9,9,9,0,0,NA,NA,NA,NA,NA,NA,1,0,1,0,0,12,12,9,NA,NA,NA,NA,NA,NA,NA,NA,NA,NA,NA,"num_2",1.63412839999364,"num_2",0.25,1,0.5,0.8,19.10275,30.5644,"return",8.46164100000169,NA,NA,NA,NA,NA,NA,NA,NA,NA,NA,NA,NA,NA,NA,NA,NA,716,21,"female","left_right_width","2024-08-27_12h59.14.923","exp1","2023.1.0",60.0698371965243,NA
"78",NA,NA,NA,NA,NA,NA,NA,NA,NA,NA,NA,NA,NA,NA,NA,NA,5,8.2,9.1,10,10.9,11.8,0.9,0.35,0.55,4.15,10,"initial",36.05,296,328,361,393,425,9,9,9,9,9,NA,NA,NA,NA,NA,NA,1,0,1,0,0,13,13,46,NA,NA,NA,NA,NA,NA,NA,NA,NA,NA,NA,"num_5",3.02872390000266,"num_5",0.4,1.2,0.5,0.95,19.10275,36.29523,"return",14.0387665000017,NA,NA,NA,NA,NA,NA,NA,NA,NA,NA,NA,NA,NA,NA,NA,NA,716,21,"female","left_right_width","2024-08-27_12h59.14.923","exp1","2023.1.0",60.0698371965243,NA
"79",NA,NA,NA,NA,NA,NA,NA,NA,NA,NA,NA,NA,NA,NA,NA,NA,3,9.1,10,10.9,0,0,0.9,0.35,0.55,2.35,10,"initial",36.05,328,361,393,0,0,9,9,9,0,0,NA,NA,NA,NA,NA,NA,1,0,1,0,0,14,14,11,NA,NA,NA,NA,NA,NA,NA,NA,NA,NA,NA,"num_3",4.65072939998936,"num_3",0.25,0.4,0.5,0.7,19.10275,26.74385,"return",8.36403769999743,NA,NA,NA,NA,NA,NA,NA,NA,NA,NA,NA,NA,NA,NA,NA,NA,716,21,"female","left_right_width","2024-08-27_12h59.14.923","exp1","2023.1.0",60.0698371965243,NA
"80",NA,NA,NA,NA,NA,NA,NA,NA,NA,NA,NA,NA,NA,NA,NA,NA,3,9.3,10,10.7,0,0,0.7,0.45,0.25,1.65,10,"initial",36.05,335,361,386,0,0,9,9,9,0,0,NA,NA,NA,NA,NA,NA,1,0,1,0,0,15,15,7,NA,NA,NA,NA,NA,NA,NA,NA,NA,NA,NA,"num_2",1.27473759998975,"num_2",0.3,0.4,0.3,0.6,11.46165,22.9233,"return",10.4985316999955,NA,NA,NA,NA,NA,NA,NA,NA,NA,NA,NA,NA,NA,NA,NA,NA,716,21,"female","left_right_width","2024-08-27_12h59.14.923","exp1","2023.1.0",60.0698371965243,NA
"81",NA,NA,NA,NA,NA,NA,NA,NA,NA,NA,NA,NA,NA,NA,NA,NA,5,8.95,9.475,10,10.525,11.05,0.525,0.125,0.4,2.5,10,"match",36.05,323,342,361,379,398,9,9,9,9,9,NA,NA,NA,NA,NA,NA,1,0,1,0,0,16,16,27,NA,NA,NA,NA,NA,NA,NA,NA,NA,NA,NA,"num_4",1.80420939999749,"num_4",0.4,1.1,0.4,0.6,15.2822,22.9233,"return",6.40205219999189,NA,NA,NA,NA,NA,NA,NA,NA,NA,NA,NA,NA,NA,NA,NA,NA,716,21,"female","left_right_width","2024-08-27_12h59.14.923","exp1","2023.1.0",60.0698371965243,NA
"82",NA,NA,NA,NA,NA,NA,NA,NA,NA,NA,NA,NA,NA,NA,NA,NA,3,8.2,10,11.8,0,0,1.8,1.55,0.25,3.85,10,"match",36.05,296,361,425,0,0,9,9,9,0,0,NA,NA,NA,NA,NA,NA,1,0,1,0,0,17,17,49,NA,NA,NA,NA,NA,NA,NA,NA,NA,NA,NA,"num_3",1.31737030000659,"num_3",0.35,1,0.2,1.4,7.6411,53.48771,"return",5.75530619999336,NA,NA,NA,NA,NA,NA,NA,NA,NA,NA,NA,NA,NA,NA,NA,NA,716,21,"female","left_right_width","2024-08-27_12h59.14.923","exp1","2023.1.0",60.0698371965243,NA
"83",NA,NA,NA,NA,NA,NA,NA,NA,NA,NA,NA,NA,NA,NA,NA,NA,3,8.9,10,11.1,0,0,1.1,0.55,0.55,2.75,10,"initial",36.05,321,361,400,0,0,9,9,9,0,0,NA,NA,NA,NA,NA,NA,1,0,1,0,0,18,18,0,NA,NA,NA,NA,NA,NA,NA,NA,NA,NA,NA,"num_3",1.19635589999962,"num_3",0.2,0.9,0.4,1,15.2822,38.2055,"return",15.7355587000056,NA,NA,NA,NA,NA,NA,NA,NA,NA,NA,NA,NA,NA,NA,NA,NA,716,21,"female","left_right_width","2024-08-27_12h59.14.923","exp1","2023.1.0",60.0698371965243,NA
"84",NA,NA,NA,NA,NA,NA,NA,NA,NA,NA,NA,NA,NA,NA,NA,NA,4,8.95,9.65,10.35,11.05,0,0.7,0.15,0.55,2.65,10,"initial",36.05,323,348,373,398,0,9,9,9,9,0,NA,NA,NA,NA,NA,NA,1,0,1,0,0,19,19,23,NA,NA,NA,NA,NA,NA,NA,NA,NA,NA,NA,"num_3",1.46612009999808,"num_3",0.2,0.4,0.45,0.7,17.19248,26.74385,"return",5.28940400001011,NA,NA,NA,NA,NA,NA,NA,NA,NA,NA,NA,NA,NA,NA,NA,NA,716,21,"female","left_right_width","2024-08-27_12h59.14.923","exp1","2023.1.0",60.0698371965243,NA
"85",NA,NA,NA,NA,NA,NA,NA,NA,NA,NA,NA,NA,NA,NA,NA,NA,5,8.65,9.325,10,10.675,11.35,0.675,0.275,0.4,3.1,10,"match",36.05,312,336,361,385,409,9,9,9,9,9,NA,NA,NA,NA,NA,NA,1,0,1,0,0,20,20,33,NA,NA,NA,NA,NA,NA,NA,NA,NA,NA,NA,"num_4",1.71599869999045,"num_4",0.45,1.2,0.45,0.8,17.19248,30.5644,"return",2.63289989999612,NA,NA,NA,NA,NA,NA,NA,NA,NA,NA,NA,NA,NA,NA,NA,NA,716,21,"female","left_right_width","2024-08-27_12h59.14.923","exp1","2023.1.0",60.0698371965243,NA
"86",NA,NA,NA,NA,NA,NA,NA,NA,NA,NA,NA,NA,NA,NA,NA,NA,4,8.35,9.45,10.55,11.65,0,1.1,0.85,0.25,3.55,10,"initial",36.05,301,341,380,420,0,9,9,9,9,0,NA,NA,NA,NA,NA,NA,1,0,1,0,0,21,21,19,NA,NA,NA,NA,NA,NA,NA,NA,NA,NA,NA,"num_4",3.28746449999744,"num_4",0.2,0.8,0.25,1,9.55138,38.2055,"return",6.39997339999536,NA,NA,NA,NA,NA,NA,NA,NA,NA,NA,NA,NA,NA,NA,NA,NA,716,21,"female","left_right_width","2024-08-27_12h59.14.923","exp1","2023.1.0",60.0698371965243,NA
"87",NA,NA,NA,NA,NA,NA,NA,NA,NA,NA,NA,NA,NA,NA,NA,NA,5,7.8,8.9,10,11.1,12.2,1.1,0.7,0.4,4.8,10,"initial",36.05,281,321,361,400,440,9,9,9,9,9,NA,NA,NA,NA,NA,NA,1,0,1,0,0,22,22,38,NA,NA,NA,NA,NA,NA,NA,NA,NA,NA,NA,"num_5",2.61195109999971,"num_5",0.3,0.4,0.2,0.75,7.6411,28.65413,"return",12.692584400007,NA,NA,NA,NA,NA,NA,NA,NA,NA,NA,NA,NA,NA,NA,NA,NA,716,21,"female","left_right_width","2024-08-27_12h59.14.923","exp1","2023.1.0",60.0698371965243,NA
"88",NA,NA,NA,NA,NA,NA,NA,NA,NA,NA,NA,NA,NA,NA,NA,NA,4,8.35,9.45,10.55,11.65,0,1.1,0.7,0.4,3.7,10,"initial",36.05,301,341,380,420,0,9,9,9,9,0,NA,NA,NA,NA,NA,NA,1,0,1,0,0,23,23,21,NA,NA,NA,NA,NA,NA,NA,NA,NA,NA,NA,"num_4",2.59204019999015,"num_4",0.35,1.3,0.35,1,13.37193,38.2055,"return",10.4066643999977,NA,NA,NA,NA,NA,NA,NA,NA,NA,NA,NA,NA,NA,NA,NA,NA,716,21,"female","left_right_width","2024-08-27_12h59.14.923","exp1","2023.1.0",60.0698371965243,NA
"89",NA,NA,NA,NA,NA,NA,NA,NA,NA,NA,NA,NA,NA,NA,NA,NA,4,9.1,9.7,10.3,10.9,0,0.6,0.05,0.55,2.35,10,"match",36.05,328,350,371,393,0,9,9,9,9,0,NA,NA,NA,NA,NA,NA,1,0,1,0,0,24,24,12,NA,NA,NA,NA,NA,NA,NA,NA,NA,NA,NA,"num_3",3.0063203000027,"num_3",0.35,0.4,0.7,0.75,26.74385,28.65413,"return",17.4698887999984,NA,NA,NA,NA,NA,NA,NA,NA,NA,NA,NA,NA,NA,NA,NA,NA,716,21,"female","left_right_width","2024-08-27_12h59.14.923","exp1","2023.1.0",60.0698371965243,NA
"90",NA,NA,NA,NA,NA,NA,NA,NA,NA,NA,NA,NA,NA,NA,NA,NA,3,9.3,10,10.7,0,0,0.7,0.15,0.55,1.95,10,"initial",36.05,335,361,386,0,0,9,9,9,0,0,NA,NA,NA,NA,NA,NA,1,0,1,0,0,25,25,6,NA,NA,NA,NA,NA,NA,NA,NA,NA,NA,NA,"num_3",1.64965360000497,"num_3",0.3,1.3,0.55,0.85,21.01303,32.47468,"return",8.56773690000409,NA,NA,NA,NA,NA,NA,NA,NA,NA,NA,NA,NA,NA,NA,NA,NA,716,21,"female","left_right_width","2024-08-27_12h59.14.923","exp1","2023.1.0",60.0698371965243,NA
"91",NA,NA,NA,NA,NA,NA,NA,NA,NA,NA,NA,NA,NA,NA,NA,NA,5,8.95,9.475,10,10.525,11.05,0.525,0.275,0.25,2.35,10,"match",36.05,323,342,361,379,398,9,9,9,9,9,NA,NA,NA,NA,NA,NA,1,0,1,0,0,26,26,25,NA,NA,NA,NA,NA,NA,NA,NA,NA,NA,NA,"num_4",1.79057969999849,"num_4",0.45,0.5,0.25,0.5,9.55138,19.10275,"return",7.1884247999842,NA,NA,NA,NA,NA,NA,NA,NA,NA,NA,NA,NA,NA,NA,NA,NA,716,21,"female","left_right_width","2024-08-27_12h59.14.923","exp1","2023.1.0",60.0698371965243,NA
"92",NA,NA,NA,NA,NA,NA,NA,NA,NA,NA,NA,NA,NA,NA,NA,NA,3,7.8,10,12.2,0,0,2.2,1.8,0.4,4.8,10,"match",36.05,281,361,440,0,0,9,9,9,0,0,NA,NA,NA,NA,NA,NA,1,0,1,0,0,27,27,39,NA,NA,NA,NA,NA,NA,NA,NA,NA,NA,NA,"num_3",2.06315309999627,"num_3",0.25,1,0.35,1.2,13.37193,45.8466,"return",12.4364050000004,NA,NA,NA,NA,NA,NA,NA,NA,NA,NA,NA,NA,NA,NA,NA,NA,716,21,"female","left_right_width","2024-08-27_12h59.14.923","exp1","2023.1.0",60.0698371965243,NA
"93",NA,NA,NA,NA,NA,NA,NA,NA,NA,NA,NA,NA,NA,NA,NA,NA,4,8.65,9.55,10.45,11.35,0,0.9,0.65,0.25,2.95,10,"initial",36.05,312,344,377,409,0,9,9,9,9,0,NA,NA,NA,NA,NA,NA,1,0,1,0,0,28,28,30,NA,NA,NA,NA,NA,NA,NA,NA,NA,NA,NA,"num_3",1.49075449998782,"num_3",0.5,1.1,0.3,1,11.46165,38.2055,"return",7.02720509999199,NA,NA,NA,NA,NA,NA,NA,NA,NA,NA,NA,NA,NA,NA,NA,NA,716,21,"female","left_right_width","2024-08-27_12h59.14.923","exp1","2023.1.0",60.0698371965243,NA
"94",NA,NA,NA,NA,NA,NA,NA,NA,NA,NA,NA,NA,NA,NA,NA,NA,3,7.8,10,12.2,0,0,2.2,1.65,0.55,4.95,10,"match",36.05,281,361,440,0,0,9,9,9,0,0,NA,NA,NA,NA,NA,NA,1,0,1,0,0,29,29,35,NA,NA,NA,NA,NA,NA,NA,NA,NA,NA,NA,"num_3",1.41744379999,"num_3",0.25,0.8,0.45,1.1,17.19248,42.02605,"return",10.1080975999939,NA,NA,NA,NA,NA,NA,NA,NA,NA,NA,NA,NA,NA,NA,NA,NA,716,21,"female","left_right_width","2024-08-27_12h59.14.923","exp1","2023.1.0",60.0698371965243,NA
"95",NA,NA,NA,NA,NA,NA,NA,NA,NA,NA,NA,NA,NA,NA,NA,NA,4,8.95,9.65,10.35,11.05,0,0.7,0.45,0.25,2.35,10,"initial",36.05,323,348,373,398,0,9,9,9,9,0,NA,NA,NA,NA,NA,NA,1,0,1,0,0,30,30,24,NA,NA,NA,NA,NA,NA,NA,NA,NA,NA,NA,"num_3",2.61986999999499,"num_3",0.25,1.2,0.45,1,17.19248,38.2055,"return",8.31513740000082,NA,NA,NA,NA,NA,NA,NA,NA,NA,NA,NA,NA,NA,NA,NA,NA,716,21,"female","left_right_width","2024-08-27_12h59.14.923","exp1","2023.1.0",60.0698371965243,NA
"96",NA,NA,NA,NA,NA,NA,NA,NA,NA,NA,NA,NA,NA,NA,NA,NA,4,9.3,9.76666666666667,10.2333333333333,10.7,0,0.466666666666667,0.216666666666667,0.25,1.65,10,"match",36.05,335,352,369,386,0,9,9,9,9,0,NA,NA,NA,NA,NA,NA,1,0,1,0,0,31,31,8,NA,NA,NA,NA,NA,NA,NA,NA,NA,NA,NA,"num_3",1.53190959998756,"num_3",0.2,0.8,0.3,0.75,11.46165,28.65413,"return",9.83798449998722,NA,NA,NA,NA,NA,NA,NA,NA,NA,NA,NA,NA,NA,NA,NA,NA,716,21,"female","left_right_width","2024-08-27_12h59.14.923","exp1","2023.1.0",60.0698371965243,NA
"97",NA,NA,NA,NA,NA,NA,NA,NA,NA,NA,NA,NA,NA,NA,NA,NA,4,9.1,9.7,10.3,10.9,0,0.6,0.2,0.4,2.2,10,"match",36.05,328,350,371,393,0,9,9,9,9,0,NA,NA,NA,NA,NA,NA,1,0,1,0,0,32,32,16,NA,NA,NA,NA,NA,NA,NA,NA,NA,NA,NA,"num_3",1.84505009998975,"num_3",0.35,0.8,0.4,0.7,15.2822,26.74385,"return",8.82734160000109,NA,NA,NA,NA,NA,NA,NA,NA,NA,NA,NA,NA,NA,NA,NA,NA,716,21,"female","left_right_width","2024-08-27_12h59.14.923","exp1","2023.1.0",60.0698371965243,NA
"98",NA,NA,NA,NA,NA,NA,NA,NA,NA,NA,NA,NA,NA,NA,NA,NA,5,8.35,9.175,10,10.825,11.65,0.825,0.275,0.55,3.85,10,"match",36.05,301,331,361,390,420,9,9,9,9,9,NA,NA,NA,NA,NA,NA,1,0,1,0,0,33,33,18,NA,NA,NA,NA,NA,NA,NA,NA,NA,NA,NA,"num_5",2.6995132999873,"num_5",0.3,1.3,0.45,0.85,17.19248,32.47468,"return",5.66090030000487,NA,NA,NA,NA,NA,NA,NA,NA,NA,NA,NA,NA,NA,NA,NA,NA,716,21,"female","left_right_width","2024-08-27_12h59.14.923","exp1","2023.1.0",60.0698371965243,NA
"99",NA,NA,NA,NA,NA,NA,NA,NA,NA,NA,NA,NA,NA,NA,NA,NA,3,8.6,10,11.4,0,0,1.4,0.85,0.55,3.35,10,"match",36.05,310,361,411,0,0,9,9,9,0,0,NA,NA,NA,NA,NA,NA,1,0,1,0,0,34,34,41,NA,NA,NA,NA,NA,NA,NA,NA,NA,NA,NA,"num_3",2.7805182000011,"num_3",0.2,1.2,0.4,0.9,15.2822,34.38495,"return",4.02491199999349,NA,NA,NA,NA,NA,NA,NA,NA,NA,NA,NA,NA,NA,NA,NA,NA,716,21,"female","left_right_width","2024-08-27_12h59.14.923","exp1","2023.1.0",60.0698371965243,NA
"100",NA,NA,NA,NA,NA,NA,NA,NA,NA,NA,NA,NA,NA,NA,NA,NA,4,9.3,9.76666666666667,10.2333333333333,10.7,0,0.466666666666667,0.0666666666666667,0.4,1.8,10,"match",36.05,335,352,369,386,0,9,9,9,9,0,NA,NA,NA,NA,NA,NA,1,0,1,0,0,35,35,10,NA,NA,NA,NA,NA,NA,NA,NA,NA,NA,NA,"num_3",5.71136800000386,"num_3",0.5,0.7,0.5,0.7,19.10275,26.74385,"return",8.89019190000545,NA,NA,NA,NA,NA,NA,NA,NA,NA,NA,NA,NA,NA,NA,NA,NA,716,21,"female","left_right_width","2024-08-27_12h59.14.923","exp1","2023.1.0",60.0698371965243,NA
"101",NA,NA,NA,NA,NA,NA,NA,NA,NA,NA,NA,NA,NA,NA,NA,NA,5,8.65,9.325,10,10.675,11.35,0.675,0.125,0.55,3.25,10,"match",36.05,312,336,361,385,409,9,9,9,9,9,NA,NA,NA,NA,NA,NA,1,0,1,0,0,36,36,29,NA,NA,NA,NA,NA,NA,NA,NA,NA,NA,NA,"num_4",2.9592192999844,"num_4",0.5,1.3,0.5,0.7,19.10275,26.74385,"return",3.49040490000334,NA,NA,NA,NA,NA,NA,NA,NA,NA,NA,NA,NA,NA,NA,NA,NA,716,21,"female","left_right_width","2024-08-27_12h59.14.923","exp1","2023.1.0",60.0698371965243,NA
"102",NA,NA,NA,NA,NA,NA,NA,NA,NA,NA,NA,NA,NA,NA,NA,NA,3,9.1,10,10.9,0,0,0.9,0.65,0.25,2.05,10,"initial",36.05,328,361,393,0,0,9,9,9,0,0,NA,NA,NA,NA,NA,NA,1,0,1,0,0,37,37,13,NA,NA,NA,NA,NA,NA,NA,NA,NA,NA,NA,"num_2",1.58152709998831,"num_2",0.3,0.8,0.3,0.6,11.46165,22.9233,"return",2.23747499998717,NA,NA,NA,NA,NA,NA,NA,NA,NA,NA,NA,NA,NA,NA,NA,NA,716,21,"female","left_right_width","2024-08-27_12h59.14.923","exp1","2023.1.0",60.0698371965243,NA
"103",NA,NA,NA,NA,NA,NA,NA,NA,NA,NA,NA,NA,NA,NA,NA,NA,4,8.95,9.65,10.35,11.05,0,0.7,0.3,0.4,2.5,10,"initial",36.05,323,348,373,398,0,9,9,9,9,0,NA,NA,NA,NA,NA,NA,1,0,1,0,0,38,38,26,NA,NA,NA,NA,NA,NA,NA,NA,NA,NA,NA,"num_3",1.20594479999272,"num_3",0.4,0.7,0.3,0.65,11.46165,24.83358,"return",2.64153239999723,NA,NA,NA,NA,NA,NA,NA,NA,NA,NA,NA,NA,NA,NA,NA,NA,716,21,"female","left_right_width","2024-08-27_12h59.14.923","exp1","2023.1.0",60.0698371965243,NA
"104",NA,NA,NA,NA,NA,NA,NA,NA,NA,NA,NA,NA,NA,NA,NA,NA,3,8.2,10,11.8,0,0,1.8,1.25,0.55,4.15,10,"match",36.05,296,361,425,0,0,9,9,9,0,0,NA,NA,NA,NA,NA,NA,1,0,1,0,0,39,39,47,NA,NA,NA,NA,NA,NA,NA,NA,NA,NA,NA,"num_2",1.10723939999298,"num_2",0.55,0.6,0.5,1.4,19.10275,53.48771,"return",9.392225100004,NA,NA,NA,NA,NA,NA,NA,NA,NA,NA,NA,NA,NA,NA,NA,NA,716,21,"female","left_right_width","2024-08-27_12h59.14.923","exp1","2023.1.0",60.0698371965243,NA
"105",NA,NA,NA,NA,NA,NA,NA,NA,NA,NA,NA,NA,NA,NA,NA,NA,4,8.825,9.60833333333333,10.3916666666667,11.175,0,0.783333333333333,0.533333333333333,0.25,2.6,10,"match",36.05,318,346,375,403,0,9,9,9,9,0,NA,NA,NA,NA,NA,NA,1,0,1,0,0,40,40,5,NA,NA,NA,NA,NA,NA,NA,NA,NA,NA,NA,"num_3",2.67729490000056,"num_3",0.3,0.4,0.25,0.65,9.55138,24.83358,"return",3.28356539999368,NA,NA,NA,NA,NA,NA,NA,NA,NA,NA,NA,NA,NA,NA,NA,NA,716,21,"female","left_right_width","2024-08-27_12h59.14.923","exp1","2023.1.0",60.0698371965243,NA
"106",NA,NA,NA,NA,NA,NA,NA,NA,NA,NA,NA,NA,NA,NA,NA,NA,5,8.275,9.1375,10,10.8625,11.725,0.8625,0.6125,0.25,3.7,10,"match",36.05,298,329,361,392,423,9,9,9,9,9,NA,NA,NA,NA,NA,NA,1,0,1,0,0,41,41,22,NA,NA,NA,NA,NA,NA,NA,NA,NA,NA,NA,"num_5",3.59227660000033,"num_5",0.4,0.5,0.15,0.55,5.73083,21.01303,"return",6.54656989999057,NA,NA,NA,NA,NA,NA,NA,NA,NA,NA,NA,NA,NA,NA,NA,NA,716,21,"female","left_right_width","2024-08-27_12h59.14.923","exp1","2023.1.0",60.0698371965243,NA
"107",NA,NA,NA,NA,NA,NA,NA,NA,NA,NA,NA,NA,NA,NA,NA,NA,4,8.65,9.55,10.45,11.35,0,0.9,0.5,0.4,3.1,10,"initial",36.05,312,344,377,409,0,9,9,9,9,0,NA,NA,NA,NA,NA,NA,1,0,1,0,0,42,42,32,NA,NA,NA,NA,NA,NA,NA,NA,NA,NA,NA,"num_3",1.39435550000053,"num_3",0.35,0.8,0.3,0.85,11.46165,32.47468,"return",3.31803760000912,NA,NA,NA,NA,NA,NA,NA,NA,NA,NA,NA,NA,NA,NA,NA,NA,716,21,"female","left_right_width","2024-08-27_12h59.14.923","exp1","2023.1.0",60.0698371965243,NA
"108",NA,NA,NA,NA,NA,NA,NA,NA,NA,NA,NA,NA,NA,NA,NA,NA,5,8.6,9.3,10,10.7,11.4,0.7,0.3,0.4,3.2,10,"initial",36.05,310,335,361,386,411,9,9,9,9,9,NA,NA,NA,NA,NA,NA,1,0,1,0,0,43,43,44,NA,NA,NA,NA,NA,NA,NA,NA,NA,NA,NA,"num_5",6.76622530000168,"num_5",0.55,0.8,0.4,0.8,15.2822,30.5644,"return",3.13501359999646,NA,NA,NA,NA,NA,NA,NA,NA,NA,NA,NA,NA,NA,NA,NA,NA,716,21,"female","left_right_width","2024-08-27_12h59.14.923","exp1","2023.1.0",60.0698371965243,NA
"109",NA,NA,NA,NA,NA,NA,NA,NA,NA,NA,NA,NA,NA,NA,NA,NA,5,8.6,9.3,10,10.7,11.4,0.7,0.15,0.55,3.35,10,"initial",36.05,310,335,361,386,411,9,9,9,9,9,NA,NA,NA,NA,NA,NA,1,0,1,0,0,44,44,40,NA,NA,NA,NA,NA,NA,NA,NA,NA,NA,NA,"num_4",3.60413199999311,"num_4",0.3,1.1,0.45,0.7,17.19248,26.74385,"return",6.09544659999665,NA,NA,NA,NA,NA,NA,NA,NA,NA,NA,NA,NA,NA,NA,NA,NA,716,21,"female","left_right_width","2024-08-27_12h59.14.923","exp1","2023.1.0",60.0698371965243,NA
"110",NA,NA,NA,NA,NA,NA,NA,NA,NA,NA,NA,NA,NA,NA,NA,NA,3,7.8,10,12.2,0,0,2.2,1.95,0.25,4.65,10,"match",36.05,281,361,440,0,0,9,9,9,0,0,NA,NA,NA,NA,NA,NA,1,0,1,0,0,45,45,37,NA,NA,NA,NA,NA,NA,NA,NA,NA,NA,NA,"num_3",1.72070249999524,"num_3",0.35,1,0.15,1.45,5.73083,55.39798,"return",9.06902379999519,NA,NA,NA,NA,NA,NA,NA,NA,NA,NA,NA,NA,NA,NA,NA,NA,716,21,"female","left_right_width","2024-08-27_12h59.14.923","exp1","2023.1.0",60.0698371965243,NA
"111",NA,NA,NA,NA,NA,NA,NA,NA,NA,NA,NA,NA,NA,NA,NA,NA,5,8.35,9.175,10,10.825,11.65,0.825,0.575,0.25,3.55,10,"match",36.05,301,331,361,390,420,9,9,9,9,9,NA,NA,NA,NA,NA,NA,1,0,1,0,0,46,46,20,NA,NA,NA,NA,NA,NA,NA,NA,NA,NA,NA,"num_4",2.62280369999644,"num_4",0.45,1,0.25,1,9.55138,38.2055,"return",5.44506790000014,NA,NA,NA,NA,NA,NA,NA,NA,NA,NA,NA,NA,NA,NA,NA,NA,716,21,"female","left_right_width","2024-08-27_12h59.14.923","exp1","2023.1.0",60.0698371965243,NA
"112",NA,NA,NA,NA,NA,NA,NA,NA,NA,NA,NA,NA,NA,NA,NA,NA,4,8.9,9.63333333333333,10.3666666666667,11.1,0,0.733333333333333,0.483333333333333,0.25,2.45,10,"match",36.05,321,347,374,400,0,9,9,9,9,0,NA,NA,NA,NA,NA,NA,1,0,1,0,0,47,47,3,NA,NA,NA,NA,NA,NA,NA,NA,NA,NA,NA,"num_3",1.72383590000391,"num_3",0.3,0.8,0.2,0.9,7.6411,34.38495,"return",7.98483309999574,NA,NA,NA,NA,NA,NA,NA,NA,NA,NA,NA,NA,NA,NA,NA,NA,716,21,"female","left_right_width","2024-08-27_12h59.14.923","exp1","2023.1.0",60.0698371965243,NA
"113",NA,NA,NA,NA,NA,NA,NA,NA,NA,NA,NA,NA,NA,NA,NA,NA,3,9.1,10,10.9,0,0,0.9,0.5,0.4,2.2,10,"initial",36.05,328,361,393,0,0,9,9,9,0,0,NA,NA,NA,NA,NA,NA,1,0,1,0,0,48,48,15,NA,NA,NA,NA,NA,NA,NA,NA,NA,NA,NA,"num_2",1.68259690000559,"num_2",0.4,0.6,0.45,0.9,17.19248,34.38495,"return",3.67495030000282,NA,NA,NA,NA,NA,NA,NA,NA,NA,NA,NA,NA,NA,NA,NA,NA,716,21,"female","left_right_width","2024-08-27_12h59.14.923","exp1","2023.1.0",60.0698371965243,NA
"114",NA,NA,NA,NA,NA,NA,NA,NA,NA,NA,NA,NA,NA,NA,NA,NA,5,8.6,9.3,10,10.7,11.4,0.7,0.45,0.25,3.05,10,"initial",36.05,310,335,361,386,411,9,9,9,9,9,NA,NA,NA,NA,NA,NA,1,0,1,0,0,49,49,42,NA,NA,NA,NA,NA,NA,NA,NA,NA,NA,NA,"num_4",4.26632170000812,"num_4",0.25,0.7,0.3,0.7,11.46165,26.74385,"return",4.24755299999379,NA,NA,NA,NA,NA,NA,NA,NA,NA,NA,NA,NA,NA,NA,NA,NA,716,21,"female","left_right_width","2024-08-27_12h59.14.923","exp1","2023.1.0",60.0698371965243,NA
"115",NA,NA,NA,NA,NA,NA,NA,NA,NA,NA,NA,NA,NA,NA,NA,NA,4,8.9,9.63333333333333,10.3666666666667,11.1,0,0.733333333333333,0.183333333333333,0.55,2.75,10,"match",36.05,321,347,374,400,0,9,9,9,9,0,NA,NA,NA,NA,NA,NA,1,0,1,0,0,50,50,1,NA,NA,NA,NA,NA,NA,NA,NA,NA,NA,NA,"num_2",2.85219259999576,"num_2",0.2,0.6,0.65,1,24.83358,38.2055,"return",4.62507729999197,NA,NA,NA,NA,NA,NA,NA,NA,NA,NA,NA,NA,NA,NA,NA,NA,716,21,"female","left_right_width","2024-08-27_12h59.14.923","exp1","2023.1.0",60.0698371965243,NA
"116",NA,NA,NA,NA,NA,NA,NA,NA,NA,NA,NA,NA,NA,NA,NA,NA,5,7.8,8.9,10,11.1,12.2,1.1,0.85,0.25,4.65,10,"initial",36.05,281,321,361,400,440,9,9,9,9,9,NA,NA,NA,NA,NA,NA,1,0,1,0,0,51,51,36,NA,NA,NA,NA,NA,NA,NA,NA,NA,NA,NA,"num_5",2.38524950000283,"num_5",0.35,0.7,0.2,0.7,7.6411,26.74385,"return",3.25870700000087,NA,NA,NA,NA,NA,NA,NA,NA,NA,NA,NA,NA,NA,NA,NA,NA,716,21,"female","left_right_width","2024-08-27_12h59.14.923","exp1","2023.1.0",60.0698371965243,NA
"117",NA,NA,NA,NA,NA,NA,NA,NA,NA,NA,NA,NA,NA,NA,NA,NA,NA,NA,NA,NA,NA,NA,NA,NA,NA,NA,NA,NA,NA,NA,NA,NA,NA,NA,NA,NA,NA,NA,NA,NA,NA,NA,NA,NA,NA,1,0,1,0,NA,NA,NA,NA,NA,NA,NA,NA,NA,NA,NA,NA,NA,NA,NA,NA,NA,NA,NA,NA,NA,NA,NA,NA,NA,NA,NA,NA,1815.0751342,1815.0751342,1815.0751342,NA,NA,NA,NA,NA,NA,NA,NA,NA,NA,NA,716,21,"female","left_right_width","2024-08-27_12h59.14.923","exp1","2023.1.0",60.0698371965243,NA
"118",NA,NA,NA,NA,NA,NA,NA,NA,NA,NA,NA,NA,NA,NA,NA,NA,4,8.35,9.45,10.55,11.65,0,1.1,0.7,0.4,3.7,10,"initial",36.05,301,341,380,420,0,9,9,9,9,0,NA,NA,NA,NA,NA,NA,2,0,2,0,0,0,0,21,NA,NA,NA,NA,NA,NA,NA,NA,NA,NA,NA,"num_3",1.38044599999557,"num_3",0.45,1.2,0.4,1.1,15.2822,42.02605,"return",8.23512450000271,NA,NA,NA,NA,NA,NA,NA,NA,NA,NA,NA,NA,NA,NA,NA,NA,716,21,"female","left_right_width","2024-08-27_12h59.14.923","exp1","2023.1.0",60.0698371965243,NA
"119",NA,NA,NA,NA,NA,NA,NA,NA,NA,NA,NA,NA,NA,NA,NA,NA,4,8.65,9.55,10.45,11.35,0,0.9,0.35,0.55,3.25,10,"initial",36.05,312,344,377,409,0,9,9,9,9,0,NA,NA,NA,NA,NA,NA,2,0,2,0,0,1,1,28,NA,NA,NA,NA,NA,NA,NA,NA,NA,NA,NA,"num_3",1.87121850000403,"num_3",0.45,1,0.55,1,21.01303,38.2055,"return",3.41124569998647,NA,NA,NA,NA,NA,NA,NA,NA,NA,NA,NA,NA,NA,NA,NA,NA,716,21,"female","left_right_width","2024-08-27_12h59.14.923","exp1","2023.1.0",60.0698371965243,NA
"120",NA,NA,NA,NA,NA,NA,NA,NA,NA,NA,NA,NA,NA,NA,NA,NA,4,9.1,9.7,10.3,10.9,0,0.6,0.05,0.55,2.35,10,"match",36.05,328,350,371,393,0,9,9,9,9,0,NA,NA,NA,NA,NA,NA,2,0,2,0,0,2,2,12,NA,NA,NA,NA,NA,NA,NA,NA,NA,NA,NA,"num_3",1.84924169999431,"num_3",0.35,0.5,0.7,0.75,26.74385,28.65413,"return",11.373154099987,NA,NA,NA,NA,NA,NA,NA,NA,NA,NA,NA,NA,NA,NA,NA,NA,716,21,"female","left_right_width","2024-08-27_12h59.14.923","exp1","2023.1.0",60.0698371965243,NA
"121",NA,NA,NA,NA,NA,NA,NA,NA,NA,NA,NA,NA,NA,NA,NA,NA,3,9.3,10,10.7,0,0,0.7,0.45,0.25,1.65,10,"initial",36.05,335,361,386,0,0,9,9,9,0,0,NA,NA,NA,NA,NA,NA,2,0,2,0,0,3,3,7,NA,NA,NA,NA,NA,NA,NA,NA,NA,NA,NA,"num_3",2.82384969999839,"num_3",0.4,0.5,0.2,0.65,7.6411,24.83358,"return",5.79487550001068,NA,NA,NA,NA,NA,NA,NA,NA,NA,NA,NA,NA,NA,NA,NA,NA,716,21,"female","left_right_width","2024-08-27_12h59.14.923","exp1","2023.1.0",60.0698371965243,NA
"122",NA,NA,NA,NA,NA,NA,NA,NA,NA,NA,NA,NA,NA,NA,NA,NA,3,7.8,10,12.2,0,0,2.2,1.95,0.25,4.65,10,"match",36.05,281,361,440,0,0,9,9,9,0,0,NA,NA,NA,NA,NA,NA,2,0,2,0,0,4,4,37,NA,NA,NA,NA,NA,NA,NA,NA,NA,NA,NA,"num_3",1.38178429999971,"num_3",0.2,0.7,0.2,1.55,7.6411,59.21853,"return",5.51278489999822,NA,NA,NA,NA,NA,NA,NA,NA,NA,NA,NA,NA,NA,NA,NA,NA,716,21,"female","left_right_width","2024-08-27_12h59.14.923","exp1","2023.1.0",60.0698371965243,NA
"123",NA,NA,NA,NA,NA,NA,NA,NA,NA,NA,NA,NA,NA,NA,NA,NA,5,8.2,9.1,10,10.9,11.8,0.9,0.5,0.4,4,10,"initial",36.05,296,328,361,393,425,9,9,9,9,9,NA,NA,NA,NA,NA,NA,2,0,2,0,0,5,5,50,NA,NA,NA,NA,NA,NA,NA,NA,NA,NA,NA,"num_4",3.39458799999557,"num_4",0.2,0.7,0.35,0.8,13.37193,30.5644,"return",7.61925509999855,NA,NA,NA,NA,NA,NA,NA,NA,NA,NA,NA,NA,NA,NA,NA,NA,716,21,"female","left_right_width","2024-08-27_12h59.14.923","exp1","2023.1.0",60.0698371965243,NA
"124",NA,NA,NA,NA,NA,NA,NA,NA,NA,NA,NA,NA,NA,NA,NA,NA,5,8.6,9.3,10,10.7,11.4,0.7,0.3,0.4,3.2,10,"initial",36.05,310,335,361,386,411,9,9,9,9,9,NA,NA,NA,NA,NA,NA,2,0,2,0,0,6,6,44,NA,NA,NA,NA,NA,NA,NA,NA,NA,NA,NA,"num_4",3.5140481999988,"num_4",0.45,1.2,0.35,0.8,13.37193,30.5644,"return",6.28171489998931,NA,NA,NA,NA,NA,NA,NA,NA,NA,NA,NA,NA,NA,NA,NA,NA,716,21,"female","left_right_width","2024-08-27_12h59.14.923","exp1","2023.1.0",60.0698371965243,NA
"125",NA,NA,NA,NA,NA,NA,NA,NA,NA,NA,NA,NA,NA,NA,NA,NA,3,8.525,10,11.475,0,0,1.475,1.225,0.25,3.2,10,"match",36.05,307,361,414,0,0,9,9,9,0,0,NA,NA,NA,NA,NA,NA,2,0,2,0,0,7,7,45,NA,NA,NA,NA,NA,NA,NA,NA,NA,NA,NA,"num_2",1.51786309998715,"num_2",0.4,1,0.2,1.3,7.6411,49.66716,"return",3.54741089999152,NA,NA,NA,NA,NA,NA,NA,NA,NA,NA,NA,NA,NA,NA,NA,NA,716,21,"female","left_right_width","2024-08-27_12h59.14.923","exp1","2023.1.0",60.0698371965243,NA
"126",NA,NA,NA,NA,NA,NA,NA,NA,NA,NA,NA,NA,NA,NA,NA,NA,3,9.3,10,10.7,0,0,0.7,0.3,0.4,1.8,10,"initial",36.05,335,361,386,0,0,9,9,9,0,0,NA,NA,NA,NA,NA,NA,2,0,2,0,0,8,8,9,NA,NA,NA,NA,NA,NA,NA,NA,NA,NA,NA,"num_2",1.29576969999471,"num_2",0.5,1.6,0.4,0.8,15.2822,30.5644,"return",4.37204590000329,NA,NA,NA,NA,NA,NA,NA,NA,NA,NA,NA,NA,NA,NA,NA,NA,716,21,"female","left_right_width","2024-08-27_12h59.14.923","exp1","2023.1.0",60.0698371965243,NA
"127",NA,NA,NA,NA,NA,NA,NA,NA,NA,NA,NA,NA,NA,NA,NA,NA,4,9.3,9.76666666666667,10.2333333333333,10.7,0,0.466666666666667,0.0666666666666667,0.4,1.8,10,"match",36.05,335,352,369,386,0,9,9,9,9,0,NA,NA,NA,NA,NA,NA,2,0,2,0,0,9,9,10,NA,NA,NA,NA,NA,NA,NA,NA,NA,NA,NA,"num_2",4.48946269998851,"num_2",0.5,0.6,0.5,0.6,19.10275,22.9233,"return",1.37780319999729,NA,NA,NA,NA,NA,NA,NA,NA,NA,NA,NA,NA,NA,NA,NA,NA,716,21,"female","left_right_width","2024-08-27_12h59.14.923","exp1","2023.1.0",60.0698371965243,NA
"128",NA,NA,NA,NA,NA,NA,NA,NA,NA,NA,NA,NA,NA,NA,NA,NA,3,9.3,10,10.7,0,0,0.7,0.15,0.55,1.95,10,"initial",36.05,335,361,386,0,0,9,9,9,0,0,NA,NA,NA,NA,NA,NA,2,0,2,0,0,10,10,6,NA,NA,NA,NA,NA,NA,NA,NA,NA,NA,NA,"num_2",1.28458629999659,"num_2",0.2,1.4,0.55,0.8,21.01303,30.5644,"return",8.85645409999415,NA,NA,NA,NA,NA,NA,NA,NA,NA,NA,NA,NA,NA,NA,NA,NA,716,21,"female","left_right_width","2024-08-27_12h59.14.923","exp1","2023.1.0",60.0698371965243,NA
"129",NA,NA,NA,NA,NA,NA,NA,NA,NA,NA,NA,NA,NA,NA,NA,NA,3,8.6,10,11.4,0,0,1.4,1.15,0.25,3.05,10,"match",36.05,310,361,411,0,0,9,9,9,0,0,NA,NA,NA,NA,NA,NA,2,0,2,0,0,11,11,43,NA,NA,NA,NA,NA,NA,NA,NA,NA,NA,NA,"num_2",1.21003020000353,"num_2",0.2,0.8,0.25,1.3,9.55138,49.66716,"return",4.48388040000282,NA,NA,NA,NA,NA,NA,NA,NA,NA,NA,NA,NA,NA,NA,NA,NA,716,21,"female","left_right_width","2024-08-27_12h59.14.923","exp1","2023.1.0",60.0698371965243,NA
"130",NA,NA,NA,NA,NA,NA,NA,NA,NA,NA,NA,NA,NA,NA,NA,NA,5,8.2,9.1,10,10.9,11.8,0.9,0.35,0.55,4.15,10,"initial",36.05,296,328,361,393,425,9,9,9,9,9,NA,NA,NA,NA,NA,NA,2,0,2,0,0,12,12,46,NA,NA,NA,NA,NA,NA,NA,NA,NA,NA,NA,"num_4",2.31596010000794,"num_4",0.4,1,0.45,1,17.19248,38.2055,"return",3.14727009998751,NA,NA,NA,NA,NA,NA,NA,NA,NA,NA,NA,NA,NA,NA,NA,NA,716,21,"female","left_right_width","2024-08-27_12h59.14.923","exp1","2023.1.0",60.0698371965243,NA
"131",NA,NA,NA,NA,NA,NA,NA,NA,NA,NA,NA,NA,NA,NA,NA,NA,5,8.6,9.3,10,10.7,11.4,0.7,0.45,0.25,3.05,10,"initial",36.05,310,335,361,386,411,9,9,9,9,9,NA,NA,NA,NA,NA,NA,2,0,2,0,0,13,13,42,NA,NA,NA,NA,NA,NA,NA,NA,NA,NA,NA,"num_4",2.46584949998942,"num_4",0.45,1.2,0.25,1,9.55138,38.2055,"return",3.52865519998886,NA,NA,NA,NA,NA,NA,NA,NA,NA,NA,NA,NA,NA,NA,NA,NA,716,21,"female","left_right_width","2024-08-27_12h59.14.923","exp1","2023.1.0",60.0698371965243,NA
"132",NA,NA,NA,NA,NA,NA,NA,NA,NA,NA,NA,NA,NA,NA,NA,NA,4,9.1,9.7,10.3,10.9,0,0.6,0.2,0.4,2.2,10,"match",36.05,328,350,371,393,0,9,9,9,9,0,NA,NA,NA,NA,NA,NA,2,0,2,0,0,14,14,16,NA,NA,NA,NA,NA,NA,NA,NA,NA,NA,NA,"num_3",1.32085509998433,"num_3",0.3,1.2,0.35,0.8,13.37193,30.5644,"return",4.65299419999064,NA,NA,NA,NA,NA,NA,NA,NA,NA,NA,NA,NA,NA,NA,NA,NA,716,21,"female","left_right_width","2024-08-27_12h59.14.923","exp1","2023.1.0",60.0698371965243,NA
"133",NA,NA,NA,NA,NA,NA,NA,NA,NA,NA,NA,NA,NA,NA,NA,NA,4,9.1,9.7,10.3,10.9,0,0.6,0.35,0.25,2.05,10,"match",36.05,328,350,371,393,0,9,9,9,9,0,NA,NA,NA,NA,NA,NA,2,0,2,0,0,15,15,14,NA,NA,NA,NA,NA,NA,NA,NA,NA,NA,NA,"num_3",1.27973749999364,"num_3",0.3,0.9,0.25,0.9,9.55138,34.38495,"return",1.91169139998965,NA,NA,NA,NA,NA,NA,NA,NA,NA,NA,NA,NA,NA,NA,NA,NA,716,21,"female","left_right_width","2024-08-27_12h59.14.923","exp1","2023.1.0",60.0698371965243,NA
"134",NA,NA,NA,NA,NA,NA,NA,NA,NA,NA,NA,NA,NA,NA,NA,NA,5,8.2,9.1,10,10.9,11.8,0.9,0.65,0.25,3.85,10,"initial",36.05,296,328,361,393,425,9,9,9,9,9,NA,NA,NA,NA,NA,NA,2,0,2,0,0,16,16,48,NA,NA,NA,NA,NA,NA,NA,NA,NA,NA,NA,"num_5",2.64905419999559,"num_5",0.3,1.2,0.25,0.8,9.55138,30.5644,"return",12.2212050999951,NA,NA,NA,NA,NA,NA,NA,NA,NA,NA,NA,NA,NA,NA,NA,NA,716,21,"female","left_right_width","2024-08-27_12h59.14.923","exp1","2023.1.0",60.0698371965243,NA
"135",NA,NA,NA,NA,NA,NA,NA,NA,NA,NA,NA,NA,NA,NA,NA,NA,3,9.1,10,10.9,0,0,0.9,0.35,0.55,2.35,10,"initial",36.05,328,361,393,0,0,9,9,9,0,0,NA,NA,NA,NA,NA,NA,2,0,2,0,0,17,17,11,NA,NA,NA,NA,NA,NA,NA,NA,NA,NA,NA,"num_2",2.98337560000073,"num_2",0.5,1.2,0.55,1,21.01303,38.2055,"return",5.93517810000048,NA,NA,NA,NA,NA,NA,NA,NA,NA,NA,NA,NA,NA,NA,NA,NA,716,21,"female","left_right_width","2024-08-27_12h59.14.923","exp1","2023.1.0",60.0698371965243,NA
"136",NA,NA,NA,NA,NA,NA,NA,NA,NA,NA,NA,NA,NA,NA,NA,NA,3,8.2,10,11.8,0,0,1.8,1.4,0.4,4,10,"match",36.05,296,361,425,0,0,9,9,9,0,0,NA,NA,NA,NA,NA,NA,2,0,2,0,0,18,18,51,NA,NA,NA,NA,NA,NA,NA,NA,NA,NA,NA,"num_2",1.50336269999389,"num_2",0.55,1.4,0.35,1.7,13.37193,64.94936,"return",5.39088540000375,NA,NA,NA,NA,NA,NA,NA,NA,NA,NA,NA,NA,NA,NA,NA,NA,716,21,"female","left_right_width","2024-08-27_12h59.14.923","exp1","2023.1.0",60.0698371965243,NA
"137",NA,NA,NA,NA,NA,NA,NA,NA,NA,NA,NA,NA,NA,NA,NA,NA,3,8.2,10,11.8,0,0,1.8,1.55,0.25,3.85,10,"match",36.05,296,361,425,0,0,9,9,9,0,0,NA,NA,NA,NA,NA,NA,2,0,2,0,0,19,19,49,NA,NA,NA,NA,NA,NA,NA,NA,NA,NA,NA,"num_3",1.73519849999866,"num_3",0.2,0.7,0.35,1.25,13.37193,47.75688,"return",5.2919372000033,NA,NA,NA,NA,NA,NA,NA,NA,NA,NA,NA,NA,NA,NA,NA,NA,716,21,"female","left_right_width","2024-08-27_12h59.14.923","exp1","2023.1.0",60.0698371965243,NA
"138",NA,NA,NA,NA,NA,NA,NA,NA,NA,NA,NA,NA,NA,NA,NA,NA,4,9.3,9.76666666666667,10.2333333333333,10.7,0,0.466666666666667,0.216666666666667,0.25,1.65,10,"match",36.05,335,352,369,386,0,9,9,9,9,0,NA,NA,NA,NA,NA,NA,2,0,2,0,0,20,20,8,NA,NA,NA,NA,NA,NA,NA,NA,NA,NA,NA,"num_3",1.35123280000698,"num_3",0.25,0.3,0.25,0.7,9.55138,26.74385,"return",3.98295170000347,NA,NA,NA,NA,NA,NA,NA,NA,NA,NA,NA,NA,NA,NA,NA,NA,716,21,"female","left_right_width","2024-08-27_12h59.14.923","exp1","2023.1.0",60.0698371965243,NA
"139",NA,NA,NA,NA,NA,NA,NA,NA,NA,NA,NA,NA,NA,NA,NA,NA,4,8.95,9.65,10.35,11.05,0,0.7,0.3,0.4,2.5,10,"initial",36.05,323,348,373,398,0,9,9,9,9,0,NA,NA,NA,NA,NA,NA,2,0,2,0,0,21,21,26,NA,NA,NA,NA,NA,NA,NA,NA,NA,NA,NA,"num_3",1.28294599999208,"num_3",0.25,1.2,0.4,0.75,15.2822,28.65413,"return",8.26514019999013,NA,NA,NA,NA,NA,NA,NA,NA,NA,NA,NA,NA,NA,NA,NA,NA,716,21,"female","left_right_width","2024-08-27_12h59.14.923","exp1","2023.1.0",60.0698371965243,NA
"140",NA,NA,NA,NA,NA,NA,NA,NA,NA,NA,NA,NA,NA,NA,NA,NA,5,7.8,8.9,10,11.1,12.2,1.1,0.85,0.25,4.65,10,"initial",36.05,281,321,361,400,440,9,9,9,9,9,NA,NA,NA,NA,NA,NA,2,0,2,0,0,22,22,36,NA,NA,NA,NA,NA,NA,NA,NA,NA,NA,NA,"num_4",2.17362379998667,"num_4",0.45,1.1,0.25,1.1,9.55138,42.02605,"return",2.12987919998705,NA,NA,NA,NA,NA,NA,NA,NA,NA,NA,NA,NA,NA,NA,NA,NA,716,21,"female","left_right_width","2024-08-27_12h59.14.923","exp1","2023.1.0",60.0698371965243,NA
"141",NA,NA,NA,NA,NA,NA,NA,NA,NA,NA,NA,NA,NA,NA,NA,NA,4,8.9,9.63333333333333,10.3666666666667,11.1,0,0.733333333333333,0.483333333333333,0.25,2.45,10,"match",36.05,321,347,374,400,0,9,9,9,9,0,NA,NA,NA,NA,NA,NA,2,0,2,0,0,23,23,3,NA,NA,NA,NA,NA,NA,NA,NA,NA,NA,NA,"num_3",1.70965330000035,"num_3",0.4,1.3,0.25,1.1,9.55138,42.02605,"return",4.63269610000134,NA,NA,NA,NA,NA,NA,NA,NA,NA,NA,NA,NA,NA,NA,NA,NA,716,21,"female","left_right_width","2024-08-27_12h59.14.923","exp1","2023.1.0",60.0698371965243,NA
"142",NA,NA,NA,NA,NA,NA,NA,NA,NA,NA,NA,NA,NA,NA,NA,NA,5,8.65,9.325,10,10.675,11.35,0.675,0.275,0.4,3.1,10,"match",36.05,312,336,361,385,409,9,9,9,9,9,NA,NA,NA,NA,NA,NA,2,0,2,0,0,24,24,33,NA,NA,NA,NA,NA,NA,NA,NA,NA,NA,NA,"num_4",4.45604839999578,"num_4",0.3,0.4,0.3,0.8,11.46165,30.5644,"return",3.82899859998724,NA,NA,NA,NA,NA,NA,NA,NA,NA,NA,NA,NA,NA,NA,NA,NA,716,21,"female","left_right_width","2024-08-27_12h59.14.923","exp1","2023.1.0",60.0698371965243,NA
"143",NA,NA,NA,NA,NA,NA,NA,NA,NA,NA,NA,NA,NA,NA,NA,NA,4,8.95,9.65,10.35,11.05,0,0.7,0.45,0.25,2.35,10,"initial",36.05,323,348,373,398,0,9,9,9,9,0,NA,NA,NA,NA,NA,NA,2,0,2,0,0,25,25,24,NA,NA,NA,NA,NA,NA,NA,NA,NA,NA,NA,"num_3",1.36801849999756,"num_3",0.4,0.5,0.25,0.75,9.55138,28.65413,"return",7.91987730000983,NA,NA,NA,NA,NA,NA,NA,NA,NA,NA,NA,NA,NA,NA,NA,NA,716,21,"female","left_right_width","2024-08-27_12h59.14.923","exp1","2023.1.0",60.0698371965243,NA
"144",NA,NA,NA,NA,NA,NA,NA,NA,NA,NA,NA,NA,NA,NA,NA,NA,5,8.6,9.3,10,10.7,11.4,0.7,0.15,0.55,3.35,10,"initial",36.05,310,335,361,386,411,9,9,9,9,9,NA,NA,NA,NA,NA,NA,2,0,2,0,0,26,26,40,NA,NA,NA,NA,NA,NA,NA,NA,NA,NA,NA,"num_4",2.98270540000522,"num_4",0.25,0.6,0.6,0.7,22.9233,26.74385,"return",9.01903869998932,NA,NA,NA,NA,NA,NA,NA,NA,NA,NA,NA,NA,NA,NA,NA,NA,716,21,"female","left_right_width","2024-08-27_12h59.14.923","exp1","2023.1.0",60.0698371965243,NA
"145",NA,NA,NA,NA,NA,NA,NA,NA,NA,NA,NA,NA,NA,NA,NA,NA,3,7.8,10,12.2,0,0,2.2,1.8,0.4,4.8,10,"match",36.05,281,361,440,0,0,9,9,9,0,0,NA,NA,NA,NA,NA,NA,2,0,2,0,0,27,27,39,NA,NA,NA,NA,NA,NA,NA,NA,NA,NA,NA,"num_3",1.44740109999839,"num_3",0.2,0.9,0.55,1.25,21.01303,47.75688,"return",7.89694940000481,NA,NA,NA,NA,NA,NA,NA,NA,NA,NA,NA,NA,NA,NA,NA,NA,716,21,"female","left_right_width","2024-08-27_12h59.14.923","exp1","2023.1.0",60.0698371965243,NA
"146",NA,NA,NA,NA,NA,NA,NA,NA,NA,NA,NA,NA,NA,NA,NA,NA,5,8.275,9.1375,10,10.8625,11.725,0.8625,0.6125,0.25,3.7,10,"match",36.05,298,329,361,392,423,9,9,9,9,9,NA,NA,NA,NA,NA,NA,2,0,2,0,0,28,28,22,NA,NA,NA,NA,NA,NA,NA,NA,NA,NA,NA,"num_4",1.83244140000897,"num_4",0.4,0.5,0.3,0.9,11.46165,34.38495,"return",3.72526099999959,NA,NA,NA,NA,NA,NA,NA,NA,NA,NA,NA,NA,NA,NA,NA,NA,716,21,"female","left_right_width","2024-08-27_12h59.14.923","exp1","2023.1.0",60.0698371965243,NA
"147",NA,NA,NA,NA,NA,NA,NA,NA,NA,NA,NA,NA,NA,NA,NA,NA,4,8.95,9.65,10.35,11.05,0,0.7,0.15,0.55,2.65,10,"initial",36.05,323,348,373,398,0,9,9,9,9,0,NA,NA,NA,NA,NA,NA,2,0,2,0,0,29,29,23,NA,NA,NA,NA,NA,NA,NA,NA,NA,NA,NA,"num_4",3.55313879999449,"num_4",0.3,0.4,0.55,0.7,21.01303,26.74385,"return",4.3962601999956,NA,NA,NA,NA,NA,NA,NA,NA,NA,NA,NA,NA,NA,NA,NA,NA,716,21,"female","left_right_width","2024-08-27_12h59.14.923","exp1","2023.1.0",60.0698371965243,NA
"148",NA,NA,NA,NA,NA,NA,NA,NA,NA,NA,NA,NA,NA,NA,NA,NA,3,9.1,10,10.9,0,0,0.9,0.65,0.25,2.05,10,"initial",36.05,328,361,393,0,0,9,9,9,0,0,NA,NA,NA,NA,NA,NA,2,0,2,0,0,30,30,13,NA,NA,NA,NA,NA,NA,NA,NA,NA,NA,NA,"num_2",1.30158970000048,"num_2",0.25,0.8,0.25,0.9,9.55138,34.38495,"return",4.27139680000255,NA,NA,NA,NA,NA,NA,NA,NA,NA,NA,NA,NA,NA,NA,NA,NA,716,21,"female","left_right_width","2024-08-27_12h59.14.923","exp1","2023.1.0",60.0698371965243,NA
"149",NA,NA,NA,NA,NA,NA,NA,NA,NA,NA,NA,NA,NA,NA,NA,NA,4,8.65,9.55,10.45,11.35,0,0.9,0.5,0.4,3.1,10,"initial",36.05,312,344,377,409,0,9,9,9,9,0,NA,NA,NA,NA,NA,NA,2,0,2,0,0,31,31,32,NA,NA,NA,NA,NA,NA,NA,NA,NA,NA,NA,"num_3",1.32692999999563,"num_3",0.45,0.5,0.4,0.75,15.2822,28.65413,"return",3.22354770000675,NA,NA,NA,NA,NA,NA,NA,NA,NA,NA,NA,NA,NA,NA,NA,NA,716,21,"female","left_right_width","2024-08-27_12h59.14.923","exp1","2023.1.0",60.0698371965243,NA
"150",NA,NA,NA,NA,NA,NA,NA,NA,NA,NA,NA,NA,NA,NA,NA,NA,4,8.35,9.45,10.55,11.65,0,1.1,0.85,0.25,3.55,10,"initial",36.05,301,341,380,420,0,9,9,9,9,0,NA,NA,NA,NA,NA,NA,2,0,2,0,0,32,32,19,NA,NA,NA,NA,NA,NA,NA,NA,NA,NA,NA,"num_3",1.09149349998916,"num_3",0.45,0.5,0.2,0.85,7.6411,32.47468,"return",5.21780969998508,NA,NA,NA,NA,NA,NA,NA,NA,NA,NA,NA,NA,NA,NA,NA,NA,716,21,"female","left_right_width","2024-08-27_12h59.14.923","exp1","2023.1.0",60.0698371965243,NA
"151",NA,NA,NA,NA,NA,NA,NA,NA,NA,NA,NA,NA,NA,NA,NA,NA,3,8.9,10,11.1,0,0,1.1,0.55,0.55,2.75,10,"initial",36.05,321,361,400,0,0,9,9,9,0,0,NA,NA,NA,NA,NA,NA,2,0,2,0,0,33,33,0,NA,NA,NA,NA,NA,NA,NA,NA,NA,NA,NA,"num_2",1.40073409999604,"num_2",0.4,0.6,0.5,1,19.10275,38.2055,"return",6.97201369999675,NA,NA,NA,NA,NA,NA,NA,NA,NA,NA,NA,NA,NA,NA,NA,NA,716,21,"female","left_right_width","2024-08-27_12h59.14.923","exp1","2023.1.0",60.0698371965243,NA
"152",NA,NA,NA,NA,NA,NA,NA,NA,NA,NA,NA,NA,NA,NA,NA,NA,5,8.35,9.175,10,10.825,11.65,0.825,0.575,0.25,3.55,10,"match",36.05,301,331,361,390,420,9,9,9,9,9,NA,NA,NA,NA,NA,NA,2,0,2,0,0,34,34,20,NA,NA,NA,NA,NA,NA,NA,NA,NA,NA,NA,"num_4",2.34832419999293,"num_4",0.45,0.7,0.25,0.7,9.55138,26.74385,"return",2.15417789999628,NA,NA,NA,NA,NA,NA,NA,NA,NA,NA,NA,NA,NA,NA,NA,NA,716,21,"female","left_right_width","2024-08-27_12h59.14.923","exp1","2023.1.0",60.0698371965243,NA
"153",NA,NA,NA,NA,NA,NA,NA,NA,NA,NA,NA,NA,NA,NA,NA,NA,5,7.8,8.9,10,11.1,12.2,1.1,0.55,0.55,4.95,10,"initial",36.05,281,321,361,400,440,9,9,9,9,9,NA,NA,NA,NA,NA,NA,2,0,2,0,0,35,35,34,NA,NA,NA,NA,NA,NA,NA,NA,NA,NA,NA,"num_5",4.13879619998625,"num_5",0.45,1,0.4,0.9,15.2822,34.38495,"return",3.56870559998788,NA,NA,NA,NA,NA,NA,NA,NA,NA,NA,NA,NA,NA,NA,NA,NA,716,21,"female","left_right_width","2024-08-27_12h59.14.923","exp1","2023.1.0",60.0698371965243,NA
"154",NA,NA,NA,NA,NA,NA,NA,NA,NA,NA,NA,NA,NA,NA,NA,NA,3,8.6,10,11.4,0,0,1.4,0.85,0.55,3.35,10,"match",36.05,310,361,411,0,0,9,9,9,0,0,NA,NA,NA,NA,NA,NA,2,0,2,0,0,36,36,41,NA,NA,NA,NA,NA,NA,NA,NA,NA,NA,NA,"num_2",1.2873011000047,"num_2",0.25,0.8,0.6,1,22.9233,38.2055,"return",5.56786869998905,NA,NA,NA,NA,NA,NA,NA,NA,NA,NA,NA,NA,NA,NA,NA,NA,716,21,"female","left_right_width","2024-08-27_12h59.14.923","exp1","2023.1.0",60.0698371965243,NA
"155",NA,NA,NA,NA,NA,NA,NA,NA,NA,NA,NA,NA,NA,NA,NA,NA,3,8.2,10,11.8,0,0,1.8,1.25,0.55,4.15,10,"match",36.05,296,361,425,0,0,9,9,9,0,0,NA,NA,NA,NA,NA,NA,2,0,2,0,0,37,37,47,NA,NA,NA,NA,NA,NA,NA,NA,NA,NA,NA,"num_3",1.27471219998552,"num_3",0.45,1.3,0.45,1.3,17.19248,49.66716,"return",1.47597349999705,NA,NA,NA,NA,NA,NA,NA,NA,NA,NA,NA,NA,NA,NA,NA,NA,716,21,"female","left_right_width","2024-08-27_12h59.14.923","exp1","2023.1.0",60.0698371965243,NA
"156",NA,NA,NA,NA,NA,NA,NA,NA,NA,NA,NA,NA,NA,NA,NA,NA,5,8.95,9.475,10,10.525,11.05,0.525,0.275,0.25,2.35,10,"match",36.05,323,342,361,379,398,9,9,9,9,9,NA,NA,NA,NA,NA,NA,2,0,2,0,0,38,38,25,NA,NA,NA,NA,NA,NA,NA,NA,NA,NA,NA,"num_4",3.22868709999602,"num_4",0.45,0.5,0.3,0.5,11.46165,19.10275,"return",3.01541019999422,NA,NA,NA,NA,NA,NA,NA,NA,NA,NA,NA,NA,NA,NA,NA,NA,716,21,"female","left_right_width","2024-08-27_12h59.14.923","exp1","2023.1.0",60.0698371965243,NA
"157",NA,NA,NA,NA,NA,NA,NA,NA,NA,NA,NA,NA,NA,NA,NA,NA,5,8.65,9.325,10,10.675,11.35,0.675,0.125,0.55,3.25,10,"match",36.05,312,336,361,385,409,9,9,9,9,9,NA,NA,NA,NA,NA,NA,2,0,2,0,0,39,39,29,NA,NA,NA,NA,NA,NA,NA,NA,NA,NA,NA,"num_3",2.15452599999844,"num_3",0.35,0.5,0.65,0.8,24.83358,30.5644,"return",6.81977220000408,NA,NA,NA,NA,NA,NA,NA,NA,NA,NA,NA,NA,NA,NA,NA,NA,716,21,"female","left_right_width","2024-08-27_12h59.14.923","exp1","2023.1.0",60.0698371965243,NA
"158",NA,NA,NA,NA,NA,NA,NA,NA,NA,NA,NA,NA,NA,NA,NA,NA,4,8.65,9.55,10.45,11.35,0,0.9,0.65,0.25,2.95,10,"initial",36.05,312,344,377,409,0,9,9,9,9,0,NA,NA,NA,NA,NA,NA,2,0,2,0,0,40,40,30,NA,NA,NA,NA,NA,NA,NA,NA,NA,NA,NA,"num_3",1.36619739999878,"num_3",0.25,0.4,0.15,0.6,5.73083,22.9233,"return",6.35095199999341,NA,NA,NA,NA,NA,NA,NA,NA,NA,NA,NA,NA,NA,NA,NA,NA,716,21,"female","left_right_width","2024-08-27_12h59.14.923","exp1","2023.1.0",60.0698371965243,NA
"159",NA,NA,NA,NA,NA,NA,NA,NA,NA,NA,NA,NA,NA,NA,NA,NA,5,7.8,8.9,10,11.1,12.2,1.1,0.7,0.4,4.8,10,"initial",36.05,281,321,361,400,440,9,9,9,9,9,NA,NA,NA,NA,NA,NA,2,0,2,0,0,41,41,38,NA,NA,NA,NA,NA,NA,NA,NA,NA,NA,NA,"num_4",2.25094790000003,"num_4",0.35,1.1,0.4,1.1,15.2822,42.02605,"return",3.99558719999914,NA,NA,NA,NA,NA,NA,NA,NA,NA,NA,NA,NA,NA,NA,NA,NA,716,21,"female","left_right_width","2024-08-27_12h59.14.923","exp1","2023.1.0",60.0698371965243,NA
"160",NA,NA,NA,NA,NA,NA,NA,NA,NA,NA,NA,NA,NA,NA,NA,NA,4,8.825,9.60833333333333,10.3916666666667,11.175,0,0.783333333333333,0.533333333333333,0.25,2.6,10,"match",36.05,318,346,375,403,0,9,9,9,9,0,NA,NA,NA,NA,NA,NA,2,0,2,0,0,42,42,5,NA,NA,NA,NA,NA,NA,NA,NA,NA,NA,NA,"num_3",2.51355509999848,"num_3",0.35,0.8,0.2,0.8,7.6411,30.5644,"return",2.64476140000625,NA,NA,NA,NA,NA,NA,NA,NA,NA,NA,NA,NA,NA,NA,NA,NA,716,21,"female","left_right_width","2024-08-27_12h59.14.923","exp1","2023.1.0",60.0698371965243,NA
"161",NA,NA,NA,NA,NA,NA,NA,NA,NA,NA,NA,NA,NA,NA,NA,NA,5,8.65,9.325,10,10.675,11.35,0.675,0.425,0.25,2.95,10,"match",36.05,312,336,361,385,409,9,9,9,9,9,NA,NA,NA,NA,NA,NA,2,0,2,0,0,43,43,31,NA,NA,NA,NA,NA,NA,NA,NA,NA,NA,NA,"num_4",2.57910820000689,"num_4",0.35,1,0.25,0.6,9.55138,22.9233,"return",5.38651850000315,NA,NA,NA,NA,NA,NA,NA,NA,NA,NA,NA,NA,NA,NA,NA,NA,716,21,"female","left_right_width","2024-08-27_12h59.14.923","exp1","2023.1.0",60.0698371965243,NA
"162",NA,NA,NA,NA,NA,NA,NA,NA,NA,NA,NA,NA,NA,NA,NA,NA,5,8.35,9.175,10,10.825,11.65,0.825,0.275,0.55,3.85,10,"match",36.05,301,331,361,390,420,9,9,9,9,9,NA,NA,NA,NA,NA,NA,2,0,2,0,0,44,44,18,NA,NA,NA,NA,NA,NA,NA,NA,NA,NA,NA,"num_4",2.89086800000223,"num_4",0.25,1,0.65,1,24.83358,38.2055,"return",3.26797440000519,NA,NA,NA,NA,NA,NA,NA,NA,NA,NA,NA,NA,NA,NA,NA,NA,716,21,"female","left_right_width","2024-08-27_12h59.14.923","exp1","2023.1.0",60.0698371965243,NA
"163",NA,NA,NA,NA,NA,NA,NA,NA,NA,NA,NA,NA,NA,NA,NA,NA,3,9.1,10,10.9,0,0,0.9,0.5,0.4,2.2,10,"initial",36.05,328,361,393,0,0,9,9,9,0,0,NA,NA,NA,NA,NA,NA,2,0,2,0,0,45,45,15,NA,NA,NA,NA,NA,NA,NA,NA,NA,NA,NA,"num_2",1.16824949999864,"num_2",0.2,1,0.4,0.7,15.2822,26.74385,"return",5.87291989999358,NA,NA,NA,NA,NA,NA,NA,NA,NA,NA,NA,NA,NA,NA,NA,NA,716,21,"female","left_right_width","2024-08-27_12h59.14.923","exp1","2023.1.0",60.0698371965243,NA
"164",NA,NA,NA,NA,NA,NA,NA,NA,NA,NA,NA,NA,NA,NA,NA,NA,3,7.8,10,12.2,0,0,2.2,1.65,0.55,4.95,10,"match",36.05,281,361,440,0,0,9,9,9,0,0,NA,NA,NA,NA,NA,NA,2,0,2,0,0,46,46,35,NA,NA,NA,NA,NA,NA,NA,NA,NA,NA,NA,"num_3",1.25669670000207,"num_3",0.2,1.3,0.5,1.55,19.10275,59.21853,"return",5.61692869999388,NA,NA,NA,NA,NA,NA,NA,NA,NA,NA,NA,NA,NA,NA,NA,NA,716,21,"female","left_right_width","2024-08-27_12h59.14.923","exp1","2023.1.0",60.0698371965243,NA
"165",NA,NA,NA,NA,NA,NA,NA,NA,NA,NA,NA,NA,NA,NA,NA,NA,3,8.9,10,11.1,0,0,1.1,0.7,0.4,2.6,10,"initial",36.05,321,361,400,0,0,9,9,9,0,0,NA,NA,NA,NA,NA,NA,2,0,2,0,0,47,47,4,NA,NA,NA,NA,NA,NA,NA,NA,NA,NA,NA,"num_2",1.19739980000304,"num_2",0.35,1.6,0.55,1.4,21.01303,53.48771,"return",3.40445349999936,NA,NA,NA,NA,NA,NA,NA,NA,NA,NA,NA,NA,NA,NA,NA,NA,716,21,"female","left_right_width","2024-08-27_12h59.14.923","exp1","2023.1.0",60.0698371965243,NA
"166",NA,NA,NA,NA,NA,NA,NA,NA,NA,NA,NA,NA,NA,NA,NA,NA,5,8.95,9.475,10,10.525,11.05,0.525,0.125,0.4,2.5,10,"match",36.05,323,342,361,379,398,9,9,9,9,9,NA,NA,NA,NA,NA,NA,2,0,2,0,0,48,48,27,NA,NA,NA,NA,NA,NA,NA,NA,NA,NA,NA,"num_3",1.55719969999336,"num_3",0.55,1.2,0.6,0.8,22.9233,30.5644,"return",7.13554989999102,NA,NA,NA,NA,NA,NA,NA,NA,NA,NA,NA,NA,NA,NA,NA,NA,716,21,"female","left_right_width","2024-08-27_12h59.14.923","exp1","2023.1.0",60.0698371965243,NA
"167",NA,NA,NA,NA,NA,NA,NA,NA,NA,NA,NA,NA,NA,NA,NA,NA,4,8.35,9.45,10.55,11.65,0,1.1,0.55,0.55,3.85,10,"initial",36.05,301,341,380,420,0,9,9,9,9,0,NA,NA,NA,NA,NA,NA,2,0,2,0,0,49,49,17,NA,NA,NA,NA,NA,NA,NA,NA,NA,NA,NA,"num_3",1.38736069999868,"num_3",0.5,0.9,0.5,0.8,19.10275,30.5644,"return",5.66462019999744,NA,NA,NA,NA,NA,NA,NA,NA,NA,NA,NA,NA,NA,NA,NA,NA,716,21,"female","left_right_width","2024-08-27_12h59.14.923","exp1","2023.1.0",60.0698371965243,NA
"168",NA,NA,NA,NA,NA,NA,NA,NA,NA,NA,NA,NA,NA,NA,NA,NA,4,8.9,9.63333333333333,10.3666666666667,11.1,0,0.733333333333333,0.183333333333333,0.55,2.75,10,"match",36.05,321,347,374,400,0,9,9,9,9,0,NA,NA,NA,NA,NA,NA,2,0,2,0,0,50,50,1,NA,NA,NA,NA,NA,NA,NA,NA,NA,NA,NA,"num_3",1.29353589999664,"num_3",0.3,1.3,0.6,0.95,22.9233,36.29523,"return",3.9199554999941,NA,NA,NA,NA,NA,NA,NA,NA,NA,NA,NA,NA,NA,NA,NA,NA,716,21,"female","left_right_width","2024-08-27_12h59.14.923","exp1","2023.1.0",60.0698371965243,NA
"169",NA,NA,NA,NA,NA,NA,NA,NA,NA,NA,NA,NA,NA,NA,NA,NA,3,8.9,10,11.1,0,0,1.1,0.85,0.25,2.45,10,"initial",36.05,321,361,400,0,0,9,9,9,0,0,NA,NA,NA,NA,NA,NA,2,0,2,0,0,51,51,2,NA,NA,NA,NA,NA,NA,NA,NA,NA,NA,NA,"num_2",1.1070910999988,"num_2",0.4,0.8,0.15,1,5.73083,38.2055,"return",3.97287030000007,NA,NA,NA,NA,NA,NA,NA,NA,NA,NA,NA,NA,NA,NA,NA,NA,716,21,"female","left_right_width","2024-08-27_12h59.14.923","exp1","2023.1.0",60.0698371965243,NA
"170",NA,NA,NA,NA,NA,NA,NA,NA,NA,NA,NA,NA,NA,NA,NA,NA,NA,NA,NA,NA,NA,NA,NA,NA,NA,NA,NA,NA,NA,NA,NA,NA,NA,NA,NA,NA,NA,NA,NA,NA,NA,NA,NA,NA,NA,2,0,2,0,NA,NA,NA,NA,NA,NA,NA,NA,NA,NA,NA,NA,NA,NA,NA,NA,NA,NA,NA,NA,NA,NA,NA,NA,NA,NA,NA,NA,2370.47510760001,2370.47510760001,2370.47510760001,NA,NA,NA,NA,NA,NA,NA,NA,NA,NA,NA,716,21,"female","left_right_width","2024-08-27_12h59.14.923","exp1","2023.1.0",60.0698371965243,NA
"171",NA,NA,NA,NA,NA,NA,NA,NA,NA,NA,NA,NA,NA,NA,NA,NA,3,9.3,10,10.7,0,0,0.7,0.3,0.4,1.8,10,"initial",36.05,335,361,386,0,0,9,9,9,0,0,NA,NA,NA,NA,NA,NA,3,0,3,0,0,0,0,9,NA,NA,NA,NA,NA,NA,NA,NA,NA,NA,NA,"num_3",1.54583390000334,"num_3",0.45,0.9,0.45,0.7,17.19248,26.74385,"return",4.14993490000779,NA,NA,NA,NA,NA,NA,NA,NA,NA,NA,NA,NA,NA,NA,NA,NA,716,21,"female","left_right_width","2024-08-27_12h59.14.923","exp1","2023.1.0",60.0698371965243,NA
"172",NA,NA,NA,NA,NA,NA,NA,NA,NA,NA,NA,NA,NA,NA,NA,NA,5,8.35,9.175,10,10.825,11.65,0.825,0.575,0.25,3.55,10,"match",36.05,301,331,361,390,420,9,9,9,9,9,NA,NA,NA,NA,NA,NA,3,0,3,0,0,1,1,20,NA,NA,NA,NA,NA,NA,NA,NA,NA,NA,NA,"num_4",1.34532569999283,"num_4",0.4,1.1,0.4,0.7,15.2822,26.74385,"return",3.49655729999358,NA,NA,NA,NA,NA,NA,NA,NA,NA,NA,NA,NA,NA,NA,NA,NA,716,21,"female","left_right_width","2024-08-27_12h59.14.923","exp1","2023.1.0",60.0698371965243,NA
"173",NA,NA,NA,NA,NA,NA,NA,NA,NA,NA,NA,NA,NA,NA,NA,NA,4,9.1,9.7,10.3,10.9,0,0.6,0.2,0.4,2.2,10,"match",36.05,328,350,371,393,0,9,9,9,9,0,NA,NA,NA,NA,NA,NA,3,0,3,0,0,2,2,16,NA,NA,NA,NA,NA,NA,NA,NA,NA,NA,NA,"num_3",1.32057549999445,"num_3",0.25,1,0.4,0.65,15.2822,24.83358,"return",4.1117280000035,NA,NA,NA,NA,NA,NA,NA,NA,NA,NA,NA,NA,NA,NA,NA,NA,716,21,"female","left_right_width","2024-08-27_12h59.14.923","exp1","2023.1.0",60.0698371965243,NA
"174",NA,NA,NA,NA,NA,NA,NA,NA,NA,NA,NA,NA,NA,NA,NA,NA,5,8.275,9.1375,10,10.8625,11.725,0.8625,0.6125,0.25,3.7,10,"match",36.05,298,329,361,392,423,9,9,9,9,9,NA,NA,NA,NA,NA,NA,3,0,3,0,0,3,3,22,NA,NA,NA,NA,NA,NA,NA,NA,NA,NA,NA,"num_4",1.28088380000554,"num_4",0.35,0.7,0.25,0.8,9.55138,30.5644,"return",3.08000699999684,NA,NA,NA,NA,NA,NA,NA,NA,NA,NA,NA,NA,NA,NA,NA,NA,716,21,"female","left_right_width","2024-08-27_12h59.14.923","exp1","2023.1.0",60.0698371965243,NA
"175",NA,NA,NA,NA,NA,NA,NA,NA,NA,NA,NA,NA,NA,NA,NA,NA,5,8.65,9.325,10,10.675,11.35,0.675,0.425,0.25,2.95,10,"match",36.05,312,336,361,385,409,9,9,9,9,9,NA,NA,NA,NA,NA,NA,3,0,3,0,0,4,4,31,NA,NA,NA,NA,NA,NA,NA,NA,NA,NA,NA,"num_4",1.3706600000005,"num_4",0.4,0.7,0.25,0.7,9.55138,26.74385,"return",2.14170839999861,NA,NA,NA,NA,NA,NA,NA,NA,NA,NA,NA,NA,NA,NA,NA,NA,716,21,"female","left_right_width","2024-08-27_12h59.14.923","exp1","2023.1.0",60.0698371965243,NA
"176",NA,NA,NA,NA,NA,NA,NA,NA,NA,NA,NA,NA,NA,NA,NA,NA,3,9.1,10,10.9,0,0,0.9,0.5,0.4,2.2,10,"initial",36.05,328,361,393,0,0,9,9,9,0,0,NA,NA,NA,NA,NA,NA,3,0,3,0,0,5,5,15,NA,NA,NA,NA,NA,NA,NA,NA,NA,NA,NA,"num_2",1.16580779998912,"num_2",0.5,1.4,0.45,0.9,17.19248,34.38495,"return",3.00301859999308,NA,NA,NA,NA,NA,NA,NA,NA,NA,NA,NA,NA,NA,NA,NA,NA,716,21,"female","left_right_width","2024-08-27_12h59.14.923","exp1","2023.1.0",60.0698371965243,NA
"177",NA,NA,NA,NA,NA,NA,NA,NA,NA,NA,NA,NA,NA,NA,NA,NA,4,9.1,9.7,10.3,10.9,0,0.6,0.35,0.25,2.05,10,"match",36.05,328,350,371,393,0,9,9,9,9,0,NA,NA,NA,NA,NA,NA,3,0,3,0,0,6,6,14,NA,NA,NA,NA,NA,NA,NA,NA,NA,NA,NA,"num_3",1.52973449998535,"num_3",0.45,0.7,0.25,0.7,9.55138,26.74385,"return",2.53658759999962,NA,NA,NA,NA,NA,NA,NA,NA,NA,NA,NA,NA,NA,NA,NA,NA,716,21,"female","left_right_width","2024-08-27_12h59.14.923","exp1","2023.1.0",60.0698371965243,NA
"178",NA,NA,NA,NA,NA,NA,NA,NA,NA,NA,NA,NA,NA,NA,NA,NA,3,7.8,10,12.2,0,0,2.2,1.8,0.4,4.8,10,"match",36.05,281,361,440,0,0,9,9,9,0,0,NA,NA,NA,NA,NA,NA,3,0,3,0,0,7,7,39,NA,NA,NA,NA,NA,NA,NA,NA,NA,NA,NA,"num_2",1.21572939999169,"num_2",0.45,0.6,0.4,1.6,15.2822,61.12881,"return",4.55741749999288,NA,NA,NA,NA,NA,NA,NA,NA,NA,NA,NA,NA,NA,NA,NA,NA,716,21,"female","left_right_width","2024-08-27_12h59.14.923","exp1","2023.1.0",60.0698371965243,NA
"179",NA,NA,NA,NA,NA,NA,NA,NA,NA,NA,NA,NA,NA,NA,NA,NA,4,8.65,9.55,10.45,11.35,0,0.9,0.65,0.25,2.95,10,"initial",36.05,312,344,377,409,0,9,9,9,9,0,NA,NA,NA,NA,NA,NA,3,0,3,0,0,8,8,30,NA,NA,NA,NA,NA,NA,NA,NA,NA,NA,NA,"num_3",1.11447939999925,"num_3",0.55,1.2,0.35,1.15,13.37193,43.93633,"return",3.03046300000278,NA,NA,NA,NA,NA,NA,NA,NA,NA,NA,NA,NA,NA,NA,NA,NA,716,21,"female","left_right_width","2024-08-27_12h59.14.923","exp1","2023.1.0",60.0698371965243,NA
"180",NA,NA,NA,NA,NA,NA,NA,NA,NA,NA,NA,NA,NA,NA,NA,NA,5,8.6,9.3,10,10.7,11.4,0.7,0.3,0.4,3.2,10,"initial",36.05,310,335,361,386,411,9,9,9,9,9,NA,NA,NA,NA,NA,NA,3,0,3,0,0,9,9,44,NA,NA,NA,NA,NA,NA,NA,NA,NA,NA,NA,"num_3",2.79590499999176,"num_3",0.35,0.4,0.4,0.75,15.2822,28.65413,"return",4.77225650000037,NA,NA,NA,NA,NA,NA,NA,NA,NA,NA,NA,NA,NA,NA,NA,NA,716,21,"female","left_right_width","2024-08-27_12h59.14.923","exp1","2023.1.0",60.0698371965243,NA
"181",NA,NA,NA,NA,NA,NA,NA,NA,NA,NA,NA,NA,NA,NA,NA,NA,3,8.9,10,11.1,0,0,1.1,0.55,0.55,2.75,10,"initial",36.05,321,361,400,0,0,9,9,9,0,0,NA,NA,NA,NA,NA,NA,3,0,3,0,0,10,10,0,NA,NA,NA,NA,NA,NA,NA,NA,NA,NA,NA,"num_2",1.10096120000526,"num_2",0.55,1.2,0.55,1.2,21.01303,45.8466,"return",1.14568809999037,NA,NA,NA,NA,NA,NA,NA,NA,NA,NA,NA,NA,NA,NA,NA,NA,716,21,"female","left_right_width","2024-08-27_12h59.14.923","exp1","2023.1.0",60.0698371965243,NA
"182",NA,NA,NA,NA,NA,NA,NA,NA,NA,NA,NA,NA,NA,NA,NA,NA,5,8.95,9.475,10,10.525,11.05,0.525,0.275,0.25,2.35,10,"match",36.05,323,342,361,379,398,9,9,9,9,9,NA,NA,NA,NA,NA,NA,3,0,3,0,0,11,11,25,NA,NA,NA,NA,NA,NA,NA,NA,NA,NA,NA,"num_4",1.62528649999877,"num_4",0.5,0.6,0.3,0.6,11.46165,22.9233,"return",2.68038619999425,NA,NA,NA,NA,NA,NA,NA,NA,NA,NA,NA,NA,NA,NA,NA,NA,716,21,"female","left_right_width","2024-08-27_12h59.14.923","exp1","2023.1.0",60.0698371965243,NA
"183",NA,NA,NA,NA,NA,NA,NA,NA,NA,NA,NA,NA,NA,NA,NA,NA,5,7.8,8.9,10,11.1,12.2,1.1,0.55,0.55,4.95,10,"initial",36.05,281,321,361,400,440,9,9,9,9,9,NA,NA,NA,NA,NA,NA,3,0,3,0,0,12,12,34,NA,NA,NA,NA,NA,NA,NA,NA,NA,NA,NA,"num_4",1.36448970000492,"num_4",0.25,1.3,0.45,0.8,17.19248,30.5644,"return",4.58455019998655,NA,NA,NA,NA,NA,NA,NA,NA,NA,NA,NA,NA,NA,NA,NA,NA,716,21,"female","left_right_width","2024-08-27_12h59.14.923","exp1","2023.1.0",60.0698371965243,NA
"184",NA,NA,NA,NA,NA,NA,NA,NA,NA,NA,NA,NA,NA,NA,NA,NA,5,8.6,9.3,10,10.7,11.4,0.7,0.15,0.55,3.35,10,"initial",36.05,310,335,361,386,411,9,9,9,9,9,NA,NA,NA,NA,NA,NA,3,0,3,0,0,13,13,40,NA,NA,NA,NA,NA,NA,NA,NA,NA,NA,NA,"num_4",4.22940719999315,"num_4",0.4,1.1,0.5,0.7,19.10275,26.74385,"return",3.40330649999669,NA,NA,NA,NA,NA,NA,NA,NA,NA,NA,NA,NA,NA,NA,NA,NA,716,21,"female","left_right_width","2024-08-27_12h59.14.923","exp1","2023.1.0",60.0698371965243,NA
"185",NA,NA,NA,NA,NA,NA,NA,NA,NA,NA,NA,NA,NA,NA,NA,NA,5,8.2,9.1,10,10.9,11.8,0.9,0.5,0.4,4,10,"initial",36.05,296,328,361,393,425,9,9,9,9,9,NA,NA,NA,NA,NA,NA,3,0,3,0,0,14,14,50,NA,NA,NA,NA,NA,NA,NA,NA,NA,NA,NA,"num_4",1.81844129999809,"num_4",0.2,0.7,0.4,0.8,15.2822,30.5644,"return",11.8852010999981,NA,NA,NA,NA,NA,NA,NA,NA,NA,NA,NA,NA,NA,NA,NA,NA,716,21,"female","left_right_width","2024-08-27_12h59.14.923","exp1","2023.1.0",60.0698371965243,NA
"186",NA,NA,NA,NA,NA,NA,NA,NA,NA,NA,NA,NA,NA,NA,NA,NA,4,8.35,9.45,10.55,11.65,0,1.1,0.7,0.4,3.7,10,"initial",36.05,301,341,380,420,0,9,9,9,9,0,NA,NA,NA,NA,NA,NA,3,0,3,0,0,15,15,21,NA,NA,NA,NA,NA,NA,NA,NA,NA,NA,NA,"num_3",2.64272579998942,"num_3",0.25,1.1,0.35,1,13.37193,38.2055,"return",10.1047286999965,NA,NA,NA,NA,NA,NA,NA,NA,NA,NA,NA,NA,NA,NA,NA,NA,716,21,"female","left_right_width","2024-08-27_12h59.14.923","exp1","2023.1.0",60.0698371965243,NA
"187",NA,NA,NA,NA,NA,NA,NA,NA,NA,NA,NA,NA,NA,NA,NA,NA,4,9.3,9.76666666666667,10.2333333333333,10.7,0,0.466666666666667,0.216666666666667,0.25,1.65,10,"match",36.05,335,352,369,386,0,9,9,9,9,0,NA,NA,NA,NA,NA,NA,3,0,3,0,0,16,16,8,NA,NA,NA,NA,NA,NA,NA,NA,NA,NA,NA,"num_3",3.63252600000123,"num_3",0.4,1.2,0.3,0.75,11.46165,28.65413,"return",4.30184819998976,NA,NA,NA,NA,NA,NA,NA,NA,NA,NA,NA,NA,NA,NA,NA,NA,716,21,"female","left_right_width","2024-08-27_12h59.14.923","exp1","2023.1.0",60.0698371965243,NA
"188",NA,NA,NA,NA,NA,NA,NA,NA,NA,NA,NA,NA,NA,NA,NA,NA,4,9.1,9.7,10.3,10.9,0,0.6,0.05,0.55,2.35,10,"match",36.05,328,350,371,393,0,9,9,9,9,0,NA,NA,NA,NA,NA,NA,3,0,3,0,0,17,17,12,NA,NA,NA,NA,NA,NA,NA,NA,NA,NA,NA,"num_3",1.58657379999931,"num_3",0.55,0.9,0.6,0.65,22.9233,24.83358,"return",5.5643357999943,NA,NA,NA,NA,NA,NA,NA,NA,NA,NA,NA,NA,NA,NA,NA,NA,716,21,"female","left_right_width","2024-08-27_12h59.14.923","exp1","2023.1.0",60.0698371965243,NA
"189",NA,NA,NA,NA,NA,NA,NA,NA,NA,NA,NA,NA,NA,NA,NA,NA,5,8.65,9.325,10,10.675,11.35,0.675,0.125,0.55,3.25,10,"match",36.05,312,336,361,385,409,9,9,9,9,9,NA,NA,NA,NA,NA,NA,3,0,3,0,0,18,18,29,NA,NA,NA,NA,NA,NA,NA,NA,NA,NA,NA,"num_3",1.17305599999963,"num_3",0.25,0.3,0.5,0.65,19.10275,24.83358,"return",5.15660679999564,NA,NA,NA,NA,NA,NA,NA,NA,NA,NA,NA,NA,NA,NA,NA,NA,716,21,"female","left_right_width","2024-08-27_12h59.14.923","exp1","2023.1.0",60.0698371965243,NA
"190",NA,NA,NA,NA,NA,NA,NA,NA,NA,NA,NA,NA,NA,NA,NA,NA,4,8.65,9.55,10.45,11.35,0,0.9,0.35,0.55,3.25,10,"initial",36.05,312,344,377,409,0,9,9,9,9,0,NA,NA,NA,NA,NA,NA,3,0,3,0,0,19,19,28,NA,NA,NA,NA,NA,NA,NA,NA,NA,NA,NA,"num_3",1.22588159999577,"num_3",0.3,0.5,0.65,0.9,24.83358,34.38495,"return",4.69114219999756,NA,NA,NA,NA,NA,NA,NA,NA,NA,NA,NA,NA,NA,NA,NA,NA,716,21,"female","left_right_width","2024-08-27_12h59.14.923","exp1","2023.1.0",60.0698371965243,NA
"191",NA,NA,NA,NA,NA,NA,NA,NA,NA,NA,NA,NA,NA,NA,NA,NA,4,8.9,9.63333333333333,10.3666666666667,11.1,0,0.733333333333333,0.183333333333333,0.55,2.75,10,"match",36.05,321,347,374,400,0,9,9,9,9,0,NA,NA,NA,NA,NA,NA,3,0,3,0,0,20,20,1,NA,NA,NA,NA,NA,NA,NA,NA,NA,NA,NA,"num_3",1.66587069998786,"num_3",0.3,1.3,0.55,0.75,21.01303,28.65413,"return",5.85219639999559,NA,NA,NA,NA,NA,NA,NA,NA,NA,NA,NA,NA,NA,NA,NA,NA,716,21,"female","left_right_width","2024-08-27_12h59.14.923","exp1","2023.1.0",60.0698371965243,NA
"192",NA,NA,NA,NA,NA,NA,NA,NA,NA,NA,NA,NA,NA,NA,NA,NA,4,8.35,9.45,10.55,11.65,0,1.1,0.85,0.25,3.55,10,"initial",36.05,301,341,380,420,0,9,9,9,9,0,NA,NA,NA,NA,NA,NA,3,0,3,0,0,21,21,19,NA,NA,NA,NA,NA,NA,NA,NA,NA,NA,NA,"num_3",1.34042230001069,"num_3",0.35,0.8,0.2,1.3,7.6411,49.66716,"return",5.70083729999897,NA,NA,NA,NA,NA,NA,NA,NA,NA,NA,NA,NA,NA,NA,NA,NA,716,21,"female","left_right_width","2024-08-27_12h59.14.923","exp1","2023.1.0",60.0698371965243,NA
"193",NA,NA,NA,NA,NA,NA,NA,NA,NA,NA,NA,NA,NA,NA,NA,NA,3,7.8,10,12.2,0,0,2.2,1.95,0.25,4.65,10,"match",36.05,281,361,440,0,0,9,9,9,0,0,NA,NA,NA,NA,NA,NA,3,0,3,0,0,22,22,37,NA,NA,NA,NA,NA,NA,NA,NA,NA,NA,NA,"num_3",1.19936550001148,"num_3",0.5,0.8,0.15,1.3,5.73083,49.66716,"return",8.53635880000365,NA,NA,NA,NA,NA,NA,NA,NA,NA,NA,NA,NA,NA,NA,NA,NA,716,21,"female","left_right_width","2024-08-27_12h59.14.923","exp1","2023.1.0",60.0698371965243,NA
"194",NA,NA,NA,NA,NA,NA,NA,NA,NA,NA,NA,NA,NA,NA,NA,NA,5,8.95,9.475,10,10.525,11.05,0.525,0.125,0.4,2.5,10,"match",36.05,323,342,361,379,398,9,9,9,9,9,NA,NA,NA,NA,NA,NA,3,0,3,0,0,23,23,27,NA,NA,NA,NA,NA,NA,NA,NA,NA,NA,NA,"num_3",1.27293939999072,"num_3",0.3,0.4,0.45,0.6,17.19248,22.9233,"return",5.4541259999969,NA,NA,NA,NA,NA,NA,NA,NA,NA,NA,NA,NA,NA,NA,NA,NA,716,21,"female","left_right_width","2024-08-27_12h59.14.923","exp1","2023.1.0",60.0698371965243,NA
"195",NA,NA,NA,NA,NA,NA,NA,NA,NA,NA,NA,NA,NA,NA,NA,NA,5,8.2,9.1,10,10.9,11.8,0.9,0.35,0.55,4.15,10,"initial",36.05,296,328,361,393,425,9,9,9,9,9,NA,NA,NA,NA,NA,NA,3,0,3,0,0,24,24,46,NA,NA,NA,NA,NA,NA,NA,NA,NA,NA,NA,"num_4",2.46808730000339,"num_4",0.25,0.7,0.5,0.7,19.10275,26.74385,"return",3.48793649999425,NA,NA,NA,NA,NA,NA,NA,NA,NA,NA,NA,NA,NA,NA,NA,NA,716,21,"female","left_right_width","2024-08-27_12h59.14.923","exp1","2023.1.0",60.0698371965243,NA
"196",NA,NA,NA,NA,NA,NA,NA,NA,NA,NA,NA,NA,NA,NA,NA,NA,5,7.8,8.9,10,11.1,12.2,1.1,0.7,0.4,4.8,10,"initial",36.05,281,321,361,400,440,9,9,9,9,9,NA,NA,NA,NA,NA,NA,3,0,3,0,0,25,25,38,NA,NA,NA,NA,NA,NA,NA,NA,NA,NA,NA,"num_4",2.09383269998943,"num_4",0.25,1.2,0.45,0.8,17.19248,30.5644,"return",6.19402850000188,NA,NA,NA,NA,NA,NA,NA,NA,NA,NA,NA,NA,NA,NA,NA,NA,716,21,"female","left_right_width","2024-08-27_12h59.14.923","exp1","2023.1.0",60.0698371965243,NA
"197",NA,NA,NA,NA,NA,NA,NA,NA,NA,NA,NA,NA,NA,NA,NA,NA,3,8.9,10,11.1,0,0,1.1,0.7,0.4,2.6,10,"initial",36.05,321,361,400,0,0,9,9,9,0,0,NA,NA,NA,NA,NA,NA,3,0,3,0,0,26,26,4,NA,NA,NA,NA,NA,NA,NA,NA,NA,NA,NA,"num_2",1.24058729999524,"num_2",0.55,1.2,0.45,1.2,17.19248,45.8466,"return",2.8956113000022,NA,NA,NA,NA,NA,NA,NA,NA,NA,NA,NA,NA,NA,NA,NA,NA,716,21,"female","left_right_width","2024-08-27_12h59.14.923","exp1","2023.1.0",60.0698371965243,NA
"198",NA,NA,NA,NA,NA,NA,NA,NA,NA,NA,NA,NA,NA,NA,NA,NA,5,8.35,9.175,10,10.825,11.65,0.825,0.275,0.55,3.85,10,"match",36.05,301,331,361,390,420,9,9,9,9,9,NA,NA,NA,NA,NA,NA,3,0,3,0,0,27,27,18,NA,NA,NA,NA,NA,NA,NA,NA,NA,NA,NA,"num_4",2.06827679999697,"num_4",0.2,1.2,0.5,0.7,19.10275,26.74385,"return",6.75329930000589,NA,NA,NA,NA,NA,NA,NA,NA,NA,NA,NA,NA,NA,NA,NA,NA,716,21,"female","left_right_width","2024-08-27_12h59.14.923","exp1","2023.1.0",60.0698371965243,NA
"199",NA,NA,NA,NA,NA,NA,NA,NA,NA,NA,NA,NA,NA,NA,NA,NA,3,8.525,10,11.475,0,0,1.475,1.225,0.25,3.2,10,"match",36.05,307,361,414,0,0,9,9,9,0,0,NA,NA,NA,NA,NA,NA,3,0,3,0,0,28,28,45,NA,NA,NA,NA,NA,NA,NA,NA,NA,NA,NA,"num_2",1.32806590000109,"num_2",0.55,1.6,0.25,1.6,9.55138,61.12881,"return",2.51575069999672,NA,NA,NA,NA,NA,NA,NA,NA,NA,NA,NA,NA,NA,NA,NA,NA,716,21,"female","left_right_width","2024-08-27_12h59.14.923","exp1","2023.1.0",60.0698371965243,NA
"200",NA,NA,NA,NA,NA,NA,NA,NA,NA,NA,NA,NA,NA,NA,NA,NA,4,8.35,9.45,10.55,11.65,0,1.1,0.55,0.55,3.85,10,"initial",36.05,301,341,380,420,0,9,9,9,9,0,NA,NA,NA,NA,NA,NA,3,0,3,0,0,29,29,17,NA,NA,NA,NA,NA,NA,NA,NA,NA,NA,NA,"num_3",1.53220349999901,"num_3",0.2,1.3,0.4,0.85,15.2822,32.47468,"return",4.33103909999772,NA,NA,NA,NA,NA,NA,NA,NA,NA,NA,NA,NA,NA,NA,NA,NA,716,21,"female","left_right_width","2024-08-27_12h59.14.923","exp1","2023.1.0",60.0698371965243,NA
"201",NA,NA,NA,NA,NA,NA,NA,NA,NA,NA,NA,NA,NA,NA,NA,NA,4,8.65,9.55,10.45,11.35,0,0.9,0.5,0.4,3.1,10,"initial",36.05,312,344,377,409,0,9,9,9,9,0,NA,NA,NA,NA,NA,NA,3,0,3,0,0,30,30,32,NA,NA,NA,NA,NA,NA,NA,NA,NA,NA,NA,"num_3",1.88524519999919,"num_3",0.35,0.9,0.35,0.8,13.37193,30.5644,"return",2.06562559999293,NA,NA,NA,NA,NA,NA,NA,NA,NA,NA,NA,NA,NA,NA,NA,NA,716,21,"female","left_right_width","2024-08-27_12h59.14.923","exp1","2023.1.0",60.0698371965243,NA
"202",NA,NA,NA,NA,NA,NA,NA,NA,NA,NA,NA,NA,NA,NA,NA,NA,5,7.8,8.9,10,11.1,12.2,1.1,0.85,0.25,4.65,10,"initial",36.05,281,321,361,400,440,9,9,9,9,9,NA,NA,NA,NA,NA,NA,3,0,3,0,0,31,31,36,NA,NA,NA,NA,NA,NA,NA,NA,NA,NA,NA,"num_4",2.39634620001016,"num_4",0.3,1.2,0.25,1.1,9.55138,42.02605,"return",2.93653459999769,NA,NA,NA,NA,NA,NA,NA,NA,NA,NA,NA,NA,NA,NA,NA,NA,716,21,"female","left_right_width","2024-08-27_12h59.14.923","exp1","2023.1.0",60.0698371965243,NA
"203",NA,NA,NA,NA,NA,NA,NA,NA,NA,NA,NA,NA,NA,NA,NA,NA,3,8.6,10,11.4,0,0,1.4,0.85,0.55,3.35,10,"match",36.05,310,361,411,0,0,9,9,9,0,0,NA,NA,NA,NA,NA,NA,3,0,3,0,0,32,32,41,NA,NA,NA,NA,NA,NA,NA,NA,NA,NA,NA,"num_2",1.61738229999901,"num_2",0.3,0.6,0.55,1.3,21.01303,49.66716,"return",5.6324225999997,NA,NA,NA,NA,NA,NA,NA,NA,NA,NA,NA,NA,NA,NA,NA,NA,716,21,"female","left_right_width","2024-08-27_12h59.14.923","exp1","2023.1.0",60.0698371965243,NA
"204",NA,NA,NA,NA,NA,NA,NA,NA,NA,NA,NA,NA,NA,NA,NA,NA,3,9.3,10,10.7,0,0,0.7,0.15,0.55,1.95,10,"initial",36.05,335,361,386,0,0,9,9,9,0,0,NA,NA,NA,NA,NA,NA,3,0,3,0,0,33,33,6,NA,NA,NA,NA,NA,NA,NA,NA,NA,NA,NA,"num_2",1.05642649999936,"num_2",0.35,0.6,0.7,0.8,26.74385,30.5644,"return",8.05269209999824,NA,NA,NA,NA,NA,NA,NA,NA,NA,NA,NA,NA,NA,NA,NA,NA,716,21,"female","left_right_width","2024-08-27_12h59.14.923","exp1","2023.1.0",60.0698371965243,NA
"205",NA,NA,NA,NA,NA,NA,NA,NA,NA,NA,NA,NA,NA,NA,NA,NA,4,8.825,9.60833333333333,10.3916666666667,11.175,0,0.783333333333333,0.533333333333333,0.25,2.6,10,"match",36.05,318,346,375,403,0,9,9,9,9,0,NA,NA,NA,NA,NA,NA,3,0,3,0,0,34,34,5,NA,NA,NA,NA,NA,NA,NA,NA,NA,NA,NA,"num_3",1.28528649998771,"num_3",0.35,0.4,0.2,0.65,7.6411,24.83358,"return",5.02119289999246,NA,NA,NA,NA,NA,NA,NA,NA,NA,NA,NA,NA,NA,NA,NA,NA,716,21,"female","left_right_width","2024-08-27_12h59.14.923","exp1","2023.1.0",60.0698371965243,NA
"206",NA,NA,NA,NA,NA,NA,NA,NA,NA,NA,NA,NA,NA,NA,NA,NA,5,8.2,9.1,10,10.9,11.8,0.9,0.65,0.25,3.85,10,"initial",36.05,296,328,361,393,425,9,9,9,9,9,NA,NA,NA,NA,NA,NA,3,0,3,0,0,35,35,48,NA,NA,NA,NA,NA,NA,NA,NA,NA,NA,NA,"num_4",1.64819880000141,"num_4",0.2,0.9,0.2,0.8,7.6411,30.5644,"return",2.777925900009,NA,NA,NA,NA,NA,NA,NA,NA,NA,NA,NA,NA,NA,NA,NA,NA,716,21,"female","left_right_width","2024-08-27_12h59.14.923","exp1","2023.1.0",60.0698371965243,NA
"207",NA,NA,NA,NA,NA,NA,NA,NA,NA,NA,NA,NA,NA,NA,NA,NA,4,8.95,9.65,10.35,11.05,0,0.7,0.3,0.4,2.5,10,"initial",36.05,323,348,373,398,0,9,9,9,9,0,NA,NA,NA,NA,NA,NA,3,0,3,0,0,36,36,26,NA,NA,NA,NA,NA,NA,NA,NA,NA,NA,NA,"num_3",1.3031375999999,"num_3",0.35,0.4,0.45,0.55,17.19248,21.01303,"return",5.22769189998507,NA,NA,NA,NA,NA,NA,NA,NA,NA,NA,NA,NA,NA,NA,NA,NA,716,21,"female","left_right_width","2024-08-27_12h59.14.923","exp1","2023.1.0",60.0698371965243,NA
"208",NA,NA,NA,NA,NA,NA,NA,NA,NA,NA,NA,NA,NA,NA,NA,NA,4,9.3,9.76666666666667,10.2333333333333,10.7,0,0.466666666666667,0.0666666666666667,0.4,1.8,10,"match",36.05,335,352,369,386,0,9,9,9,9,0,NA,NA,NA,NA,NA,NA,3,0,3,0,0,37,37,10,NA,NA,NA,NA,NA,NA,NA,NA,NA,NA,NA,"num_3",1.31343499998911,"num_3",0.3,0.8,0.5,0.6,19.10275,22.9233,"return",5.51630669999577,NA,NA,NA,NA,NA,NA,NA,NA,NA,NA,NA,NA,NA,NA,NA,NA,716,21,"female","left_right_width","2024-08-27_12h59.14.923","exp1","2023.1.0",60.0698371965243,NA
"209",NA,NA,NA,NA,NA,NA,NA,NA,NA,NA,NA,NA,NA,NA,NA,NA,3,8.2,10,11.8,0,0,1.8,1.4,0.4,4,10,"match",36.05,296,361,425,0,0,9,9,9,0,0,NA,NA,NA,NA,NA,NA,3,0,3,0,0,38,38,51,NA,NA,NA,NA,NA,NA,NA,NA,NA,NA,NA,"num_3",1.16056849999586,"num_3",0.5,0.8,0.25,1.25,9.55138,47.75688,"return",5.92422960000113,NA,NA,NA,NA,NA,NA,NA,NA,NA,NA,NA,NA,NA,NA,NA,NA,716,21,"female","left_right_width","2024-08-27_12h59.14.923","exp1","2023.1.0",60.0698371965243,NA
"210",NA,NA,NA,NA,NA,NA,NA,NA,NA,NA,NA,NA,NA,NA,NA,NA,5,8.65,9.325,10,10.675,11.35,0.675,0.275,0.4,3.1,10,"match",36.05,312,336,361,385,409,9,9,9,9,9,NA,NA,NA,NA,NA,NA,3,0,3,0,0,39,39,33,NA,NA,NA,NA,NA,NA,NA,NA,NA,NA,NA,"num_4",2.99146920000203,"num_4",0.2,0.7,0.4,0.7,15.2822,26.74385,"return",2.3710119999887,NA,NA,NA,NA,NA,NA,NA,NA,NA,NA,NA,NA,NA,NA,NA,NA,716,21,"female","left_right_width","2024-08-27_12h59.14.923","exp1","2023.1.0",60.0698371965243,NA
"211",NA,NA,NA,NA,NA,NA,NA,NA,NA,NA,NA,NA,NA,NA,NA,NA,3,8.6,10,11.4,0,0,1.4,1.15,0.25,3.05,10,"match",36.05,310,361,411,0,0,9,9,9,0,0,NA,NA,NA,NA,NA,NA,3,0,3,0,0,40,40,43,NA,NA,NA,NA,NA,NA,NA,NA,NA,NA,NA,"num_3",1.15660519999801,"num_3",0.5,1.1,0.25,1.3,9.55138,49.66716,"return",6.76877520000562,NA,NA,NA,NA,NA,NA,NA,NA,NA,NA,NA,NA,NA,NA,NA,NA,716,21,"female","left_right_width","2024-08-27_12h59.14.923","exp1","2023.1.0",60.0698371965243,NA
"212",NA,NA,NA,NA,NA,NA,NA,NA,NA,NA,NA,NA,NA,NA,NA,NA,4,8.95,9.65,10.35,11.05,0,0.7,0.15,0.55,2.65,10,"initial",36.05,323,348,373,398,0,9,9,9,9,0,NA,NA,NA,NA,NA,NA,3,0,3,0,0,41,41,23,NA,NA,NA,NA,NA,NA,NA,NA,NA,NA,NA,"num_3",1.10808489999908,"num_3",0.25,0.7,0.65,0.8,24.83358,30.5644,"return",5.15530640000361,NA,NA,NA,NA,NA,NA,NA,NA,NA,NA,NA,NA,NA,NA,NA,NA,716,21,"female","left_right_width","2024-08-27_12h59.14.923","exp1","2023.1.0",60.0698371965243,NA
"213",NA,NA,NA,NA,NA,NA,NA,NA,NA,NA,NA,NA,NA,NA,NA,NA,4,8.9,9.63333333333333,10.3666666666667,11.1,0,0.733333333333333,0.483333333333333,0.25,2.45,10,"match",36.05,321,347,374,400,0,9,9,9,9,0,NA,NA,NA,NA,NA,NA,3,0,3,0,0,42,42,3,NA,NA,NA,NA,NA,NA,NA,NA,NA,NA,NA,"num_3",1.04558439999528,"num_3",0.55,1,0.25,0.9,9.55138,34.38495,"return",6.10174549999647,NA,NA,NA,NA,NA,NA,NA,NA,NA,NA,NA,NA,NA,NA,NA,NA,716,21,"female","left_right_width","2024-08-27_12h59.14.923","exp1","2023.1.0",60.0698371965243,NA
"214",NA,NA,NA,NA,NA,NA,NA,NA,NA,NA,NA,NA,NA,NA,NA,NA,3,7.8,10,12.2,0,0,2.2,1.65,0.55,4.95,10,"match",36.05,281,361,440,0,0,9,9,9,0,0,NA,NA,NA,NA,NA,NA,3,0,3,0,0,43,43,35,NA,NA,NA,NA,NA,NA,NA,NA,NA,NA,NA,"num_2",5.05211210000562,"num_2",0.3,1.2,0.6,1.2,22.9233,45.8466,"return",3.0978574000037,NA,NA,NA,NA,NA,NA,NA,NA,NA,NA,NA,NA,NA,NA,NA,NA,716,21,"female","left_right_width","2024-08-27_12h59.14.923","exp1","2023.1.0",60.0698371965243,NA
"215",NA,NA,NA,NA,NA,NA,NA,NA,NA,NA,NA,NA,NA,NA,NA,NA,3,9.3,10,10.7,0,0,0.7,0.45,0.25,1.65,10,"initial",36.05,335,361,386,0,0,9,9,9,0,0,NA,NA,NA,NA,NA,NA,3,0,3,0,0,44,44,7,NA,NA,NA,NA,NA,NA,NA,NA,NA,NA,NA,"num_2",1.02207169999019,"num_2",0.2,0.8,0.35,0.8,13.37193,30.5644,"return",1.8910271999921,NA,NA,NA,NA,NA,NA,NA,NA,NA,NA,NA,NA,NA,NA,NA,NA,716,21,"female","left_right_width","2024-08-27_12h59.14.923","exp1","2023.1.0",60.0698371965243,NA
"216",NA,NA,NA,NA,NA,NA,NA,NA,NA,NA,NA,NA,NA,NA,NA,NA,3,9.1,10,10.9,0,0,0.9,0.35,0.55,2.35,10,"initial",36.05,328,361,393,0,0,9,9,9,0,0,NA,NA,NA,NA,NA,NA,3,0,3,0,0,45,45,11,NA,NA,NA,NA,NA,NA,NA,NA,NA,NA,NA,"num_2",1.12982020000345,"num_2",0.4,0.8,0.65,1,24.83358,38.2055,"return",3.67478380000102,NA,NA,NA,NA,NA,NA,NA,NA,NA,NA,NA,NA,NA,NA,NA,NA,716,21,"female","left_right_width","2024-08-27_12h59.14.923","exp1","2023.1.0",60.0698371965243,NA
"217",NA,NA,NA,NA,NA,NA,NA,NA,NA,NA,NA,NA,NA,NA,NA,NA,4,8.95,9.65,10.35,11.05,0,0.7,0.45,0.25,2.35,10,"initial",36.05,323,348,373,398,0,9,9,9,9,0,NA,NA,NA,NA,NA,NA,3,0,3,0,0,46,46,24,NA,NA,NA,NA,NA,NA,NA,NA,NA,NA,NA,"num_3",1.0937588000088,"num_3",0.4,0.7,0.25,0.7,9.55138,26.74385,"return",3.26778870000271,NA,NA,NA,NA,NA,NA,NA,NA,NA,NA,NA,NA,NA,NA,NA,NA,716,21,"female","left_right_width","2024-08-27_12h59.14.923","exp1","2023.1.0",60.0698371965243,NA
