amount_p,posx1_p,posx2_p,posx3_p,posx4_p,posx5_p,center_to_center_p,edge_to_edge_p,w_p,stim_lengt_p,eccentricity_p,line1_p,line2_p,line3_p,line4_p,line5_p,amount,posx1,posx2,posx3,posx4,posx5,center_to_center,edge_to_edge,w,stim_length,eccentricity,trial_type,deg_to_pix_index,posx1_in_pix,posx2_in_pix,posx3_in_pix,posx4_in_pix,posx5_in_pix,line1,line2,line3,line4,line5,posx,setsize_cobdi,trials.thisRepN,trials.thisTrialN,trials.thisN,trials.thisIndex,blocks.thisRepN,blocks.thisTrialN,blocks.thisN,blocks.thisIndex,loop.thisRepN,loop.thisTrialN,loop.thisN,loop.thisIndex,first.thisRepN,first.thisTrialN,first.thisN,first.thisIndex,second.thisRepN,second.thisTrialN,second.thisN,second.thisIndex,key_resp_3.started,key_resp_3.keys,key_resp_3.rt,key_resp.keys,key_resp.rt,response,starting_width_deg,starting_space_deg,response_width_degree,response_spacing_degree,response_width_pixel,response_spacing_pixel,next_5.keys,next_5.rt,key_resp_4.keys,key_resp_4.rt,text_3.started,text_4.started,key_resp_2.started,text_2.started,key_resp_2.keys,key_resp_2.rt,adjusting.started,next.keys,next.rt,text_control2.started,key_resp.started,key_resp.corr,text_bye.started,text_bye.stopped,participant,age,gender,resp_group,date,expName,psychopyVersion,frameRate,
,,,,,,,,,,,,,,,,,,,,,,,,,,,,,,,,,,,,,,,,,,,,,,,,,,,,,,,,,,,,,22.259009299988975,c,140.95938820001902,,,,,,,,,,,,,,,,,,,,,,,,,,,,717,24,female,up_down_width,2024-08-27_15h59.33.664,exp1,2023.1.0,59.91723033728238,
5,8.6,9.3,10,10.7,11.4,0.7,0.29999999999999993,0.4,3.1999999999999997,10,9,9,9,9,9,,,,,,,,,,,,,,,,,,,,,,,,,,0,0,0,7,,,,,,,,,,,,,,,,,,,,num_4,3.2768752000120003,num_4,0.45,1.1,0.30000000000000004,1.0,11.46165,38.2055,return,13.301545500013162,,,,,,,,,,,,,,,,,717,24,female,up_down_width,2024-08-27_15h59.33.664,exp1,2023.1.0,59.91723033728238,
5,9,9.5,10,10.5,11,0.5,0.09999999999999998,0.4,2.4,10,9,9,9,9,9,,,,,,,,,,,,,,,,,,,,,,,,,,0,1,1,8,,,,,,,,,,,,,,,,,,,,num_5,2.7438197000155924,num_5,0.3,1.2,0.35,0.6,13.37193,22.9233,return,22.386313700015307,,,,,,,,,,,,,,,,,717,24,female,up_down_width,2024-08-27_15h59.33.664,exp1,2023.1.0,59.91723033728238,
4,9.5,9.833333333333334,10.166666666666666,10.5,0,0.33333333333333337,0.23333333333333336,0.1,1.1,10,9,9,9,9,0,,,,,,,,,,,,,,,,,,,,,,,,,,0,2,2,3,,,,,,,,,,,,,,,,,,,,num_3,3.40410030001658,num_3,0.55,1.1,0.30000000000000004,0.6,11.46165,22.9233,return,16.768760700011626,,,,,,,,,,,,,,,,,717,24,female,up_down_width,2024-08-27_15h59.33.664,exp1,2023.1.0,59.91723033728238,
4,8.65,9.55,10.45,11.35,0,0.9,0.5,0.4,3.1,10,9,9,9,9,0,,,,,,,,,,,,,,,,,,,,,,,,,,0,3,3,5,,,,,,,,,,,,,,,,,,,,num_4,1.4132051000051433,num_4,0.35,1.3,0.3,0.8,11.46165,30.5644,return,8.32934790001309,,,,,,,,,,,,,,,,,717,24,female,up_down_width,2024-08-27_15h59.33.664,exp1,2023.1.0,59.91723033728238,
3,9,10,11,0,0,1,0.9,0.1,2.1,10,9,9,9,0,0,,,,,,,,,,,,,,,,,,,,,,,,,,0,4,4,1,,,,,,,,,,,,,,,,,,,,num_3,3.0237550000019837,num_3,0.5,0.8,0.20000000000000007,0.9,7.6411,34.38495,return,7.85932000001776,,,,,,,,,,,,,,,,,717,24,female,up_down_width,2024-08-27_15h59.33.664,exp1,2023.1.0,59.91723033728238,
3,9.5,10,10.5,0,0,0.5,0.4,0.1,1.1,10,9,9,9,0,0,,,,,,,,,,,,,,,,,,,,,,,,,,0,5,5,0,,,,,,,,,,,,,,,,,,,,num_3,1.8645411000179593,num_3,0.4,0.6,0.10000000000000007,0.75,3.82055,28.65413,return,5.844924900011392,,,,,,,,,,,,,,,,,717,24,female,up_down_width,2024-08-27_15h59.33.664,exp1,2023.1.0,59.91723033728238,
3,8.2,10,11.8,0,0,1.7999999999999998,1.4,0.4,4,10,9,9,9,0,0,,,,,,,,,,,,,,,,,,,,,,,,,,0,6,6,2,,,,,,,,,,,,,,,,,,,,num_3,1.637249100022018,num_3,0.4,0.6,0.20000000000000007,1.3,7.6411,49.66716,return,9.888366000013775,,,,,,,,,,,,,,,,,717,24,female,up_down_width,2024-08-27_15h59.33.664,exp1,2023.1.0,59.91723033728238,
4,9.25,9.75,10.25,10.75,0,0.5,0.25,0.25,1.75,10,9,9,9,9,0,,,,,,,,,,,,,,,,,,,,,,,,,,0,7,7,4,,,,,,,,,,,,,,,,,,,,num_4,2.5849519000184955,num_4,0.25,0.3,0.25,0.8,9.55138,30.5644,return,4.847495000009076,,,,,,,,,,,,,,,,,717,24,female,up_down_width,2024-08-27_15h59.33.664,exp1,2023.1.0,59.91723033728238,
5,9.25,9.625,10,10.375,10.75,0.375,0.125,0.25,1.75,10,9,9,9,9,9,,,,,,,,,,,,,,,,,,,,,,,,,,0,8,8,6,,,,,,,,,,,,,,,,,,,,num_5,2.9239220000163186,num_5,0.45,1.2,0.30000000000000004,0.5,11.46165,19.10275,return,11.605394100013655,,,,,,,,,,,,,,,,,717,24,female,up_down_width,2024-08-27_15h59.33.664,exp1,2023.1.0,59.91723033728238,
,,,,,,,,,,,,,,,,,,,,,,,,,,,,,,,,,,,,,,,,,,,,,,,,,,,,,,,,,,,,,,,,,,,,,,,,,,,c,160.19611580000492,,,,,,,,,,,,,,,717,24,female,up_down_width,2024-08-27_15h59.33.664,exp1,2023.1.0,59.91723033728238,
,,,,,,,,,,,,,,,,3,8.6,10,11.4,0,0,1.4,0.85,0.55,3.35,10,match,36.05,310,361,411,0,0,9,9,9,0,0,,,,,,,0,0,0,0,0,0,0,41,,,,,,,,,,,,num_3,2.1629766000114614,num_3,0.45,0.6,0.35000000000000003,0.7,13.37193,26.74385,return,4.807981100020697,,,,,,,,,,,,,,,,,717,24,female,up_down_width,2024-08-27_15h59.33.664,exp1,2023.1.0,59.91723033728238,
,,,,,,,,,,,,,,,,3,8.9,10,11.1,0,0,1.1,0.55,0.55,2.75,10,initial,36.05,321,361,400,0,0,9,9,9,0,0,,,,,,,0,0,0,0,0,1,1,0,,,,,,,,,,,,num_3,1.527881800022442,num_3,0.3,0.6,0.35,0.95,13.37193,36.29523,return,5.977270600007614,,,,,,,,,,,,,,,,,717,24,female,up_down_width,2024-08-27_15h59.33.664,exp1,2023.1.0,59.91723033728238,
,,,,,,,,,,,,,,,,5,7.8,8.9,10,11.1,12.2,1.1,0.8500000000000001,0.25,4.65,10,initial,36.05,281,321,361,400,440,9,9,9,9,9,,,,,,,0,0,0,0,0,2,2,36,,,,,,,,,,,,num_4,1.5118149000190897,num_4,0.55,0.9,0.25000000000000006,1.1,9.55138,42.02605,return,6.747296300018206,,,,,,,,,,,,,,,,,717,24,female,up_down_width,2024-08-27_15h59.33.664,exp1,2023.1.0,59.91723033728238,
,,,,,,,,,,,,,,,,5,8.2,9.1,10,10.9,11.8,0.9,0.35,0.55,4.15,10,initial,36.05,296,328,361,393,425,9,9,9,9,9,,,,,,,0,0,0,0,0,3,3,46,,,,,,,,,,,,num_5,1.615811300012865,num_5,0.5,0.8,0.45,0.75,17.19248,28.65413,return,3.5749378000182332,,,,,,,,,,,,,,,,,717,24,female,up_down_width,2024-08-27_15h59.33.664,exp1,2023.1.0,59.91723033728238,
,,,,,,,,,,,,,,,,5,7.8,8.9,10,11.1,12.2,1.1,0.7000000000000001,0.4,4.800000000000001,10,initial,36.05,281,321,361,400,440,9,9,9,9,9,,,,,,,0,0,0,0,0,4,4,38,,,,,,,,,,,,num_5,2.5178914000134682,num_5,0.55,1.2,0.35000000000000003,1.1,13.37193,42.02605,return,4.861827800006722,,,,,,,,,,,,,,,,,717,24,female,up_down_width,2024-08-27_15h59.33.664,exp1,2023.1.0,59.91723033728238,
,,,,,,,,,,,,,,,,3,9.1,10,10.9,0,0,0.9,0.65,0.25,2.05,10,initial,36.05,328,361,393,0,0,9,9,9,0,0,,,,,,,0,0,0,0,0,5,5,13,,,,,,,,,,,,num_3,2.5160046000091825,num_3,0.4,0.8,0.20000000000000007,0.9,7.6411,34.38495,return,4.922461500013014,,,,,,,,,,,,,,,,,717,24,female,up_down_width,2024-08-27_15h59.33.664,exp1,2023.1.0,59.91723033728238,
,,,,,,,,,,,,,,,,4,9.1,9.7,10.3,10.9,0,0.6000000000000001,0.20000000000000004,0.4,2.2,10,match,36.05,328,350,371,393,0,9,9,9,9,0,,,,,,,0,0,0,0,0,6,6,16,,,,,,,,,,,,num_4,1.5662095000152476,num_4,0.4,1.0,0.35000000000000003,0.7,13.37193,26.74385,return,5.006738000010955,,,,,,,,,,,,,,,,,717,24,female,up_down_width,2024-08-27_15h59.33.664,exp1,2023.1.0,59.91723033728238,
,,,,,,,,,,,,,,,,4,9.3,9.766666666666667,10.233333333333333,10.7,0,0.4666666666666667,0.06666666666666665,0.4,1.8,10,match,36.05,335,352,369,386,0,9,9,9,9,0,,,,,,,0,0,0,0,0,7,7,10,,,,,,,,,,,,num_4,2.0382186000060756,num_4,0.35,0.6,0.35,0.5,13.37193,19.10275,return,5.619261500018183,,,,,,,,,,,,,,,,,717,24,female,up_down_width,2024-08-27_15h59.33.664,exp1,2023.1.0,59.91723033728238,
,,,,,,,,,,,,,,,,5,8.6,9.3,10,10.7,11.4,0.7,0.29999999999999993,0.4,3.1999999999999997,10,initial,36.05,310,335,361,386,411,9,9,9,9,9,,,,,,,0,0,0,0,0,8,8,44,,,,,,,,,,,,num_5,1.4185450000077253,num_5,0.45,0.9,0.4,0.6,15.2822,22.9233,return,4.03278050001245,,,,,,,,,,,,,,,,,717,24,female,up_down_width,2024-08-27_15h59.33.664,exp1,2023.1.0,59.91723033728238,
,,,,,,,,,,,,,,,,4,8.9,9.633333333333333,10.366666666666667,11.1,0,0.7333333333333334,0.4833333333333334,0.25,2.45,10,match,36.05,321,347,374,400,0,9,9,9,9,0,,,,,,,0,0,0,0,0,9,9,3,,,,,,,,,,,,num_4,4.422136900015175,num_4,0.35,0.5,0.3,0.7,11.46165,26.74385,return,5.951429200023995,,,,,,,,,,,,,,,,,717,24,female,up_down_width,2024-08-27_15h59.33.664,exp1,2023.1.0,59.91723033728238,
,,,,,,,,,,,,,,,,3,7.800000000000001,10,12.2,0,0,2.1999999999999997,1.7999999999999998,0.4,4.8,10,match,36.05,281,361,440,0,0,9,9,9,0,0,,,,,,,0,0,0,0,0,10,10,39,,,,,,,,,,,,num_3,1.4055921000108356,num_3,0.25,1.1,0.25,1.25,9.55138,47.75688,return,7.699472600012086,,,,,,,,,,,,,,,,,717,24,female,up_down_width,2024-08-27_15h59.33.664,exp1,2023.1.0,59.91723033728238,
,,,,,,,,,,,,,,,,3,8.9,10,11.1,0,0,1.1,0.8500000000000001,0.25,2.45,10,initial,36.05,321,361,400,0,0,9,9,9,0,0,,,,,,,0,0,0,0,0,11,11,2,,,,,,,,,,,,num_3,1.5226926000177627,num_3,0.45,1.1,0.20000000000000007,1.2,7.6411,45.8466,return,4.466507800025283,,,,,,,,,,,,,,,,,717,24,female,up_down_width,2024-08-27_15h59.33.664,exp1,2023.1.0,59.91723033728238,
,,,,,,,,,,,,,,,,4,8.9,9.633333333333333,10.366666666666667,11.1,0,0.7333333333333333,0.18333333333333326,0.55,2.75,10,match,36.05,321,347,374,400,0,9,9,9,9,0,,,,,,,0,0,0,0,0,12,12,1,,,,,,,,,,,,num_3,1.435527000008733,num_3,0.25,0.6,0.39999999999999997,0.75,15.2822,28.65413,return,7.290660200014827,,,,,,,,,,,,,,,,,717,24,female,up_down_width,2024-08-27_15h59.33.664,exp1,2023.1.0,59.91723033728238,
,,,,,,,,,,,,,,,,5,8.6,9.3,10,10.7,11.4,0.7,0.1499999999999999,0.55,3.3499999999999996,10,initial,36.05,310,335,361,386,411,9,9,9,9,9,,,,,,,0,0,0,0,0,13,13,40,,,,,,,,,,,,num_4,1.446967300013057,num_4,0.4,1.0,0.4,0.6,15.2822,22.9233,return,3.8327726000134135,,,,,,,,,,,,,,,,,717,24,female,up_down_width,2024-08-27_15h59.33.664,exp1,2023.1.0,59.91723033728238,
,,,,,,,,,,,,,,,,4,8.65,9.55,10.45,11.35,0,0.9,0.65,0.25,2.95,10,initial,36.05,312,344,377,409,0,9,9,9,9,0,,,,,,,0,0,0,0,0,14,14,30,,,,,,,,,,,,num_4,1.31560930001433,num_4,0.3,1.3,0.25,0.7,9.55138,26.74385,return,9.149905300015234,,,,,,,,,,,,,,,,,717,24,female,up_down_width,2024-08-27_15h59.33.664,exp1,2023.1.0,59.91723033728238,
,,,,,,,,,,,,,,,,3,9.3,10,10.7,0,0,0.7,0.44999999999999996,0.25,1.65,10,initial,36.05,335,361,386,0,0,9,9,9,0,0,,,,,,,0,0,0,0,0,15,15,7,,,,,,,,,,,,num_4,1.7415194000059273,num_4,0.25,1.3,0.25,0.6,9.55138,22.9233,return,4.848673400003463,,,,,,,,,,,,,,,,,717,24,female,up_down_width,2024-08-27_15h59.33.664,exp1,2023.1.0,59.91723033728238,
,,,,,,,,,,,,,,,,3,9.3,10,10.7,0,0,0.7,0.29999999999999993,0.4,1.8,10,initial,36.05,335,361,386,0,0,9,9,9,0,0,,,,,,,0,0,0,0,0,16,16,9,,,,,,,,,,,,num_4,1.4694606000120984,num_4,0.4,0.9,0.20000000000000007,0.5,7.6411,19.10275,return,4.220529600017471,,,,,,,,,,,,,,,,,717,24,female,up_down_width,2024-08-27_15h59.33.664,exp1,2023.1.0,59.91723033728238,
,,,,,,,,,,,,,,,,4,9.1,9.7,10.3,10.9,0,0.6,0.04999999999999997,0.55,2.35,10,match,36.05,328,350,371,393,0,9,9,9,9,0,,,,,,,0,0,0,0,0,17,17,12,,,,,,,,,,,,num_4,1.3708134000044083,num_4,0.4,0.7,0.30000000000000004,0.6,11.46165,22.9233,return,8.224030900004436,,,,,,,,,,,,,,,,,717,24,female,up_down_width,2024-08-27_15h59.33.664,exp1,2023.1.0,59.91723033728238,
,,,,,,,,,,,,,,,,4,8.95,9.65,10.35,11.05,0,0.7,0.44999999999999996,0.25,2.3499999999999996,10,initial,36.05,323,348,373,398,0,9,9,9,9,0,,,,,,,0,0,0,0,0,18,18,24,,,,,,,,,,,,num_4,1.4797334000177216,num_4,0.35,1.2,0.25,0.6,9.55138,22.9233,return,6.362680800011731,,,,,,,,,,,,,,,,,717,24,female,up_down_width,2024-08-27_15h59.33.664,exp1,2023.1.0,59.91723033728238,
,,,,,,,,,,,,,,,,5,8.2,9.1,10,10.9,11.8,0.9,0.5,0.4,4,10,initial,36.05,296,328,361,393,425,9,9,9,9,9,,,,,,,0,0,0,0,0,19,19,50,,,,,,,,,,,,num_5,2.5349562000046717,num_5,0.4,0.8,0.35000000000000003,0.65,13.37193,24.83358,return,5.02402890000667,,,,,,,,,,,,,,,,,717,24,female,up_down_width,2024-08-27_15h59.33.664,exp1,2023.1.0,59.91723033728238,
,,,,,,,,,,,,,,,,4,8.95,9.65,10.35,11.05,0,0.7,0.1499999999999999,0.55,2.65,10,initial,36.05,323,348,373,398,0,9,9,9,9,0,,,,,,,0,0,0,0,0,20,20,23,,,,,,,,,,,,num_4,1.3273322000168264,num_4,0.4,0.9,0.4,0.7,15.2822,26.74385,return,5.080828400023165,,,,,,,,,,,,,,,,,717,24,female,up_down_width,2024-08-27_15h59.33.664,exp1,2023.1.0,59.91723033728238,
,,,,,,,,,,,,,,,,3,7.8,10,12.2,0,0,2.2,1.65,0.55,4.95,10,match,36.05,281,361,440,0,0,9,9,9,0,0,,,,,,,0,0,0,0,0,21,21,35,,,,,,,,,,,,num_3,1.474223900018842,num_3,0.3,1.2,0.25,1.3,9.55138,49.66716,return,3.1658708000177285,,,,,,,,,,,,,,,,,717,24,female,up_down_width,2024-08-27_15h59.33.664,exp1,2023.1.0,59.91723033728238,
,,,,,,,,,,,,,,,,3,8.2,10,11.8,0,0,1.8,1.55,0.25,3.85,10,match,36.05,296,361,425,0,0,9,9,9,0,0,,,,,,,0,0,0,0,0,22,22,49,,,,,,,,,,,,num_3,1.5014522000128636,num_3,0.5,1,0.20000000000000007,1.25,7.6411,47.75688,return,5.663717500006896,,,,,,,,,,,,,,,,,717,24,female,up_down_width,2024-08-27_15h59.33.664,exp1,2023.1.0,59.91723033728238,
,,,,,,,,,,,,,,,,3,8.2,10,11.8,0,0,1.8,1.25,0.55,4.15,10,match,36.05,296,361,425,0,0,9,9,9,0,0,,,,,,,0,0,0,0,0,23,23,47,,,,,,,,,,,,num_3,1.6421343000110937,num_3,0.2,0.6,0.39999999999999997,1.15,15.2822,43.93633,return,7.760752400005003,,,,,,,,,,,,,,,,,717,24,female,up_down_width,2024-08-27_15h59.33.664,exp1,2023.1.0,59.91723033728238,
,,,,,,,,,,,,,,,,4,8.65,9.55,10.45,11.35,0,0.9,0.35,0.55,3.25,10,initial,36.05,312,344,377,409,0,9,9,9,9,0,,,,,,,0,0,0,0,0,24,24,28,,,,,,,,,,,,num_3,1.5569385000126204,num_3,0.5,0.7,0.45,1.1,17.19248,42.02605,return,5.646992000023602,,,,,,,,,,,,,,,,,717,24,female,up_down_width,2024-08-27_15h59.33.664,exp1,2023.1.0,59.91723033728238,
,,,,,,,,,,,,,,,,4,8.35,9.45,10.55,11.65,0,1.1,0.7000000000000001,0.4,3.7,10,initial,36.05,301,341,380,420,0,9,9,9,9,0,,,,,,,0,0,0,0,0,25,25,21,,,,,,,,,,,,num_3,1.2519912000134354,num_3,0.35,0.4,0.35,0.95,13.37193,36.29523,return,7.728899500012631,,,,,,,,,,,,,,,,,717,24,female,up_down_width,2024-08-27_15h59.33.664,exp1,2023.1.0,59.91723033728238,
,,,,,,,,,,,,,,,,5,8.2,9.1,10,10.9,11.8,0.9,0.65,0.25,3.85,10,initial,36.05,296,328,361,393,425,9,9,9,9,9,,,,,,,0,0,0,0,0,26,26,48,,,,,,,,,,,,num_4,2.7569157000107225,num_4,0.25,0.7,0.3,0.9,11.46165,34.38495,return,6.7186060000094585,,,,,,,,,,,,,,,,,717,24,female,up_down_width,2024-08-27_15h59.33.664,exp1,2023.1.0,59.91723033728238,
,,,,,,,,,,,,,,,,4,8.95,9.65,10.35,11.05,0,0.7,0.29999999999999993,0.4,2.5,10,initial,36.05,323,348,373,398,0,9,9,9,9,0,,,,,,,0,0,0,0,0,27,27,26,,,,,,,,,,,,num_4,1.1420822000072803,num_4,0.3,0.9,0.25,0.7,9.55138,26.74385,return,4.880960900016362,,,,,,,,,,,,,,,,,717,24,female,up_down_width,2024-08-27_15h59.33.664,exp1,2023.1.0,59.91723033728238,
,,,,,,,,,,,,,,,,4,9.3,9.766666666666667,10.233333333333333,10.7,0,0.4666666666666667,0.21666666666666665,0.25,1.65,10,match,36.05,335,352,369,386,0,9,9,9,9,0,,,,,,,0,0,0,0,0,28,28,8,,,,,,,,,,,,num_4,1.4142431000218494,num_4,0.45,1.1,0.25000000000000006,0.7,9.55138,26.74385,return,4.822552800003905,,,,,,,,,,,,,,,,,717,24,female,up_down_width,2024-08-27_15h59.33.664,exp1,2023.1.0,59.91723033728238,
,,,,,,,,,,,,,,,,5,8.65,9.325,10,10.675,11.35,0.675,0.275,0.4,3.1,10,match,36.05,312,336,361,385,409,9,9,9,9,9,,,,,,,0,0,0,0,0,29,29,33,,,,,,,,,,,,num_4,1.1236305000056745,num_4,0.45,0.8,0.45,0.8,17.19248,30.5644,return,1.3963767000095686,,,,,,,,,,,,,,,,,717,24,female,up_down_width,2024-08-27_15h59.33.664,exp1,2023.1.0,59.91723033728238,
,,,,,,,,,,,,,,,,5,8.95,9.475,10,10.525,11.05,0.525,0.125,0.4,2.5,10,match,36.05,323,342,361,379,398,9,9,9,9,9,,,,,,,0,0,0,0,0,30,30,27,,,,,,,,,,,,num_4,1.2388338000164367,num_4,0.2,0.4,0.3,0.5,11.46165,19.10275,return,9.866977000012412,,,,,,,,,,,,,,,,,717,24,female,up_down_width,2024-08-27_15h59.33.664,exp1,2023.1.0,59.91723033728238,
,,,,,,,,,,,,,,,,3,8.2,10,11.8,0,0,1.7999999999999998,1.4,0.4,4,10,match,36.05,296,361,425,0,0,9,9,9,0,0,,,,,,,0,0,0,0,0,31,31,51,,,,,,,,,,,,num_3,1.4031139000144321,num_3,0.55,0.7,0.25000000000000006,1.1,9.55138,42.02605,return,6.562240800019936,,,,,,,,,,,,,,,,,717,24,female,up_down_width,2024-08-27_15h59.33.664,exp1,2023.1.0,59.91723033728238,
,,,,,,,,,,,,,,,,5,7.8,8.9,10,11.1,12.2,1.1,0.55,0.55,4.95,10,initial,36.05,281,321,361,400,440,9,9,9,9,9,,,,,,,0,0,0,0,0,32,32,34,,,,,,,,,,,,num_5,1.4851982000254793,num_5,0.5,0.6,0.30000000000000004,0.7,11.46165,26.74385,return,3.99471570001333,,,,,,,,,,,,,,,,,717,24,female,up_down_width,2024-08-27_15h59.33.664,exp1,2023.1.0,59.91723033728238,
,,,,,,,,,,,,,,,,5,8.35,9.175,10,10.825,11.65,0.825,0.575,0.25,3.55,10,match,36.05,301,331,361,390,420,9,9,9,9,9,,,,,,,0,0,0,0,0,33,33,20,,,,,,,,,,,,num_4,1.6419024000060745,num_4,0.5,0.8,0.30000000000000004,0.8,11.46165,30.5644,return,2.7746393000124954,,,,,,,,,,,,,,,,,717,24,female,up_down_width,2024-08-27_15h59.33.664,exp1,2023.1.0,59.91723033728238,
,,,,,,,,,,,,,,,,3,8.6,10,11.4,0,0,1.4,1.15,0.25,3.05,10,match,36.05,310,361,411,0,0,9,9,9,0,0,,,,,,,0,0,0,0,0,34,34,43,,,,,,,,,,,,num_3,1.134643400015193,num_3,0.35,0.9,0.2,1.0,7.6411,38.2055,return,2.859155300015118,,,,,,,,,,,,,,,,,717,24,female,up_down_width,2024-08-27_15h59.33.664,exp1,2023.1.0,59.91723033728238,
,,,,,,,,,,,,,,,,5,8.6,9.3,10,10.7,11.4,0.7,0.44999999999999996,0.25,3.05,10,initial,36.05,310,335,361,386,411,9,9,9,9,9,,,,,,,0,0,0,0,0,35,35,42,,,,,,,,,,,,num_4,1.2810000000026776,num_4,0.25,0.9,0.25,0.8,9.55138,30.5644,return,3.420586300009745,,,,,,,,,,,,,,,,,717,24,female,up_down_width,2024-08-27_15h59.33.664,exp1,2023.1.0,59.91723033728238,
,,,,,,,,,,,,,,,,4,8.35,9.45,10.55,11.65,0,1.1,0.8500000000000001,0.25,3.5500000000000003,10,initial,36.05,301,341,380,420,0,9,9,9,9,0,,,,,,,0,0,0,0,0,36,36,19,,,,,,,,,,,,num_4,2.523238100009621,num_4,0.3,0.7,0.15000000000000002,1.0,5.73083,38.2055,return,7.364482500008307,,,,,,,,,,,,,,,,,717,24,female,up_down_width,2024-08-27_15h59.33.664,exp1,2023.1.0,59.91723033728238,
,,,,,,,,,,,,,,,,5,8.35,9.175,10,10.825,11.65,0.8250000000000001,0.275,0.55,3.85,10,match,36.05,301,331,361,390,420,9,9,9,9,9,,,,,,,0,0,0,0,0,37,37,18,,,,,,,,,,,,num_4,1.1847655000019586,num_4,0.3,0.3,0.3,0.8,11.46165,30.5644,return,9.402823800017359,,,,,,,,,,,,,,,,,717,24,female,up_down_width,2024-08-27_15h59.33.664,exp1,2023.1.0,59.91723033728238,
,,,,,,,,,,,,,,,,3,9.3,10,10.7,0,0,0.7,0.1499999999999999,0.55,1.95,10,initial,36.05,335,361,386,0,0,9,9,9,0,0,,,,,,,0,0,0,0,0,38,38,6,,,,,,,,,,,,num_3,1.4080486000020755,num_3,0.45,0.5,0.45,0.7,17.19248,26.74385,return,4.406120600018767,,,,,,,,,,,,,,,,,717,24,female,up_down_width,2024-08-27_15h59.33.664,exp1,2023.1.0,59.91723033728238,
,,,,,,,,,,,,,,,,3,9.1,10,10.9,0,0,0.9,0.5,0.4,2.2,10,initial,36.05,328,361,393,0,0,9,9,9,0,0,,,,,,,0,0,0,0,0,39,39,15,,,,,,,,,,,,num_3,1.081092800013721,num_3,0.55,0.7,0.35000000000000003,0.8,13.37193,30.5644,return,3.8147103000083007,,,,,,,,,,,,,,,,,717,24,female,up_down_width,2024-08-27_15h59.33.664,exp1,2023.1.0,59.91723033728238,
,,,,,,,,,,,,,,,,5,8.65,9.325,10,10.675,11.35,0.675,0.125,0.55,3.25,10,match,36.05,312,336,361,385,409,9,9,9,9,9,,,,,,,0,0,0,0,0,40,40,29,,,,,,,,,,,,num_3,1.4928545000148006,num_3,0.25,0.5,0.35,0.65,13.37193,24.83358,return,7.810877600015374,,,,,,,,,,,,,,,,,717,24,female,up_down_width,2024-08-27_15h59.33.664,exp1,2023.1.0,59.91723033728238,
,,,,,,,,,,,,,,,,3,8.9,10,11.1,0,0,1.1,0.7000000000000001,0.4,2.6000000000000005,10,initial,36.05,321,361,400,0,0,9,9,9,0,0,,,,,,,0,0,0,0,0,41,41,4,,,,,,,,,,,,num_3,1.0730900000198744,num_3,0.35,1.1,0.3,0.8,11.46165,30.5644,return,4.462237200001255,,,,,,,,,,,,,,,,,717,24,female,up_down_width,2024-08-27_15h59.33.664,exp1,2023.1.0,59.91723033728238,
,,,,,,,,,,,,,,,,4,9.1,9.7,10.3,10.9,0,0.5999999999999999,0.3499999999999999,0.25,2.05,10,match,36.05,328,350,371,393,0,9,9,9,9,0,,,,,,,0,0,0,0,0,42,42,14,,,,,,,,,,,,num_3,1.1398120000230847,num_3,0.35,0.5,0.2,0.95,7.6411,36.29523,return,5.524952300009318,,,,,,,,,,,,,,,,,717,24,female,up_down_width,2024-08-27_15h59.33.664,exp1,2023.1.0,59.91723033728238,
,,,,,,,,,,,,,,,,4,8.65,9.55,10.45,11.35,0,0.9,0.5,0.4,3.1,10,initial,36.05,312,344,377,409,0,9,9,9,9,0,,,,,,,0,0,0,0,0,43,43,32,,,,,,,,,,,,num_3,1.5152297000167891,num_3,0.55,0.9,0.25000000000000006,1.05,9.55138,40.11578,return,5.927937600019504,,,,,,,,,,,,,,,,,717,24,female,up_down_width,2024-08-27_15h59.33.664,exp1,2023.1.0,59.91723033728238,
,,,,,,,,,,,,,,,,3,9.1,10,10.9,0,0,0.9,0.35,0.55,2.35,10,initial,36.05,328,361,393,0,0,9,9,9,0,0,,,,,,,0,0,0,0,0,44,44,11,,,,,,,,,,,,num_3,1.313454000017373,num_3,0.2,1.1,0.5499999999999999,0.95,21.01303,36.29523,return,5.444363400019938,,,,,,,,,,,,,,,,,717,24,female,up_down_width,2024-08-27_15h59.33.664,exp1,2023.1.0,59.91723033728238,
,,,,,,,,,,,,,,,,3,7.8,10,12.2,0,0,2.2,1.9500000000000002,0.25,4.65,10,match,36.05,281,361,440,0,0,9,9,9,0,0,,,,,,,0,0,0,0,0,45,45,37,,,,,,,,,,,,num_3,1.0598449000099208,num_3,0.4,1,0.20000000000000007,1.15,7.6411,43.93633,return,4.1520908000238705,,,,,,,,,,,,,,,,,717,24,female,up_down_width,2024-08-27_15h59.33.664,exp1,2023.1.0,59.91723033728238,
,,,,,,,,,,,,,,,,5,8.95,9.475,10,10.525,11.05,0.525,0.275,0.25,2.35,10,match,36.05,323,342,361,379,398,9,9,9,9,9,,,,,,,0,0,0,0,0,46,46,25,,,,,,,,,,,,num_4,3.227698100017733,num_4,0.3,0.8,0.25,0.7,9.55138,26.74385,return,3.6029801000113366,,,,,,,,,,,,,,,,,717,24,female,up_down_width,2024-08-27_15h59.33.664,exp1,2023.1.0,59.91723033728238,
,,,,,,,,,,,,,,,,4,8.825,9.608333333333333,10.391666666666667,11.175,0,0.7833333333333333,0.5333333333333333,0.25,2.6,10,match,36.05,318,346,375,403,0,9,9,9,9,0,,,,,,,0,0,0,0,0,47,47,5,,,,,,,,,,,,num_4,1.0521598000195809,num_4,0.35,0.5,0.2,0.8,7.6411,30.5644,return,5.818587400019169,,,,,,,,,,,,,,,,,717,24,female,up_down_width,2024-08-27_15h59.33.664,exp1,2023.1.0,59.91723033728238,
,,,,,,,,,,,,,,,,4,8.35,9.45,10.55,11.65,0,1.1,0.55,0.55,3.8500000000000005,10,initial,36.05,301,341,380,420,0,9,9,9,9,0,,,,,,,0,0,0,0,0,48,48,17,,,,,,,,,,,,num_4,1.1928502000228036,num_4,0.55,1.1,0.30000000000000004,0.8,11.46165,30.5644,return,4.232218200006173,,,,,,,,,,,,,,,,,717,24,female,up_down_width,2024-08-27_15h59.33.664,exp1,2023.1.0,59.91723033728238,
,,,,,,,,,,,,,,,,3,8.525,10,11.475,0,0,1.475,1.225,0.25,3.2,10,match,36.05,307,361,414,0,0,9,9,9,0,0,,,,,,,0,0,0,0,0,49,49,45,,,,,,,,,,,,num_3,1.148518400004832,num_3,0.35,1.1,0.25,1.05,9.55138,40.11578,return,3.2456479000102263,,,,,,,,,,,,,,,,,717,24,female,up_down_width,2024-08-27_15h59.33.664,exp1,2023.1.0,59.91723033728238,
,,,,,,,,,,,,,,,,5,8.65,9.325,10,10.675,11.35,0.675,0.42500000000000004,0.25,2.95,10,match,36.05,312,336,361,385,409,9,9,9,9,9,,,,,,,0,0,0,0,0,50,50,31,,,,,,,,,,,,num_5,1.3180985000071814,num_5,0.35,0.4,0.2,0.65,7.6411,24.83358,return,6.504698100005044,,,,,,,,,,,,,,,,,717,24,female,up_down_width,2024-08-27_15h59.33.664,exp1,2023.1.0,59.91723033728238,
,,,,,,,,,,,,,,,,5,8.275,9.1375,10,10.8625,11.725,0.8625,0.6125,0.25,3.7,10,match,36.05,298,329,361,392,423,9,9,9,9,9,,,,,,,0,0,0,0,0,51,51,22,,,,,,,,,,,,num_5,1.6438547000143444,num_5,0.35,0.6,0.2,0.75,7.6411,28.65413,return,4.418483500019647,,,,,,,,,,,,,,,,,717,24,female,up_down_width,2024-08-27_15h59.33.664,exp1,2023.1.0,59.91723033728238,
,,,,,,,,,,,,,,,,,,,,,,,,,,,,,,,,,,,,,,,,,,,,,0,0,0,0,,,,,,,,,,,,,,,,,,,,,,,,,,,,,914.683386299992,914.683386299992,914.683386299992,,,,,,,,,,,,717,24,female,up_down_width,2024-08-27_15h59.33.664,exp1,2023.1.0,59.91723033728238,
,,,,,,,,,,,,,,,,3,7.800000000000001,10,12.2,0,0,2.1999999999999997,1.7999999999999998,0.4,4.8,10,match,36.05,281,361,440,0,0,9,9,9,0,0,,,,,,,1,0,1,0,0,0,0,39,,,,,,,,,,,,num_3,1.471406200013007,num_3,0.4,0.5,0.25000000000000006,0.95,9.55138,36.29523,return,7.650849600016954,,,,,,,,,,,,,,,,,717,24,female,up_down_width,2024-08-27_15h59.33.664,exp1,2023.1.0,59.91723033728238,
,,,,,,,,,,,,,,,,3,8.9,10,11.1,0,0,1.1,0.7000000000000001,0.4,2.6000000000000005,10,initial,36.05,321,361,400,0,0,9,9,9,0,0,,,,,,,1,0,1,0,0,1,1,4,,,,,,,,,,,,num_3,1.2370502000121633,num_3,0.45,1.2,0.35000000000000003,0.85,13.37193,32.47468,return,3.6120419000217225,,,,,,,,,,,,,,,,,717,24,female,up_down_width,2024-08-27_15h59.33.664,exp1,2023.1.0,59.91723033728238,
,,,,,,,,,,,,,,,,5,8.6,9.3,10,10.7,11.4,0.7,0.29999999999999993,0.4,3.1999999999999997,10,initial,36.05,310,335,361,386,411,9,9,9,9,9,,,,,,,1,0,1,0,0,2,2,44,,,,,,,,,,,,num_4,1.503131300007226,num_4,0.25,0.3,0.3,0.8,11.46165,30.5644,return,5.770118300017202,,,,,,,,,,,,,,,,,717,24,female,up_down_width,2024-08-27_15h59.33.664,exp1,2023.1.0,59.91723033728238,
,,,,,,,,,,,,,,,,4,8.35,9.45,10.55,11.65,0,1.1,0.8500000000000001,0.25,3.5500000000000003,10,initial,36.05,301,341,380,420,0,9,9,9,9,0,,,,,,,1,0,1,0,0,3,3,19,,,,,,,,,,,,num_4,1.1530511000164552,num_4,0.35,0.9,0.25,0.7,9.55138,26.74385,return,3.963795500007109,,,,,,,,,,,,,,,,,717,24,female,up_down_width,2024-08-27_15h59.33.664,exp1,2023.1.0,59.91723033728238,
,,,,,,,,,,,,,,,,3,9.3,10,10.7,0,0,0.7,0.29999999999999993,0.4,1.8,10,initial,36.05,335,361,386,0,0,9,9,9,0,0,,,,,,,1,0,1,0,0,4,4,9,,,,,,,,,,,,num_3,1.0086692000186304,num_3,0.2,0.3,0.25,0.55,9.55138,21.01303,return,4.752412200017716,,,,,,,,,,,,,,,,,717,24,female,up_down_width,2024-08-27_15h59.33.664,exp1,2023.1.0,59.91723033728238,
,,,,,,,,,,,,,,,,4,8.95,9.65,10.35,11.05,0,0.7,0.44999999999999996,0.25,2.3499999999999996,10,initial,36.05,323,348,373,398,0,9,9,9,9,0,,,,,,,1,0,1,0,0,5,5,24,,,,,,,,,,,,num_4,1.417955000011716,num_4,0.5,0.7,0.25000000000000006,0.6,9.55138,22.9233,return,3.1526137000182644,,,,,,,,,,,,,,,,,717,24,female,up_down_width,2024-08-27_15h59.33.664,exp1,2023.1.0,59.91723033728238,
,,,,,,,,,,,,,,,,5,8.95,9.475,10,10.525,11.05,0.525,0.275,0.25,2.35,10,match,36.05,323,342,361,379,398,9,9,9,9,9,,,,,,,1,0,1,0,0,6,6,25,,,,,,,,,,,,num_4,1.2852060000150232,num_4,0.45,1.1,0.30000000000000004,0.6,11.46165,22.9233,return,3.560328400009894,,,,,,,,,,,,,,,,,717,24,female,up_down_width,2024-08-27_15h59.33.664,exp1,2023.1.0,59.91723033728238,
,,,,,,,,,,,,,,,,3,8.525,10,11.475,0,0,1.475,1.225,0.25,3.2,10,match,36.05,307,361,414,0,0,9,9,9,0,0,,,,,,,1,0,1,0,0,7,7,45,,,,,,,,,,,,num_3,0.9181675000145333,num_3,0.5,0.8,0.20000000000000007,0.9,7.6411,34.38495,return,3.977080800017575,,,,,,,,,,,,,,,,,717,24,female,up_down_width,2024-08-27_15h59.33.664,exp1,2023.1.0,59.91723033728238,
,,,,,,,,,,,,,,,,3,9.1,10,10.9,0,0,0.9,0.5,0.4,2.2,10,initial,36.05,328,361,393,0,0,9,9,9,0,0,,,,,,,1,0,1,0,0,8,8,15,,,,,,,,,,,,num_3,1.1427522000158206,num_3,0.2,0.6,0.39999999999999997,0.95,15.2822,36.29523,return,6.435486800008221,,,,,,,,,,,,,,,,,717,24,female,up_down_width,2024-08-27_15h59.33.664,exp1,2023.1.0,59.91723033728238,
,,,,,,,,,,,,,,,,4,8.65,9.55,10.45,11.35,0,0.9,0.5,0.4,3.1,10,initial,36.05,312,344,377,409,0,9,9,9,9,0,,,,,,,1,0,1,0,0,9,9,32,,,,,,,,,,,,num_4,1.1399495000077877,num_4,0.4,0.5,0.30000000000000004,1.0,11.46165,38.2055,return,8.292785600016941,,,,,,,,,,,,,,,,,717,24,female,up_down_width,2024-08-27_15h59.33.664,exp1,2023.1.0,59.91723033728238,
,,,,,,,,,,,,,,,,4,8.95,9.65,10.35,11.05,0,0.7,0.1499999999999999,0.55,2.65,10,initial,36.05,323,348,373,398,0,9,9,9,9,0,,,,,,,1,0,1,0,0,10,10,23,,,,,,,,,,,,num_3,2.2427822000026936,num_3,0.3,0.5,0.35,0.6,13.37193,22.9233,return,6.375670200010063,,,,,,,,,,,,,,,,,717,24,female,up_down_width,2024-08-27_15h59.33.664,exp1,2023.1.0,59.91723033728238,
,,,,,,,,,,,,,,,,3,9.1,10,10.9,0,0,0.9,0.35,0.55,2.35,10,initial,36.05,328,361,393,0,0,9,9,9,0,0,,,,,,,1,0,1,0,0,11,11,11,,,,,,,,,,,,num_3,1.1326570000092033,num_3,0.25,0.9,0.44999999999999996,0.7,17.19248,26.74385,return,5.014434600016102,,,,,,,,,,,,,,,,,717,24,female,up_down_width,2024-08-27_15h59.33.664,exp1,2023.1.0,59.91723033728238,
,,,,,,,,,,,,,,,,3,8.6,10,11.4,0,0,1.4,0.85,0.55,3.35,10,match,36.05,310,361,411,0,0,9,9,9,0,0,,,,,,,1,0,1,0,0,12,12,41,,,,,,,,,,,,num_3,1.0057352000148967,num_3,0.35,1.2,0.35,1.0,13.37193,38.2055,return,3.789153700010502,,,,,,,,,,,,,,,,,717,24,female,up_down_width,2024-08-27_15h59.33.664,exp1,2023.1.0,59.91723033728238,
,,,,,,,,,,,,,,,,4,9.1,9.7,10.3,10.9,0,0.6000000000000001,0.20000000000000004,0.4,2.2,10,match,36.05,328,350,371,393,0,9,9,9,9,0,,,,,,,1,0,1,0,0,13,13,16,,,,,,,,,,,,num_3,1.1296659000072395,num_3,0.35,1.1,0.35,0.65,13.37193,24.83358,return,4.748778500012122,,,,,,,,,,,,,,,,,717,24,female,up_down_width,2024-08-27_15h59.33.664,exp1,2023.1.0,59.91723033728238,
,,,,,,,,,,,,,,,,3,9.3,10,10.7,0,0,0.7,0.1499999999999999,0.55,1.95,10,initial,36.05,335,361,386,0,0,9,9,9,0,0,,,,,,,1,0,1,0,0,14,14,6,,,,,,,,,,,,num_3,1.2706244000146398,num_3,0.3,1,0.35,0.55,13.37193,21.01303,return,5.891266700011329,,,,,,,,,,,,,,,,,717,24,female,up_down_width,2024-08-27_15h59.33.664,exp1,2023.1.0,59.91723033728238,
,,,,,,,,,,,,,,,,4,9.1,9.7,10.3,10.9,0,0.6,0.04999999999999997,0.55,2.35,10,match,36.05,328,350,371,393,0,9,9,9,9,0,,,,,,,1,0,1,0,0,15,15,12,,,,,,,,,,,,num_3,1.3275986000226112,num_3,0.3,0.5,0.35,0.45,13.37193,17.19248,return,5.808900000018184,,,,,,,,,,,,,,,,,717,24,female,up_down_width,2024-08-27_15h59.33.664,exp1,2023.1.0,59.91723033728238,
,,,,,,,,,,,,,,,,5,8.275,9.1375,10,10.8625,11.725,0.8625,0.6125,0.25,3.7,10,match,36.05,298,329,361,392,423,9,9,9,9,9,,,,,,,1,0,1,0,0,16,16,22,,,,,,,,,,,,num_4,1.1488250000111293,num_4,0.55,0.6,0.20000000000000007,0.7,7.6411,26.74385,return,5.966457800008357,,,,,,,,,,,,,,,,,717,24,female,up_down_width,2024-08-27_15h59.33.664,exp1,2023.1.0,59.91723033728238,
,,,,,,,,,,,,,,,,3,9.1,10,10.9,0,0,0.9,0.65,0.25,2.05,10,initial,36.05,328,361,393,0,0,9,9,9,0,0,,,,,,,1,0,1,0,0,17,17,13,,,,,,,,,,,,num_3,1.3289878000068711,num_3,0.5,0.6,0.25000000000000006,0.85,9.55138,32.47468,return,4.07463300001109,,,,,,,,,,,,,,,,,717,24,female,up_down_width,2024-08-27_15h59.33.664,exp1,2023.1.0,59.91723033728238,
,,,,,,,,,,,,,,,,5,7.8,8.9,10,11.1,12.2,1.1,0.8500000000000001,0.25,4.65,10,initial,36.05,281,321,361,400,440,9,9,9,9,9,,,,,,,1,0,1,0,0,18,18,36,,,,,,,,,,,,num_4,1.2434760000178358,num_4,0.2,1.1,0.2,1.1,7.6411,42.02605,return,1.2007416999986162,,,,,,,,,,,,,,,,,717,24,female,up_down_width,2024-08-27_15h59.33.664,exp1,2023.1.0,59.91723033728238,
,,,,,,,,,,,,,,,,4,8.65,9.55,10.45,11.35,0,0.9,0.65,0.25,2.95,10,initial,36.05,312,344,377,409,0,9,9,9,9,0,,,,,,,1,0,1,0,0,19,19,30,,,,,,,,,,,,num_4,2.890973000015947,num_4,0.2,0.6,0.15000000000000002,0.9,5.73083,34.38495,return,4.438274200001615,,,,,,,,,,,,,,,,,717,24,female,up_down_width,2024-08-27_15h59.33.664,exp1,2023.1.0,59.91723033728238,
,,,,,,,,,,,,,,,,4,8.825,9.608333333333333,10.391666666666667,11.175,0,0.7833333333333333,0.5333333333333333,0.25,2.6,10,match,36.05,318,346,375,403,0,9,9,9,9,0,,,,,,,1,0,1,0,0,20,20,5,,,,,,,,,,,,num_3,1.336267000020598,num_3,0.2,0.7,0.2,1.1,7.6411,42.02605,return,6.716194000022369,,,,,,,,,,,,,,,,,717,24,female,up_down_width,2024-08-27_15h59.33.664,exp1,2023.1.0,59.91723033728238,
,,,,,,,,,,,,,,,,5,8.65,9.325,10,10.675,11.35,0.675,0.125,0.55,3.25,10,match,36.05,312,336,361,385,409,9,9,9,9,9,,,,,,,1,0,1,0,0,21,21,29,,,,,,,,,,,,num_4,1.7391193000221392,num_4,0.2,1.2,0.25,0.5,9.55138,19.10275,return,4.9891533000190975,,,,,,,,,,,,,,,,,717,24,female,up_down_width,2024-08-27_15h59.33.664,exp1,2023.1.0,59.91723033728238,
,,,,,,,,,,,,,,,,5,7.8,8.9,10,11.1,12.2,1.1,0.7000000000000001,0.4,4.800000000000001,10,initial,36.05,281,321,361,400,440,9,9,9,9,9,,,,,,,1,0,1,0,0,22,22,38,,,,,,,,,,,,num_5,1.2690542000054847,num_5,0.2,1.0,0.2,0.6,7.6411,22.9233,return,3.8979363000107696,,,,,,,,,,,,,,,,,717,24,female,up_down_width,2024-08-27_15h59.33.664,exp1,2023.1.0,59.91723033728238,
,,,,,,,,,,,,,,,,3,7.8,10,12.2,0,0,2.2,1.9500000000000002,0.25,4.65,10,match,36.05,281,361,440,0,0,9,9,9,0,0,,,,,,,1,0,1,0,0,23,23,37,,,,,,,,,,,,num_3,0.9563059000211069,num_3,0.4,0.6,0.20000000000000007,1.2,7.6411,45.8466,return,6.094313300010981,,,,,,,,,,,,,,,,,717,24,female,up_down_width,2024-08-27_15h59.33.664,exp1,2023.1.0,59.91723033728238,
,,,,,,,,,,,,,,,,3,8.9,10,11.1,0,0,1.1,0.8500000000000001,0.25,2.45,10,initial,36.05,321,361,400,0,0,9,9,9,0,0,,,,,,,1,0,1,0,0,24,24,2,,,,,,,,,,,,num_3,1.274187000017264,num_3,0.25,0.9,0.15000000000000002,0.95,5.73083,36.29523,return,3.4407996000081766,,,,,,,,,,,,,,,,,717,24,female,up_down_width,2024-08-27_15h59.33.664,exp1,2023.1.0,59.91723033728238,
,,,,,,,,,,,,,,,,5,8.95,9.475,10,10.525,11.05,0.525,0.125,0.4,2.5,10,match,36.05,323,342,361,379,398,9,9,9,9,9,,,,,,,1,0,1,0,0,25,25,27,,,,,,,,,,,,num_4,1.1819077000109246,num_4,0.25,1.1,0.2,0.5,7.6411,19.10275,return,6.296801700023934,,,,,,,,,,,,,,,,,717,24,female,up_down_width,2024-08-27_15h59.33.664,exp1,2023.1.0,59.91723033728238,
,,,,,,,,,,,,,,,,5,8.35,9.175,10,10.825,11.65,0.825,0.575,0.25,3.55,10,match,36.05,301,331,361,390,420,9,9,9,9,9,,,,,,,1,0,1,0,0,26,26,20,,,,,,,,,,,,num_4,1.6029378000239376,num_4,0.3,1.0,0.2,0.6,7.6411,22.9233,return,3.8088937000138685,,,,,,,,,,,,,,,,,717,24,female,up_down_width,2024-08-27_15h59.33.664,exp1,2023.1.0,59.91723033728238,
,,,,,,,,,,,,,,,,5,7.8,8.9,10,11.1,12.2,1.1,0.55,0.55,4.95,10,initial,36.05,281,321,361,400,440,9,9,9,9,9,,,,,,,1,0,1,0,0,27,27,34,,,,,,,,,,,,num_5,1.2008238000125857,num_5,0.4,0.9,0.35000000000000003,0.85,13.37193,32.47468,return,3.016700200008927,,,,,,,,,,,,,,,,,717,24,female,up_down_width,2024-08-27_15h59.33.664,exp1,2023.1.0,59.91723033728238,
,,,,,,,,,,,,,,,,5,8.6,9.3,10,10.7,11.4,0.7,0.44999999999999996,0.25,3.05,10,initial,36.05,310,335,361,386,411,9,9,9,9,9,,,,,,,1,0,1,0,0,28,28,42,,,,,,,,,,,,num_4,1.8532846000161953,num_4,0.5,1.2,0.35000000000000003,0.8,13.37193,30.5644,return,6.401127600009204,,,,,,,,,,,,,,,,,717,24,female,up_down_width,2024-08-27_15h59.33.664,exp1,2023.1.0,59.91723033728238,
,,,,,,,,,,,,,,,,5,8.2,9.1,10,10.9,11.8,0.9,0.5,0.4,4,10,initial,36.05,296,328,361,393,425,9,9,9,9,9,,,,,,,1,0,1,0,0,29,29,50,,,,,,,,,,,,num_4,1.0778582000057213,num_4,0.2,0.8,0.25,0.7,9.55138,26.74385,return,6.451655100012431,,,,,,,,,,,,,,,,,717,24,female,up_down_width,2024-08-27_15h59.33.664,exp1,2023.1.0,59.91723033728238,
,,,,,,,,,,,,,,,,4,8.95,9.65,10.35,11.05,0,0.7,0.29999999999999993,0.4,2.5,10,initial,36.05,323,348,373,398,0,9,9,9,9,0,,,,,,,1,0,1,0,0,30,30,26,,,,,,,,,,,,num_4,1.2244509000011021,num_4,0.2,0.4,0.35,0.8,13.37193,30.5644,return,5.134321800011094,,,,,,,,,,,,,,,,,717,24,female,up_down_width,2024-08-27_15h59.33.664,exp1,2023.1.0,59.91723033728238,
,,,,,,,,,,,,,,,,4,9.3,9.766666666666667,10.233333333333333,10.7,0,0.4666666666666667,0.21666666666666665,0.25,1.65,10,match,36.05,335,352,369,386,0,9,9,9,9,0,,,,,,,1,0,1,0,0,31,31,8,,,,,,,,,,,,num_4,2.202942600022652,num_4,0.4,0.9,0.25000000000000006,0.5,9.55138,19.10275,return,3.64629000001878,,,,,,,,,,,,,,,,,717,24,female,up_down_width,2024-08-27_15h59.33.664,exp1,2023.1.0,59.91723033728238,
,,,,,,,,,,,,,,,,4,8.9,9.633333333333333,10.366666666666667,11.1,0,0.7333333333333334,0.4833333333333334,0.25,2.45,10,match,36.05,321,347,374,400,0,9,9,9,9,0,,,,,,,1,0,1,0,0,32,32,3,,,,,,,,,,,,num_4,1.218585600014194,num_4,0.55,0.9,0.20000000000000007,0.5,7.6411,19.10275,return,4.187449300006847,,,,,,,,,,,,,,,,,717,24,female,up_down_width,2024-08-27_15h59.33.664,exp1,2023.1.0,59.91723033728238,
,,,,,,,,,,,,,,,,3,8.2,10,11.8,0,0,1.8,1.25,0.55,4.15,10,match,36.05,296,361,425,0,0,9,9,9,0,0,,,,,,,1,0,1,0,0,33,33,47,,,,,,,,,,,,num_3,0.9222005000192439,num_3,0.25,0.3,0.2,1.1,7.6411,42.02605,return,7.076837300002808,,,,,,,,,,,,,,,,,717,24,female,up_down_width,2024-08-27_15h59.33.664,exp1,2023.1.0,59.91723033728238,
,,,,,,,,,,,,,,,,5,8.6,9.3,10,10.7,11.4,0.7,0.1499999999999999,0.55,3.3499999999999996,10,initial,36.05,310,335,361,386,411,9,9,9,9,9,,,,,,,1,0,1,0,0,34,34,40,,,,,,,,,,,,num_4,1.7992864000116242,num_4,0.55,0.8,0.4,0.8,15.2822,30.5644,return,4.250465100019937,,,,,,,,,,,,,,,,,717,24,female,up_down_width,2024-08-27_15h59.33.664,exp1,2023.1.0,59.91723033728238,
,,,,,,,,,,,,,,,,3,7.8,10,12.2,0,0,2.2,1.65,0.55,4.95,10,match,36.05,281,361,440,0,0,9,9,9,0,0,,,,,,,1,0,1,0,0,35,35,35,,,,,,,,,,,,num_3,0.9662411000026623,num_3,0.35,1.2,0.3,1.35,11.46165,51.57743,return,3.5661945000028936,,,,,,,,,,,,,,,,,717,24,female,up_down_width,2024-08-27_15h59.33.664,exp1,2023.1.0,59.91723033728238,
,,,,,,,,,,,,,,,,5,8.2,9.1,10,10.9,11.8,0.9,0.35,0.55,4.15,10,initial,36.05,296,328,361,393,425,9,9,9,9,9,,,,,,,1,0,1,0,0,36,36,46,,,,,,,,,,,,num_4,1.0154608000157168,num_4,0.25,0.9,0.39999999999999997,1.1,15.2822,42.02605,return,4.235897200007457,,,,,,,,,,,,,,,,,717,24,female,up_down_width,2024-08-27_15h59.33.664,exp1,2023.1.0,59.91723033728238,
,,,,,,,,,,,,,,,,3,8.2,10,11.8,0,0,1.7999999999999998,1.4,0.4,4,10,match,36.05,296,361,425,0,0,9,9,9,0,0,,,,,,,1,0,1,0,0,37,37,51,,,,,,,,,,,,num_3,1.1852808000112418,num_3,0.4,0.5,0.25000000000000006,1.05,9.55138,40.11578,return,5.691562700012582,,,,,,,,,,,,,,,,,717,24,female,up_down_width,2024-08-27_15h59.33.664,exp1,2023.1.0,59.91723033728238,
,,,,,,,,,,,,,,,,4,8.35,9.45,10.55,11.65,0,1.1,0.7000000000000001,0.4,3.7,10,initial,36.05,301,341,380,420,0,9,9,9,9,0,,,,,,,1,0,1,0,0,38,38,21,,,,,,,,,,,,num_4,1.301151600011508,num_4,0.25,1.0,0.25,0.8,9.55138,30.5644,return,1.8551679000229342,,,,,,,,,,,,,,,,,717,24,female,up_down_width,2024-08-27_15h59.33.664,exp1,2023.1.0,59.91723033728238,
,,,,,,,,,,,,,,,,4,8.65,9.55,10.45,11.35,0,0.9,0.35,0.55,3.25,10,initial,36.05,312,344,377,409,0,9,9,9,9,0,,,,,,,1,0,1,0,0,39,39,28,,,,,,,,,,,,num_3,1.106469600010314,num_3,0.35,0.8,0.25,0.85,9.55138,32.47468,return,4.324557900006766,,,,,,,,,,,,,,,,,717,24,female,up_down_width,2024-08-27_15h59.33.664,exp1,2023.1.0,59.91723033728238,
,,,,,,,,,,,,,,,,5,8.2,9.1,10,10.9,11.8,0.9,0.65,0.25,3.85,10,initial,36.05,296,328,361,393,425,9,9,9,9,9,,,,,,,1,0,1,0,0,40,40,48,,,,,,,,,,,,num_5,1.119578600017121,num_5,0.25,0.4,0.2,0.55,7.6411,21.01303,return,3.853478700024425,,,,,,,,,,,,,,,,,717,24,female,up_down_width,2024-08-27_15h59.33.664,exp1,2023.1.0,59.91723033728238,
,,,,,,,,,,,,,,,,5,8.65,9.325,10,10.675,11.35,0.675,0.275,0.4,3.1,10,match,36.05,312,336,361,385,409,9,9,9,9,9,,,,,,,1,0,1,0,0,41,41,33,,,,,,,,,,,,num_4,1.4172607000073185,num_4,0.4,1.1,0.25000000000000006,0.6,9.55138,22.9233,return,3.431093900013366,,,,,,,,,,,,,,,,,717,24,female,up_down_width,2024-08-27_15h59.33.664,exp1,2023.1.0,59.91723033728238,
,,,,,,,,,,,,,,,,4,8.9,9.633333333333333,10.366666666666667,11.1,0,0.7333333333333333,0.18333333333333326,0.55,2.75,10,match,36.05,321,347,374,400,0,9,9,9,9,0,,,,,,,1,0,1,0,0,42,42,1,,,,,,,,,,,,num_4,1.2080007000186015,num_4,0.2,0.5,0.35,0.6,13.37193,22.9233,return,4.722600600012811,,,,,,,,,,,,,,,,,717,24,female,up_down_width,2024-08-27_15h59.33.664,exp1,2023.1.0,59.91723033728238,
,,,,,,,,,,,,,,,,4,8.35,9.45,10.55,11.65,0,1.1,0.55,0.55,3.8500000000000005,10,initial,36.05,301,341,380,420,0,9,9,9,9,0,,,,,,,1,0,1,0,0,43,43,17,,,,,,,,,,,,num_4,1.03509160001704,num_4,0.3,0.6,0.35,0.9,13.37193,34.38495,return,3.437729200013564,,,,,,,,,,,,,,,,,717,24,female,up_down_width,2024-08-27_15h59.33.664,exp1,2023.1.0,59.91723033728238,
,,,,,,,,,,,,,,,,3,8.9,10,11.1,0,0,1.1,0.55,0.55,2.75,10,initial,36.05,321,361,400,0,0,9,9,9,0,0,,,,,,,1,0,1,0,0,44,44,0,,,,,,,,,,,,num_3,1.0179216000105953,num_3,0.25,1.1,0.49999999999999994,1.05,19.10275,40.11578,return,3.8029762000078335,,,,,,,,,,,,,,,,,717,24,female,up_down_width,2024-08-27_15h59.33.664,exp1,2023.1.0,59.91723033728238,
,,,,,,,,,,,,,,,,3,8.6,10,11.4,0,0,1.4,1.15,0.25,3.05,10,match,36.05,310,361,411,0,0,9,9,9,0,0,,,,,,,1,0,1,0,0,45,45,43,,,,,,,,,,,,num_3,0.9016708000126528,num_3,0.25,0.5,0.25,1.15,9.55138,43.93633,return,5.999556100010523,,,,,,,,,,,,,,,,,717,24,female,up_down_width,2024-08-27_15h59.33.664,exp1,2023.1.0,59.91723033728238,
,,,,,,,,,,,,,,,,3,9.3,10,10.7,0,0,0.7,0.44999999999999996,0.25,1.65,10,initial,36.05,335,361,386,0,0,9,9,9,0,0,,,,,,,1,0,1,0,0,46,46,7,,,,,,,,,,,,num_3,2.1207110000104876,num_3,0.5,0.7,0.25000000000000006,0.85,9.55138,32.47468,return,5.4526077000191435,,,,,,,,,,,,,,,,,717,24,female,up_down_width,2024-08-27_15h59.33.664,exp1,2023.1.0,59.91723033728238,
,,,,,,,,,,,,,,,,5,8.65,9.325,10,10.675,11.35,0.675,0.42500000000000004,0.25,2.95,10,match,36.05,312,336,361,385,409,9,9,9,9,9,,,,,,,1,0,1,0,0,47,47,31,,,,,,,,,,,,num_4,1.1416877000156092,num_4,0.25,1.0,0.25,0.7,9.55138,26.74385,return,2.2118266000179574,,,,,,,,,,,,,,,,,717,24,female,up_down_width,2024-08-27_15h59.33.664,exp1,2023.1.0,59.91723033728238,
,,,,,,,,,,,,,,,,4,9.1,9.7,10.3,10.9,0,0.5999999999999999,0.3499999999999999,0.25,2.05,10,match,36.05,328,350,371,393,0,9,9,9,9,0,,,,,,,1,0,1,0,0,48,48,14,,,,,,,,,,,,num_4,1.0677108000090811,num_4,0.3,0.9,0.2,0.6,7.6411,22.9233,return,6.175383600013447,,,,,,,,,,,,,,,,,717,24,female,up_down_width,2024-08-27_15h59.33.664,exp1,2023.1.0,59.91723033728238,
,,,,,,,,,,,,,,,,3,8.2,10,11.8,0,0,1.8,1.55,0.25,3.85,10,match,36.05,296,361,425,0,0,9,9,9,0,0,,,,,,,1,0,1,0,0,49,49,49,,,,,,,,,,,,num_3,0.9455886000068858,num_3,0.2,0.6,0.2,1.2,7.6411,45.8466,return,4.202919000017573,,,,,,,,,,,,,,,,,717,24,female,up_down_width,2024-08-27_15h59.33.664,exp1,2023.1.0,59.91723033728238,
,,,,,,,,,,,,,,,,5,8.35,9.175,10,10.825,11.65,0.8250000000000001,0.275,0.55,3.85,10,match,36.05,301,331,361,390,420,9,9,9,9,9,,,,,,,1,0,1,0,0,50,50,18,,,,,,,,,,,,num_4,1.4194928000069922,num_4,0.45,0.7,0.35000000000000003,0.8,13.37193,30.5644,return,6.397440100015956,,,,,,,,,,,,,,,,,717,24,female,up_down_width,2024-08-27_15h59.33.664,exp1,2023.1.0,59.91723033728238,
,,,,,,,,,,,,,,,,4,9.3,9.766666666666667,10.233333333333333,10.7,0,0.4666666666666667,0.06666666666666665,0.4,1.8,10,match,36.05,335,352,369,386,0,9,9,9,9,0,,,,,,,1,0,1,0,0,51,51,10,,,,,,,,,,,,num_3,1.3436584000010043,num_3,0.3,0.5,0.49999999999999994,0.7,19.10275,26.74385,return,11.032684500009054,,,,,,,,,,,,,,,,,717,24,female,up_down_width,2024-08-27_15h59.33.664,exp1,2023.1.0,59.91723033728238,
,,,,,,,,,,,,,,,,,,,,,,,,,,,,,,,,,,,,,,,,,,,,,1,0,1,0,,,,,,,,,,,,,,,,,,,,,,,,,,,,,1334.0838131999917,1334.0838131999917,1334.0838131999917,,,,,,,,,,,,717,24,female,up_down_width,2024-08-27_15h59.33.664,exp1,2023.1.0,59.91723033728238,
,,,,,,,,,,,,,,,,5,8.95,9.475,10,10.525,11.05,0.525,0.275,0.25,2.35,10,match,36.05,323,342,361,379,398,9,9,9,9,9,,,,,,,2,0,2,0,0,0,0,25,,,,,,,,,,,,num_4,1.834073600024567,num_4,0.55,1.0,0.30000000000000004,0.7,11.46165,26.74385,return,3.9164332000073045,,,,,,,,,,,,,,,,,717,24,female,up_down_width,2024-08-27_15h59.33.664,exp1,2023.1.0,59.91723033728238,
,,,,,,,,,,,,,,,,3,7.800000000000001,10,12.2,0,0,2.1999999999999997,1.7999999999999998,0.4,4.8,10,match,36.05,281,361,440,0,0,9,9,9,0,0,,,,,,,2,0,2,0,0,1,1,39,,,,,,,,,,,,num_3,1.129943700012518,num_3,0.55,1.3,0.35000000000000003,1.3,13.37193,49.66716,return,1.9595575000130339,,,,,,,,,,,,,,,,,717,24,female,up_down_width,2024-08-27_15h59.33.664,exp1,2023.1.0,59.91723033728238,
,,,,,,,,,,,,,,,,3,8.2,10,11.8,0,0,1.8,1.25,0.55,4.15,10,match,36.05,296,361,425,0,0,9,9,9,0,0,,,,,,,2,0,2,0,0,2,2,47,,,,,,,,,,,,num_3,1.0789411000150722,num_3,0.45,0.8,0.35000000000000003,1.2,13.37193,45.8466,return,5.414846000014222,,,,,,,,,,,,,,,,,717,24,female,up_down_width,2024-08-27_15h59.33.664,exp1,2023.1.0,59.91723033728238,
,,,,,,,,,,,,,,,,5,8.275,9.1375,10,10.8625,11.725,0.8625,0.6125,0.25,3.7,10,match,36.05,298,329,361,392,423,9,9,9,9,9,,,,,,,2,0,2,0,0,3,3,22,,,,,,,,,,,,num_4,1.1071674000122584,num_4,0.5,1.0,0.30000000000000004,0.9,11.46165,34.38495,return,5.761019900004612,,,,,,,,,,,,,,,,,717,24,female,up_down_width,2024-08-27_15h59.33.664,exp1,2023.1.0,59.91723033728238,
,,,,,,,,,,,,,,,,4,8.9,9.633333333333333,10.366666666666667,11.1,0,0.7333333333333334,0.4833333333333334,0.25,2.45,10,match,36.05,321,347,374,400,0,9,9,9,9,0,,,,,,,2,0,2,0,0,4,4,3,,,,,,,,,,,,num_4,3.287634500011336,num_4,0.35,0.8,0.25,0.7,9.55138,26.74385,return,3.964560700012953,,,,,,,,,,,,,,,,,717,24,female,up_down_width,2024-08-27_15h59.33.664,exp1,2023.1.0,59.91723033728238,
,,,,,,,,,,,,,,,,4,8.35,9.45,10.55,11.65,0,1.1,0.7000000000000001,0.4,3.7,10,initial,36.05,301,341,380,420,0,9,9,9,9,0,,,,,,,2,0,2,0,0,5,5,21,,,,,,,,,,,,num_4,2.0060732000129065,num_4,0.4,1.0,0.25000000000000006,0.6,9.55138,22.9233,return,2.9000232000107644,,,,,,,,,,,,,,,,,717,24,female,up_down_width,2024-08-27_15h59.33.664,exp1,2023.1.0,59.91723033728238,
,,,,,,,,,,,,,,,,4,9.1,9.7,10.3,10.9,0,0.5999999999999999,0.3499999999999999,0.25,2.05,10,match,36.05,328,350,371,393,0,9,9,9,9,0,,,,,,,2,0,2,0,0,6,6,14,,,,,,,,,,,,num_4,1.982449800008908,num_4,0.25,1.0,0.2,0.5,7.6411,19.10275,return,3.901079400005983,,,,,,,,,,,,,,,,,717,24,female,up_down_width,2024-08-27_15h59.33.664,exp1,2023.1.0,59.91723033728238,
,,,,,,,,,,,,,,,,4,9.1,9.7,10.3,10.9,0,0.6000000000000001,0.20000000000000004,0.4,2.2,10,match,36.05,328,350,371,393,0,9,9,9,9,0,,,,,,,2,0,2,0,0,7,7,16,,,,,,,,,,,,num_4,1.6908514000242576,num_4,0.35,1.0,0.3,0.5,11.46165,19.10275,return,3.853788100008387,,,,,,,,,,,,,,,,,717,24,female,up_down_width,2024-08-27_15h59.33.664,exp1,2023.1.0,59.91723033728238,
,,,,,,,,,,,,,,,,3,8.6,10,11.4,0,0,1.4,1.15,0.25,3.05,10,match,36.05,310,361,411,0,0,9,9,9,0,0,,,,,,,2,0,2,0,0,8,8,43,,,,,,,,,,,,num_3,1.823776600009296,num_3,0.4,0.7,0.25000000000000006,0.7,9.55138,26.74385,return,3.7601600000052713,,,,,,,,,,,,,,,,,717,24,female,up_down_width,2024-08-27_15h59.33.664,exp1,2023.1.0,59.91723033728238,
,,,,,,,,,,,,,,,,3,7.8,10,12.2,0,0,2.2,1.65,0.55,4.95,10,match,36.05,281,361,440,0,0,9,9,9,0,0,,,,,,,2,0,2,0,0,9,9,35,,,,,,,,,,,,num_3,1.6981080000114162,num_3,0.5,0.6,0.30000000000000004,1.45,11.46165,55.39798,return,8.281110800002352,,,,,,,,,,,,,,,,,717,24,female,up_down_width,2024-08-27_15h59.33.664,exp1,2023.1.0,59.91723033728238,
,,,,,,,,,,,,,,,,4,8.65,9.55,10.45,11.35,0,0.9,0.65,0.25,2.95,10,initial,36.05,312,344,377,409,0,9,9,9,9,0,,,,,,,2,0,2,0,0,10,10,30,,,,,,,,,,,,num_4,1.1182278000196675,num_4,0.25,0.3,0.15000000000000002,0.9,5.73083,34.38495,return,5.721986300006392,,,,,,,,,,,,,,,,,717,24,female,up_down_width,2024-08-27_15h59.33.664,exp1,2023.1.0,59.91723033728238,
,,,,,,,,,,,,,,,,3,9.3,10,10.7,0,0,0.7,0.1499999999999999,0.55,1.95,10,initial,36.05,335,361,386,0,0,9,9,9,0,0,,,,,,,2,0,2,0,0,11,11,6,,,,,,,,,,,,num_3,1.7050870000239229,num_3,0.3,0.9,0.2,0.6,7.6411,22.9233,return,3.983216700013145,,,,,,,,,,,,,,,,,717,24,female,up_down_width,2024-08-27_15h59.33.664,exp1,2023.1.0,59.91723033728238,
,,,,,,,,,,,,,,,,5,8.2,9.1,10,10.9,11.8,0.9,0.5,0.4,4,10,initial,36.05,296,328,361,393,425,9,9,9,9,9,,,,,,,2,0,2,0,0,12,12,50,,,,,,,,,,,,num_4,1.1326033000223106,num_4,0.4,0.5,0.25000000000000006,1.1,9.55138,42.02605,return,4.236674900006619,,,,,,,,,,,,,,,,,717,24,female,up_down_width,2024-08-27_15h59.33.664,exp1,2023.1.0,59.91723033728238,
,,,,,,,,,,,,,,,,3,9.3,10,10.7,0,0,0.7,0.44999999999999996,0.25,1.65,10,initial,36.05,335,361,386,0,0,9,9,9,0,0,,,,,,,2,0,2,0,0,13,13,7,,,,,,,,,,,,num_3,1.0311997000098927,num_3,0.35,0.4,0.25,0.65,9.55138,24.83358,return,3.1273140000121202,,,,,,,,,,,,,,,,,717,24,female,up_down_width,2024-08-27_15h59.33.664,exp1,2023.1.0,59.91723033728238,
,,,,,,,,,,,,,,,,5,8.6,9.3,10,10.7,11.4,0.7,0.44999999999999996,0.25,3.05,10,initial,36.05,310,335,361,386,411,9,9,9,9,9,,,,,,,2,0,2,0,0,14,14,42,,,,,,,,,,,,num_4,1.015948500004015,num_4,0.3,1.0,0.2,0.6,7.6411,22.9233,return,4.061159400022007,,,,,,,,,,,,,,,,,717,24,female,up_down_width,2024-08-27_15h59.33.664,exp1,2023.1.0,59.91723033728238,
,,,,,,,,,,,,,,,,3,7.8,10,12.2,0,0,2.2,1.9500000000000002,0.25,4.65,10,match,36.05,281,361,440,0,0,9,9,9,0,0,,,,,,,2,0,2,0,0,15,15,37,,,,,,,,,,,,num_3,0.9824933000054443,num_3,0.35,0.8,0.15000000000000002,1.5,5.73083,57.30826,return,7.853222400022787,,,,,,,,,,,,,,,,,717,24,female,up_down_width,2024-08-27_15h59.33.664,exp1,2023.1.0,59.91723033728238,
,,,,,,,,,,,,,,,,5,7.8,8.9,10,11.1,12.2,1.1,0.55,0.55,4.95,10,initial,36.05,281,321,361,400,440,9,9,9,9,9,,,,,,,2,0,2,0,0,16,16,34,,,,,,,,,,,,num_4,1.277728000015486,num_4,0.4,0.5,0.25000000000000006,1.3,9.55138,49.66716,return,4.421623400005046,,,,,,,,,,,,,,,,,717,24,female,up_down_width,2024-08-27_15h59.33.664,exp1,2023.1.0,59.91723033728238,
,,,,,,,,,,,,,,,,5,8.65,9.325,10,10.675,11.35,0.675,0.125,0.55,3.25,10,match,36.05,312,336,361,385,409,9,9,9,9,9,,,,,,,2,0,2,0,0,17,17,29,,,,,,,,,,,,num_4,1.2097044000256574,num_4,0.5,1.2,0.35000000000000003,0.6,13.37193,22.9233,return,5.384468100004597,,,,,,,,,,,,,,,,,717,24,female,up_down_width,2024-08-27_15h59.33.664,exp1,2023.1.0,59.91723033728238,
,,,,,,,,,,,,,,,,5,8.65,9.325,10,10.675,11.35,0.675,0.42500000000000004,0.25,2.95,10,match,36.05,312,336,361,385,409,9,9,9,9,9,,,,,,,2,0,2,0,0,18,18,31,,,,,,,,,,,,num_4,0.9463956000108737,num_4,0.55,0.7,0.35000000000000003,1.0,13.37193,38.2055,return,2.952530900016427,,,,,,,,,,,,,,,,,717,24,female,up_down_width,2024-08-27_15h59.33.664,exp1,2023.1.0,59.91723033728238,
,,,,,,,,,,,,,,,,3,8.525,10,11.475,0,0,1.475,1.225,0.25,3.2,10,match,36.05,307,361,414,0,0,9,9,9,0,0,,,,,,,2,0,2,0,0,19,19,45,,,,,,,,,,,,num_3,1.0537081000220496,num_3,0.3,0.5,0.2,1.05,7.6411,40.11578,return,4.2114229000144405,,,,,,,,,,,,,,,,,717,24,female,up_down_width,2024-08-27_15h59.33.664,exp1,2023.1.0,59.91723033728238,
,,,,,,,,,,,,,,,,5,8.6,9.3,10,10.7,11.4,0.7,0.1499999999999999,0.55,3.3499999999999996,10,initial,36.05,310,335,361,386,411,9,9,9,9,9,,,,,,,2,0,2,0,0,20,20,40,,,,,,,,,,,,num_4,1.9074563000031048,num_4,0.35,1.0,0.3,0.6,11.46165,22.9233,return,2.9609096000058344,,,,,,,,,,,,,,,,,717,24,female,up_down_width,2024-08-27_15h59.33.664,exp1,2023.1.0,59.91723033728238,
,,,,,,,,,,,,,,,,3,8.6,10,11.4,0,0,1.4,0.85,0.55,3.35,10,match,36.05,310,361,411,0,0,9,9,9,0,0,,,,,,,2,0,2,0,0,21,21,41,,,,,,,,,,,,num_2,1.2643604000186315,num_2,0.45,1.6,0.4,1.1,15.2822,42.02605,return,4.312404800002696,,,,,,,,,,,,,,,,,717,24,female,up_down_width,2024-08-27_15h59.33.664,exp1,2023.1.0,59.91723033728238,
,,,,,,,,,,,,,,,,4,8.35,9.45,10.55,11.65,0,1.1,0.55,0.55,3.8500000000000005,10,initial,36.05,301,341,380,420,0,9,9,9,9,0,,,,,,,2,0,2,0,0,22,22,17,,,,,,,,,,,,num_3,1.1278299000259722,num_3,0.2,0.5,0.3,0.8,11.46165,30.5644,return,4.803503300019656,,,,,,,,,,,,,,,,,717,24,female,up_down_width,2024-08-27_15h59.33.664,exp1,2023.1.0,59.91723033728238,
,,,,,,,,,,,,,,,,3,9.1,10,10.9,0,0,0.9,0.5,0.4,2.2,10,initial,36.05,328,361,393,0,0,9,9,9,0,0,,,,,,,2,0,2,0,0,23,23,15,,,,,,,,,,,,num_2,1.266005800003768,num_2,0.35,1.4,0.35,1.2,13.37193,45.8466,return,2.058959700007108,,,,,,,,,,,,,,,,,717,24,female,up_down_width,2024-08-27_15h59.33.664,exp1,2023.1.0,59.91723033728238,
,,,,,,,,,,,,,,,,3,8.9,10,11.1,0,0,1.1,0.7000000000000001,0.4,2.6000000000000005,10,initial,36.05,321,361,400,0,0,9,9,9,0,0,,,,,,,2,0,2,0,0,24,24,4,,,,,,,,,,,,num_2,1.214013300021179,num_2,0.45,1.0,0.45,1.2,17.19248,45.8466,return,1.624690600016038,,,,,,,,,,,,,,,,,717,24,female,up_down_width,2024-08-27_15h59.33.664,exp1,2023.1.0,59.91723033728238,
,,,,,,,,,,,,,,,,5,8.2,9.1,10,10.9,11.8,0.9,0.35,0.55,4.15,10,initial,36.05,296,328,361,393,425,9,9,9,9,9,,,,,,,2,0,2,0,0,25,25,46,,,,,,,,,,,,num_4,1.6847778000083053,num_4,0.55,1.0,0.4,0.9,15.2822,34.38495,return,2.4754242000053637,,,,,,,,,,,,,,,,,717,24,female,up_down_width,2024-08-27_15h59.33.664,exp1,2023.1.0,59.91723033728238,
,,,,,,,,,,,,,,,,4,8.95,9.65,10.35,11.05,0,0.7,0.29999999999999993,0.4,2.5,10,initial,36.05,323,348,373,398,0,9,9,9,9,0,,,,,,,2,0,2,0,0,26,26,26,,,,,,,,,,,,num_3,1.1828659000166226,num_3,0.4,1,0.35000000000000003,0.9,13.37193,34.38495,return,2.616180400014855,,,,,,,,,,,,,,,,,717,24,female,up_down_width,2024-08-27_15h59.33.664,exp1,2023.1.0,59.91723033728238,
,,,,,,,,,,,,,,,,5,8.35,9.175,10,10.825,11.65,0.8250000000000001,0.275,0.55,3.85,10,match,36.05,301,331,361,390,420,9,9,9,9,9,,,,,,,2,0,2,0,0,27,27,18,,,,,,,,,,,,num_4,1.6623523000162095,num_4,0.3,1.2,0.39999999999999997,0.9,15.2822,34.38495,return,13.043201700013014,,,,,,,,,,,,,,,,,717,24,female,up_down_width,2024-08-27_15h59.33.664,exp1,2023.1.0,59.91723033728238,
,,,,,,,,,,,,,,,,5,8.35,9.175,10,10.825,11.65,0.825,0.575,0.25,3.55,10,match,36.05,301,331,361,390,420,9,9,9,9,9,,,,,,,2,0,2,0,0,28,28,20,,,,,,,,,,,,num_4,2.327700100009679,num_4,0.3,0.5,0.25,0.9,9.55138,34.38495,return,4.440036900021369,,,,,,,,,,,,,,,,,717,24,female,up_down_width,2024-08-27_15h59.33.664,exp1,2023.1.0,59.91723033728238,
,,,,,,,,,,,,,,,,4,9.3,9.766666666666667,10.233333333333333,10.7,0,0.4666666666666667,0.06666666666666665,0.4,1.8,10,match,36.05,335,352,369,386,0,9,9,9,9,0,,,,,,,2,0,2,0,0,29,29,10,,,,,,,,,,,,num_4,1.5798366000090027,num_4,0.25,1.0,0.3,0.4,11.46165,15.2822,return,6.9329344000143465,,,,,,,,,,,,,,,,,717,24,female,up_down_width,2024-08-27_15h59.33.664,exp1,2023.1.0,59.91723033728238,
,,,,,,,,,,,,,,,,5,7.8,8.9,10,11.1,12.2,1.1,0.8500000000000001,0.25,4.65,10,initial,36.05,281,321,361,400,440,9,9,9,9,9,,,,,,,2,0,2,0,0,30,30,36,,,,,,,,,,,,num_5,1.3309104000072693,num_5,0.45,0.8,0.25000000000000006,0.9,9.55138,34.38495,return,4.551061700010905,,,,,,,,,,,,,,,,,717,24,female,up_down_width,2024-08-27_15h59.33.664,exp1,2023.1.0,59.91723033728238,
,,,,,,,,,,,,,,,,5,8.2,9.1,10,10.9,11.8,0.9,0.65,0.25,3.85,10,initial,36.05,296,328,361,393,425,9,9,9,9,9,,,,,,,2,0,2,0,0,31,31,48,,,,,,,,,,,,num_5,2.0122755000193138,num_5,0.5,1.1,0.25000000000000006,0.95,9.55138,36.29523,return,3.5643541000172263,,,,,,,,,,,,,,,,,717,24,female,up_down_width,2024-08-27_15h59.33.664,exp1,2023.1.0,59.91723033728238,
,,,,,,,,,,,,,,,,4,8.65,9.55,10.45,11.35,0,0.9,0.35,0.55,3.25,10,initial,36.05,312,344,377,409,0,9,9,9,9,0,,,,,,,2,0,2,0,0,32,32,28,,,,,,,,,,,,num_3,1.5936023000103887,num_3,0.35,0.6,0.3,0.9,11.46165,34.38495,return,3.9578288000193425,,,,,,,,,,,,,,,,,717,24,female,up_down_width,2024-08-27_15h59.33.664,exp1,2023.1.0,59.91723033728238,
,,,,,,,,,,,,,,,,3,8.2,10,11.8,0,0,1.8,1.55,0.25,3.85,10,match,36.05,296,361,425,0,0,9,9,9,0,0,,,,,,,2,0,2,0,0,33,33,49,,,,,,,,,,,,num_3,1.165517200017348,num_3,0.25,1,0.15000000000000002,1.15,5.73083,43.93633,return,3.2144568000221625,,,,,,,,,,,,,,,,,717,24,female,up_down_width,2024-08-27_15h59.33.664,exp1,2023.1.0,59.91723033728238,
,,,,,,,,,,,,,,,,4,9.1,9.7,10.3,10.9,0,0.6,0.04999999999999997,0.55,2.35,10,match,36.05,328,350,371,393,0,9,9,9,9,0,,,,,,,2,0,2,0,0,34,34,12,,,,,,,,,,,,num_3,1.3344845000101486,num_3,0.45,0.8,0.35000000000000003,0.55,13.37193,21.01303,return,7.356736300018383,,,,,,,,,,,,,,,,,717,24,female,up_down_width,2024-08-27_15h59.33.664,exp1,2023.1.0,59.91723033728238,
,,,,,,,,,,,,,,,,4,9.3,9.766666666666667,10.233333333333333,10.7,0,0.4666666666666667,0.21666666666666665,0.25,1.65,10,match,36.05,335,352,369,386,0,9,9,9,9,0,,,,,,,2,0,2,0,0,35,35,8,,,,,,,,,,,,num_3,1.1839958000200568,num_3,0.2,1.1,0.2,0.55,7.6411,21.01303,return,5.4037383000104455,,,,,,,,,,,,,,,,,717,24,female,up_down_width,2024-08-27_15h59.33.664,exp1,2023.1.0,59.91723033728238,
,,,,,,,,,,,,,,,,5,8.95,9.475,10,10.525,11.05,0.525,0.125,0.4,2.5,10,match,36.05,323,342,361,379,398,9,9,9,9,9,,,,,,,2,0,2,0,0,36,36,27,,,,,,,,,,,,num_4,1.2297037000098499,num_4,0.55,1.2,0.4,0.7,15.2822,26.74385,return,3.8649360000126762,,,,,,,,,,,,,,,,,717,24,female,up_down_width,2024-08-27_15h59.33.664,exp1,2023.1.0,59.91723033728238,
,,,,,,,,,,,,,,,,5,8.6,9.3,10,10.7,11.4,0.7,0.29999999999999993,0.4,3.1999999999999997,10,initial,36.05,310,335,361,386,411,9,9,9,9,9,,,,,,,2,0,2,0,0,37,37,44,,,,,,,,,,,,num_4,1.170179900014773,num_4,0.55,0.6,0.4,1.1,15.2822,42.02605,return,3.9504791000072146,,,,,,,,,,,,,,,,,717,24,female,up_down_width,2024-08-27_15h59.33.664,exp1,2023.1.0,59.91723033728238,
,,,,,,,,,,,,,,,,5,8.65,9.325,10,10.675,11.35,0.675,0.275,0.4,3.1,10,match,36.05,312,336,361,385,409,9,9,9,9,9,,,,,,,2,0,2,0,0,38,38,33,,,,,,,,,,,,num_5,1.254859700013185,num_5,0.35,0.4,0.3,0.8,11.46165,30.5644,return,3.8756829000194557,,,,,,,,,,,,,,,,,717,24,female,up_down_width,2024-08-27_15h59.33.664,exp1,2023.1.0,59.91723033728238,
,,,,,,,,,,,,,,,,3,8.9,10,11.1,0,0,1.1,0.8500000000000001,0.25,2.45,10,initial,36.05,321,361,400,0,0,9,9,9,0,0,,,,,,,2,0,2,0,0,39,39,2,,,,,,,,,,,,num_3,0.9887862000032328,num_3,0.25,1.1,0.2,0.85,7.6411,32.47468,return,2.4635164000210352,,,,,,,,,,,,,,,,,717,24,female,up_down_width,2024-08-27_15h59.33.664,exp1,2023.1.0,59.91723033728238,
,,,,,,,,,,,,,,,,4,8.65,9.55,10.45,11.35,0,0.9,0.5,0.4,3.1,10,initial,36.05,312,344,377,409,0,9,9,9,9,0,,,,,,,2,0,2,0,0,40,40,32,,,,,,,,,,,,num_3,1.0106358000048203,num_3,0.5,0.8,0.30000000000000004,0.95,11.46165,36.29523,return,4.9526813000265975,,,,,,,,,,,,,,,,,717,24,female,up_down_width,2024-08-27_15h59.33.664,exp1,2023.1.0,59.91723033728238,
,,,,,,,,,,,,,,,,4,8.95,9.65,10.35,11.05,0,0.7,0.44999999999999996,0.25,2.3499999999999996,10,initial,36.05,323,348,373,398,0,9,9,9,9,0,,,,,,,2,0,2,0,0,41,41,24,,,,,,,,,,,,num_3,1.188961100007873,num_3,0.2,0.9,0.15000000000000002,1.1,5.73083,42.02605,return,4.180042100022547,,,,,,,,,,,,,,,,,717,24,female,up_down_width,2024-08-27_15h59.33.664,exp1,2023.1.0,59.91723033728238,
,,,,,,,,,,,,,,,,3,8.2,10,11.8,0,0,1.7999999999999998,1.4,0.4,4,10,match,36.05,296,361,425,0,0,9,9,9,0,0,,,,,,,2,0,2,0,0,42,42,51,,,,,,,,,,,,num_3,1.0698707000119612,num_3,0.4,1.1,0.25000000000000006,1.2,9.55138,45.8466,return,5.113898500014329,,,,,,,,,,,,,,,,,717,24,female,up_down_width,2024-08-27_15h59.33.664,exp1,2023.1.0,59.91723033728238,
,,,,,,,,,,,,,,,,4,8.9,9.633333333333333,10.366666666666667,11.1,0,0.7333333333333333,0.18333333333333326,0.55,2.75,10,match,36.05,321,347,374,400,0,9,9,9,9,0,,,,,,,2,0,2,0,0,43,43,1,,,,,,,,,,,,num_4,1.5012060000008205,num_4,0.35,0.9,0.25,0.6,9.55138,22.9233,return,3.325900600015302,,,,,,,,,,,,,,,,,717,24,female,up_down_width,2024-08-27_15h59.33.664,exp1,2023.1.0,59.91723033728238,
,,,,,,,,,,,,,,,,4,8.95,9.65,10.35,11.05,0,0.7,0.1499999999999999,0.55,2.65,10,initial,36.05,323,348,373,398,0,9,9,9,9,0,,,,,,,2,0,2,0,0,44,44,23,,,,,,,,,,,,num_4,1.3425350000179606,num_4,0.35,0.7,0.35,0.7,13.37193,26.74385,return,4.798336400010157,,,,,,,,,,,,,,,,,717,24,female,up_down_width,2024-08-27_15h59.33.664,exp1,2023.1.0,59.91723033728238,
,,,,,,,,,,,,,,,,3,9.1,10,10.9,0,0,0.9,0.35,0.55,2.35,10,initial,36.05,328,361,393,0,0,9,9,9,0,0,,,,,,,2,0,2,0,0,45,45,11,,,,,,,,,,,,num_2,1.041101200011326,num_2,0.25,0.6,0.39999999999999997,0.8,15.2822,30.5644,return,4.485595200021635,,,,,,,,,,,,,,,,,717,24,female,up_down_width,2024-08-27_15h59.33.664,exp1,2023.1.0,59.91723033728238,
,,,,,,,,,,,,,,,,3,9.3,10,10.7,0,0,0.7,0.29999999999999993,0.4,1.8,10,initial,36.05,335,361,386,0,0,9,9,9,0,0,,,,,,,2,0,2,0,0,46,46,9,,,,,,,,,,,,num_2,1.0913922000181628,num_2,0.45,1.6,0.45,0.9,17.19248,34.38495,return,4.995977200000198,,,,,,,,,,,,,,,,,717,24,female,up_down_width,2024-08-27_15h59.33.664,exp1,2023.1.0,59.91723033728238,
,,,,,,,,,,,,,,,,5,7.8,8.9,10,11.1,12.2,1.1,0.7000000000000001,0.4,4.800000000000001,10,initial,36.05,281,321,361,400,440,9,9,9,9,9,,,,,,,2,0,2,0,0,47,47,38,,,,,,,,,,,,num_4,1.2243564000091283,num_4,0.35,1.1,0.25,0.7,9.55138,26.74385,return,2.982838500000071,,,,,,,,,,,,,,,,,717,24,female,up_down_width,2024-08-27_15h59.33.664,exp1,2023.1.0,59.91723033728238,
,,,,,,,,,,,,,,,,4,8.825,9.608333333333333,10.391666666666667,11.175,0,0.7833333333333333,0.5333333333333333,0.25,2.6,10,match,36.05,318,346,375,403,0,9,9,9,9,0,,,,,,,2,0,2,0,0,48,48,5,,,,,,,,,,,,num_3,1.072337100020377,num_3,0.35,1.1,0.3,0.8,11.46165,30.5644,return,2.720031000004383,,,,,,,,,,,,,,,,,717,24,female,up_down_width,2024-08-27_15h59.33.664,exp1,2023.1.0,59.91723033728238,
,,,,,,,,,,,,,,,,4,8.35,9.45,10.55,11.65,0,1.1,0.8500000000000001,0.25,3.5500000000000003,10,initial,36.05,301,341,380,420,0,9,9,9,9,0,,,,,,,2,0,2,0,0,49,49,19,,,,,,,,,,,,num_3,1.246317100012675,num_3,0.2,1.3,0.2,1.2,7.6411,45.8466,return,1.7844449000112945,,,,,,,,,,,,,,,,,717,24,female,up_down_width,2024-08-27_15h59.33.664,exp1,2023.1.0,59.91723033728238,
,,,,,,,,,,,,,,,,3,9.1,10,10.9,0,0,0.9,0.65,0.25,2.05,10,initial,36.05,328,361,393,0,0,9,9,9,0,0,,,,,,,2,0,2,0,0,50,50,13,,,,,,,,,,,,num_2,1.0184366000175942,num_2,0.5,1.0,0.25000000000000006,1.2,9.55138,45.8466,return,2.686278700013645,,,,,,,,,,,,,,,,,717,24,female,up_down_width,2024-08-27_15h59.33.664,exp1,2023.1.0,59.91723033728238,
,,,,,,,,,,,,,,,,3,8.9,10,11.1,0,0,1.1,0.55,0.55,2.75,10,initial,36.05,321,361,400,0,0,9,9,9,0,0,,,,,,,2,0,2,0,0,51,51,0,,,,,,,,,,,,num_2,0.9784173000080045,num_2,0.2,0.8,0.44999999999999996,1.3,17.19248,49.66716,return,5.045653900000616,,,,,,,,,,,,,,,,,717,24,female,up_down_width,2024-08-27_15h59.33.664,exp1,2023.1.0,59.91723033728238,
,,,,,,,,,,,,,,,,,,,,,,,,,,,,,,,,,,,,,,,,,,,,,2,0,2,0,,,,,,,,,,,,,,,,,,,,,,,,,,,,,1726.8671239999967,1726.8671239999967,1726.8671239999967,,,,,,,,,,,,717,24,female,up_down_width,2024-08-27_15h59.33.664,exp1,2023.1.0,59.91723033728238,
,,,,,,,,,,,,,,,,4,8.65,9.55,10.45,11.35,0,0.9,0.35,0.55,3.25,10,initial,36.05,312,344,377,409,0,9,9,9,9,0,,,,,,,3,0,3,0,0,0,0,28,,,,,,,,,,,,num_3,1.3134761000255821,num_3,0.3,0.7,0.25,0.8,9.55138,30.5644,return,3.51521270001831,,,,,,,,,,,,,,,,,717,24,female,up_down_width,2024-08-27_15h59.33.664,exp1,2023.1.0,59.91723033728238,
,,,,,,,,,,,,,,,,5,8.95,9.475,10,10.525,11.05,0.525,0.125,0.4,2.5,10,match,36.05,323,342,361,379,398,9,9,9,9,9,,,,,,,3,0,3,0,0,1,1,27,,,,,,,,,,,,num_4,1.4050134000135586,num_4,0.5,1.1,0.45,0.8,17.19248,30.5644,return,3.039664200026891,,,,,,,,,,,,,,,,,717,24,female,up_down_width,2024-08-27_15h59.33.664,exp1,2023.1.0,59.91723033728238,
,,,,,,,,,,,,,,,,3,8.9,10,11.1,0,0,1.1,0.7000000000000001,0.4,2.6000000000000005,10,initial,36.05,321,361,400,0,0,9,9,9,0,0,,,,,,,3,0,3,0,0,2,2,4,,,,,,,,,,,,num_3,1.419563500006916,num_3,0.35,1.3,0.35,1.2,13.37193,45.8466,return,1.5540433000132907,,,,,,,,,,,,,,,,,717,24,female,up_down_width,2024-08-27_15h59.33.664,exp1,2023.1.0,59.91723033728238,
,,,,,,,,,,,,,,,,4,8.35,9.45,10.55,11.65,0,1.1,0.7000000000000001,0.4,3.7,10,initial,36.05,301,341,380,420,0,9,9,9,9,0,,,,,,,3,0,3,0,0,3,3,21,,,,,,,,,,,,num_4,2.60297220000939,num_4,0.25,0.7,0.2,1.0,7.6411,38.2055,return,5.535754900003667,,,,,,,,,,,,,,,,,717,24,female,up_down_width,2024-08-27_15h59.33.664,exp1,2023.1.0,59.91723033728238,
,,,,,,,,,,,,,,,,3,8.525,10,11.475,0,0,1.475,1.225,0.25,3.2,10,match,36.05,307,361,414,0,0,9,9,9,0,0,,,,,,,3,0,3,0,0,4,4,45,,,,,,,,,,,,num_3,0.9933556000178214,num_3,0.35,1,0.2,1.25,7.6411,47.75688,return,2.680529600009322,,,,,,,,,,,,,,,,,717,24,female,up_down_width,2024-08-27_15h59.33.664,exp1,2023.1.0,59.91723033728238,
,,,,,,,,,,,,,,,,3,7.800000000000001,10,12.2,0,0,2.1999999999999997,1.7999999999999998,0.4,4.8,10,match,36.05,281,361,440,0,0,9,9,9,0,0,,,,,,,3,0,3,0,0,5,5,39,,,,,,,,,,,,num_3,0.9803144000034081,num_3,0.45,1.3,0.25000000000000006,1.55,9.55138,59.21853,return,2.9682931000133976,,,,,,,,,,,,,,,,,717,24,female,up_down_width,2024-08-27_15h59.33.664,exp1,2023.1.0,59.91723033728238,
,,,,,,,,,,,,,,,,5,7.8,8.9,10,11.1,12.2,1.1,0.7000000000000001,0.4,4.800000000000001,10,initial,36.05,281,321,361,400,440,9,9,9,9,9,,,,,,,3,0,3,0,0,6,6,38,,,,,,,,,,,,num_4,1.0996260000101756,num_4,0.45,0.6,0.25000000000000006,1.1,9.55138,42.02605,return,2.991188300016802,,,,,,,,,,,,,,,,,717,24,female,up_down_width,2024-08-27_15h59.33.664,exp1,2023.1.0,59.91723033728238,
,,,,,,,,,,,,,,,,3,9.3,10,10.7,0,0,0.7,0.1499999999999999,0.55,1.95,10,initial,36.05,335,361,386,0,0,9,9,9,0,0,,,,,,,3,0,3,0,0,7,7,6,,,,,,,,,,,,num_3,1.0673557000118308,num_3,0.35,1.2,0.3,0.7,11.46165,26.74385,return,5.020904300021357,,,,,,,,,,,,,,,,,717,24,female,up_down_width,2024-08-27_15h59.33.664,exp1,2023.1.0,59.91723033728238,
,,,,,,,,,,,,,,,,3,9.3,10,10.7,0,0,0.7,0.44999999999999996,0.25,1.65,10,initial,36.05,335,361,386,0,0,9,9,9,0,0,,,,,,,3,0,3,0,0,8,8,7,,,,,,,,,,,,num_3,1.032650700013619,num_3,0.55,0.8,0.30000000000000004,0.8,11.46165,30.5644,return,2.265810400014743,,,,,,,,,,,,,,,,,717,24,female,up_down_width,2024-08-27_15h59.33.664,exp1,2023.1.0,59.91723033728238,
,,,,,,,,,,,,,,,,5,8.65,9.325,10,10.675,11.35,0.675,0.125,0.55,3.25,10,match,36.05,312,336,361,385,409,9,9,9,9,9,,,,,,,3,0,3,0,0,9,9,29,,,,,,,,,,,,num_4,1.0992200000182493,num_4,0.45,0.8,0.4,0.6,15.2822,22.9233,return,3.0823217000142904,,,,,,,,,,,,,,,,,717,24,female,up_down_width,2024-08-27_15h59.33.664,exp1,2023.1.0,59.91723033728238,
,,,,,,,,,,,,,,,,4,8.9,9.633333333333333,10.366666666666667,11.1,0,0.7333333333333334,0.4833333333333334,0.25,2.45,10,match,36.05,321,347,374,400,0,9,9,9,9,0,,,,,,,3,0,3,0,0,10,10,3,,,,,,,,,,,,num_3,1.1997133000259055,num_3,0.3,1,0.3,0.65,11.46165,24.83358,return,2.863653800013708,,,,,,,,,,,,,,,,,717,24,female,up_down_width,2024-08-27_15h59.33.664,exp1,2023.1.0,59.91723033728238,
,,,,,,,,,,,,,,,,5,8.6,9.3,10,10.7,11.4,0.7,0.29999999999999993,0.4,3.1999999999999997,10,initial,36.05,310,335,361,386,411,9,9,9,9,9,,,,,,,3,0,3,0,0,11,11,44,,,,,,,,,,,,num_5,1.5629397000157041,num_5,0.25,0.9,0.25,0.55,9.55138,21.01303,return,3.5436220000119647,,,,,,,,,,,,,,,,,717,24,female,up_down_width,2024-08-27_15h59.33.664,exp1,2023.1.0,59.91723033728238,
,,,,,,,,,,,,,,,,5,8.6,9.3,10,10.7,11.4,0.7,0.44999999999999996,0.25,3.05,10,initial,36.05,310,335,361,386,411,9,9,9,9,9,,,,,,,3,0,3,0,0,12,12,42,,,,,,,,,,,,num_5,1.0410372000042116,num_5,0.2,1.2,0.35,0.85,13.37193,32.47468,return,6.5492113000073005,,,,,,,,,,,,,,,,,717,24,female,up_down_width,2024-08-27_15h59.33.664,exp1,2023.1.0,59.91723033728238,
,,,,,,,,,,,,,,,,4,8.95,9.65,10.35,11.05,0,0.7,0.1499999999999999,0.55,2.65,10,initial,36.05,323,348,373,398,0,9,9,9,9,0,,,,,,,3,0,3,0,0,13,13,23,,,,,,,,,,,,num_4,1.0850982000119984,num_4,0.3,0.7,0.35,0.6,13.37193,22.9233,return,6.1738455000158865,,,,,,,,,,,,,,,,,717,24,female,up_down_width,2024-08-27_15h59.33.664,exp1,2023.1.0,59.91723033728238,
,,,,,,,,,,,,,,,,5,7.8,8.9,10,11.1,12.2,1.1,0.8500000000000001,0.25,4.65,10,initial,36.05,281,321,361,400,440,9,9,9,9,9,,,,,,,3,0,3,0,0,14,14,36,,,,,,,,,,,,num_5,1.417992900009267,num_5,0.3,1.3,0.35,0.75,13.37193,28.65413,return,9.600972900007037,,,,,,,,,,,,,,,,,717,24,female,up_down_width,2024-08-27_15h59.33.664,exp1,2023.1.0,59.91723033728238,
,,,,,,,,,,,,,,,,4,8.35,9.45,10.55,11.65,0,1.1,0.55,0.55,3.8500000000000005,10,initial,36.05,301,341,380,420,0,9,9,9,9,0,,,,,,,3,0,3,0,0,15,15,17,,,,,,,,,,,,num_4,2.354922400016221,num_4,0.3,0.4,0.3,0.9,11.46165,34.38495,return,7.154429400005029,,,,,,,,,,,,,,,,,717,24,female,up_down_width,2024-08-27_15h59.33.664,exp1,2023.1.0,59.91723033728238,
,,,,,,,,,,,,,,,,5,8.6,9.3,10,10.7,11.4,0.7,0.1499999999999999,0.55,3.3499999999999996,10,initial,36.05,310,335,361,386,411,9,9,9,9,9,,,,,,,3,0,3,0,0,16,16,40,,,,,,,,,,,,num_4,2.0750687000108883,num_4,0.5,0.7,0.4,0.9,15.2822,34.38495,return,6.448325300021679,,,,,,,,,,,,,,,,,717,24,female,up_down_width,2024-08-27_15h59.33.664,exp1,2023.1.0,59.91723033728238,
,,,,,,,,,,,,,,,,3,8.6,10,11.4,0,0,1.4,0.85,0.55,3.35,10,match,36.05,310,361,411,0,0,9,9,9,0,0,,,,,,,3,0,3,0,0,17,17,41,,,,,,,,,,,,num_2,1.0797257000231184,num_2,0.25,0.8,0.39999999999999997,1.5,15.2822,57.30826,return,3.305179800008773,,,,,,,,,,,,,,,,,717,24,female,up_down_width,2024-08-27_15h59.33.664,exp1,2023.1.0,59.91723033728238,
,,,,,,,,,,,,,,,,4,8.95,9.65,10.35,11.05,0,0.7,0.44999999999999996,0.25,2.3499999999999996,10,initial,36.05,323,348,373,398,0,9,9,9,9,0,,,,,,,3,0,3,0,0,18,18,24,,,,,,,,,,,,num_2,0.9843555000115884,num_2,0.5,1.6,0.30000000000000004,1.4,11.46165,53.48771,return,2.943084300015471,,,,,,,,,,,,,,,,,717,24,female,up_down_width,2024-08-27_15h59.33.664,exp1,2023.1.0,59.91723033728238,
,,,,,,,,,,,,,,,,3,8.2,10,11.8,0,0,1.8,1.25,0.55,4.15,10,match,36.05,296,361,425,0,0,9,9,9,0,0,,,,,,,3,0,3,0,0,19,19,47,,,,,,,,,,,,num_2,0.859072000021115,num_2,0.45,1.4,0.35000000000000003,2.1,13.37193,80.23156,return,3.4476918000145815,,,,,,,,,,,,,,,,,717,24,female,up_down_width,2024-08-27_15h59.33.664,exp1,2023.1.0,59.91723033728238,
,,,,,,,,,,,,,,,,4,8.65,9.55,10.45,11.35,0,0.9,0.5,0.4,3.1,10,initial,36.05,312,344,377,409,0,9,9,9,9,0,,,,,,,3,0,3,0,0,20,20,32,,,,,,,,,,,,num_3,0.837657100011711,num_3,0.35,0.6,0.3,1.2,11.46165,45.8466,return,4.683108200013521,,,,,,,,,,,,,,,,,717,24,female,up_down_width,2024-08-27_15h59.33.664,exp1,2023.1.0,59.91723033728238,
,,,,,,,,,,,,,,,,5,8.2,9.1,10,10.9,11.8,0.9,0.5,0.4,4,10,initial,36.05,296,328,361,393,425,9,9,9,9,9,,,,,,,3,0,3,0,0,21,21,50,,,,,,,,,,,,num_4,1.080438100019819,num_4,0.2,0.6,0.39999999999999997,0.8,15.2822,30.5644,return,3.96447520001675,,,,,,,,,,,,,,,,,717,24,female,up_down_width,2024-08-27_15h59.33.664,exp1,2023.1.0,59.91723033728238,
,,,,,,,,,,,,,,,,4,8.825,9.608333333333333,10.391666666666667,11.175,0,0.7833333333333333,0.5333333333333333,0.25,2.6,10,match,36.05,318,346,375,403,0,9,9,9,9,0,,,,,,,3,0,3,0,0,22,22,5,,,,,,,,,,,,num_3,1.1910704000183614,num_3,0.4,1,0.25000000000000006,0.95,9.55138,36.29523,return,3.455700800011982,,,,,,,,,,,,,,,,,717,24,female,up_down_width,2024-08-27_15h59.33.664,exp1,2023.1.0,59.91723033728238,
,,,,,,,,,,,,,,,,5,8.65,9.325,10,10.675,11.35,0.675,0.42500000000000004,0.25,2.95,10,match,36.05,312,336,361,385,409,9,9,9,9,9,,,,,,,3,0,3,0,0,23,23,31,,,,,,,,,,,,num_4,1.0517432000197005,num_4,0.2,0.9,0.25,0.7,9.55138,26.74385,return,6.589314100012416,,,,,,,,,,,,,,,,,717,24,female,up_down_width,2024-08-27_15h59.33.664,exp1,2023.1.0,59.91723033728238,
,,,,,,,,,,,,,,,,3,9.1,10,10.9,0,0,0.9,0.65,0.25,2.05,10,initial,36.05,328,361,393,0,0,9,9,9,0,0,,,,,,,3,0,3,0,0,24,24,13,,,,,,,,,,,,num_2,1.3248266000155127,num_2,0.5,1.2,0.30000000000000004,1.2,11.46165,45.8466,return,3.379609400013578,,,,,,,,,,,,,,,,,717,24,female,up_down_width,2024-08-27_15h59.33.664,exp1,2023.1.0,59.91723033728238,
,,,,,,,,,,,,,,,,5,8.275,9.1375,10,10.8625,11.725,0.8625,0.6125,0.25,3.7,10,match,36.05,298,329,361,392,423,9,9,9,9,9,,,,,,,3,0,3,0,0,25,25,22,,,,,,,,,,,,num_5,1.0944403000175953,num_5,0.3,0.7,0.25,0.75,9.55138,28.65413,return,4.006468100007623,,,,,,,,,,,,,,,,,717,24,female,up_down_width,2024-08-27_15h59.33.664,exp1,2023.1.0,59.91723033728238,
,,,,,,,,,,,,,,,,3,8.2,10,11.8,0,0,1.8,1.55,0.25,3.85,10,match,36.05,296,361,425,0,0,9,9,9,0,0,,,,,,,3,0,3,0,0,26,26,49,,,,,,,,,,,,num_2,1.0352314000192564,num_2,0.45,1.0,0.20000000000000007,1.4,7.6411,53.48771,return,4.655623100014054,,,,,,,,,,,,,,,,,717,24,female,up_down_width,2024-08-27_15h59.33.664,exp1,2023.1.0,59.91723033728238,
,,,,,,,,,,,,,,,,4,9.3,9.766666666666667,10.233333333333333,10.7,0,0.4666666666666667,0.21666666666666665,0.25,1.65,10,match,36.05,335,352,369,386,0,9,9,9,9,0,,,,,,,3,0,3,0,0,27,27,8,,,,,,,,,,,,num_3,0.9660410000069533,num_3,0.25,1.3,0.15000000000000002,0.75,5.73083,28.65413,return,5.454772300014156,,,,,,,,,,,,,,,,,717,24,female,up_down_width,2024-08-27_15h59.33.664,exp1,2023.1.0,59.91723033728238,
,,,,,,,,,,,,,,,,4,8.35,9.45,10.55,11.65,0,1.1,0.8500000000000001,0.25,3.5500000000000003,10,initial,36.05,301,341,380,420,0,9,9,9,9,0,,,,,,,3,0,3,0,0,28,28,19,,,,,,,,,,,,num_3,1.019609400012996,num_3,0.25,0.4,0.15000000000000002,1.3,5.73083,49.66716,return,8.238073300002725,,,,,,,,,,,,,,,,,717,24,female,up_down_width,2024-08-27_15h59.33.664,exp1,2023.1.0,59.91723033728238,
,,,,,,,,,,,,,,,,4,9.1,9.7,10.3,10.9,0,0.6000000000000001,0.20000000000000004,0.4,2.2,10,match,36.05,328,350,371,393,0,9,9,9,9,0,,,,,,,3,0,3,0,0,29,29,16,,,,,,,,,,,,num_3,1.1249130000069272,num_3,0.4,0.7,0.4,0.6,15.2822,22.9233,return,2.1296236000198405,,,,,,,,,,,,,,,,,717,24,female,up_down_width,2024-08-27_15h59.33.664,exp1,2023.1.0,59.91723033728238,
,,,,,,,,,,,,,,,,4,8.9,9.633333333333333,10.366666666666667,11.1,0,0.7333333333333333,0.18333333333333326,0.55,2.75,10,match,36.05,321,347,374,400,0,9,9,9,9,0,,,,,,,3,0,3,0,0,30,30,1,,,,,,,,,,,,num_3,1.0556615000095917,num_3,0.35,1.3,0.44999999999999996,1.0,17.19248,38.2055,return,4.532475300016813,,,,,,,,,,,,,,,,,717,24,female,up_down_width,2024-08-27_15h59.33.664,exp1,2023.1.0,59.91723033728238,
,,,,,,,,,,,,,,,,5,8.2,9.1,10,10.9,11.8,0.9,0.35,0.55,4.15,10,initial,36.05,296,328,361,393,425,9,9,9,9,9,,,,,,,3,0,3,0,0,31,31,46,,,,,,,,,,,,num_4,0.9620860000140965,num_4,0.55,1.1,0.35000000000000003,0.8,13.37193,30.5644,return,6.023426200001268,,,,,,,,,,,,,,,,,717,24,female,up_down_width,2024-08-27_15h59.33.664,exp1,2023.1.0,59.91723033728238,
,,,,,,,,,,,,,,,,4,9.1,9.7,10.3,10.9,0,0.6,0.04999999999999997,0.55,2.35,10,match,36.05,328,350,371,393,0,9,9,9,9,0,,,,,,,3,0,3,0,0,32,32,12,,,,,,,,,,,,num_4,2.434348700015107,num_4,0.35,0.5,0.3,0.4,11.46165,15.2822,return,4.074175800007652,,,,,,,,,,,,,,,,,717,24,female,up_down_width,2024-08-27_15h59.33.664,exp1,2023.1.0,59.91723033728238,
,,,,,,,,,,,,,,,,4,8.95,9.65,10.35,11.05,0,0.7,0.29999999999999993,0.4,2.5,10,initial,36.05,323,348,373,398,0,9,9,9,9,0,,,,,,,3,0,3,0,0,33,33,26,,,,,,,,,,,,num_4,1.529071600001771,num_4,0.45,1.1,0.35000000000000003,0.5,13.37193,19.10275,return,3.6673211000161245,,,,,,,,,,,,,,,,,717,24,female,up_down_width,2024-08-27_15h59.33.664,exp1,2023.1.0,59.91723033728238,
,,,,,,,,,,,,,,,,5,8.65,9.325,10,10.675,11.35,0.675,0.275,0.4,3.1,10,match,36.05,312,336,361,385,409,9,9,9,9,9,,,,,,,3,0,3,0,0,34,34,33,,,,,,,,,,,,num_4,1.9356149000232108,num_4,0.5,1.3,0.35000000000000003,0.7,13.37193,26.74385,return,3.9799355000141077,,,,,,,,,,,,,,,,,717,24,female,up_down_width,2024-08-27_15h59.33.664,exp1,2023.1.0,59.91723033728238,
,,,,,,,,,,,,,,,,3,9.1,10,10.9,0,0,0.9,0.35,0.55,2.35,10,initial,36.05,328,361,393,0,0,9,9,9,0,0,,,,,,,3,0,3,0,0,35,35,11,,,,,,,,,,,,num_3,1.0828306000039447,num_3,0.25,0.7,0.44999999999999996,0.8,17.19248,30.5644,return,3.178683000005549,,,,,,,,,,,,,,,,,717,24,female,up_down_width,2024-08-27_15h59.33.664,exp1,2023.1.0,59.91723033728238,
,,,,,,,,,,,,,,,,5,8.35,9.175,10,10.825,11.65,0.8250000000000001,0.275,0.55,3.85,10,match,36.05,301,331,361,390,420,9,9,9,9,9,,,,,,,3,0,3,0,0,36,36,18,,,,,,,,,,,,num_4,1.0277439000201412,num_4,0.55,0.8,0.45,1.0,17.19248,38.2055,return,3.6075205000233836,,,,,,,,,,,,,,,,,717,24,female,up_down_width,2024-08-27_15h59.33.664,exp1,2023.1.0,59.91723033728238,
,,,,,,,,,,,,,,,,3,8.2,10,11.8,0,0,1.7999999999999998,1.4,0.4,4,10,match,36.05,296,361,425,0,0,9,9,9,0,0,,,,,,,3,0,3,0,0,37,37,51,,,,,,,,,,,,num_2,1.0496431000210578,num_2,0.5,0.8,0.30000000000000004,1.9,11.46165,72.59046,return,4.415847700016457,,,,,,,,,,,,,,,,,717,24,female,up_down_width,2024-08-27_15h59.33.664,exp1,2023.1.0,59.91723033728238,
,,,,,,,,,,,,,,,,5,8.2,9.1,10,10.9,11.8,0.9,0.65,0.25,3.85,10,initial,36.05,296,328,361,393,425,9,9,9,9,9,,,,,,,3,0,3,0,0,38,38,48,,,,,,,,,,,,num_3,2.5184191000153078,num_3,0.25,0.6,0.2,1.0,7.6411,38.2055,return,4.486751700009336,,,,,,,,,,,,,,,,,717,24,female,up_down_width,2024-08-27_15h59.33.664,exp1,2023.1.0,59.91723033728238,
,,,,,,,,,,,,,,,,3,8.9,10,11.1,0,0,1.1,0.8500000000000001,0.25,2.45,10,initial,36.05,321,361,400,0,0,9,9,9,0,0,,,,,,,3,0,3,0,0,39,39,2,,,,,,,,,,,,num_3,1.0863458000239916,num_3,0.55,0.6,0.35000000000000003,1.05,13.37193,40.11578,return,5.373124200006714,,,,,,,,,,,,,,,,,717,24,female,up_down_width,2024-08-27_15h59.33.664,exp1,2023.1.0,59.91723033728238,
,,,,,,,,,,,,,,,,4,8.65,9.55,10.45,11.35,0,0.9,0.65,0.25,2.95,10,initial,36.05,312,344,377,409,0,9,9,9,9,0,,,,,,,3,0,3,0,0,40,40,30,,,,,,,,,,,,num_3,1.2887114000041038,num_3,0.25,0.3,0.25,1.05,9.55138,40.11578,return,5.520309700019425,,,,,,,,,,,,,,,,,717,24,female,up_down_width,2024-08-27_15h59.33.664,exp1,2023.1.0,59.91723033728238,
,,,,,,,,,,,,,,,,3,9.1,10,10.9,0,0,0.9,0.5,0.4,2.2,10,initial,36.05,328,361,393,0,0,9,9,9,0,0,,,,,,,3,0,3,0,0,41,41,15,,,,,,,,,,,,num_2,1.0767339000158245,num_2,0.5,0.6,0.5,1.2,19.10275,45.8466,return,3.8120735000120476,,,,,,,,,,,,,,,,,717,24,female,up_down_width,2024-08-27_15h59.33.664,exp1,2023.1.0,59.91723033728238,
,,,,,,,,,,,,,,,,3,7.8,10,12.2,0,0,2.2,1.9500000000000002,0.25,4.65,10,match,36.05,281,361,440,0,0,9,9,9,0,0,,,,,,,3,0,3,0,0,42,42,37,,,,,,,,,,,,num_2,2.965994700003648,num_2,0.45,1.4,0.25000000000000006,1.2,9.55138,45.8466,return,3.5640776000218466,,,,,,,,,,,,,,,,,717,24,female,up_down_width,2024-08-27_15h59.33.664,exp1,2023.1.0,59.91723033728238,
,,,,,,,,,,,,,,,,3,8.9,10,11.1,0,0,1.1,0.55,0.55,2.75,10,initial,36.05,321,361,400,0,0,9,9,9,0,0,,,,,,,3,0,3,0,0,43,43,0,,,,,,,,,,,,num_3,1.0124052000173833,num_3,0.5,1,0.5,1.1,19.10275,42.02605,return,2.6302883000171278,,,,,,,,,,,,,,,,,717,24,female,up_down_width,2024-08-27_15h59.33.664,exp1,2023.1.0,59.91723033728238,
,,,,,,,,,,,,,,,,3,8.6,10,11.4,0,0,1.4,1.15,0.25,3.05,10,match,36.05,310,361,411,0,0,9,9,9,0,0,,,,,,,3,0,3,0,0,44,44,43,,,,,,,,,,,,num_3,1.3156991000141716,num_3,0.25,1.1,0.25,1.15,9.55138,43.93633,return,2.4900906000111718,,,,,,,,,,,,,,,,,717,24,female,up_down_width,2024-08-27_15h59.33.664,exp1,2023.1.0,59.91723033728238,
,,,,,,,,,,,,,,,,5,7.8,8.9,10,11.1,12.2,1.1,0.55,0.55,4.95,10,initial,36.05,281,321,361,400,440,9,9,9,9,9,,,,,,,3,0,3,0,0,45,45,34,,,,,,,,,,,,num_3,1.0590868000144837,num_3,0.55,1.2,0.5,1.4,19.10275,53.48771,return,2.964475600019796,,,,,,,,,,,,,,,,,717,24,female,up_down_width,2024-08-27_15h59.33.664,exp1,2023.1.0,59.91723033728238,
,,,,,,,,,,,,,,,,5,8.35,9.175,10,10.825,11.65,0.825,0.575,0.25,3.55,10,match,36.05,301,331,361,390,420,9,9,9,9,9,,,,,,,3,0,3,0,0,46,46,20,,,,,,,,,,,,num_5,1.0103905000141822,num_5,0.3,0.4,0.3,0.8,11.46165,30.5644,return,3.9998498000204563,,,,,,,,,,,,,,,,,717,24,female,up_down_width,2024-08-27_15h59.33.664,exp1,2023.1.0,59.91723033728238,
,,,,,,,,,,,,,,,,3,9.3,10,10.7,0,0,0.7,0.29999999999999993,0.4,1.8,10,initial,36.05,335,361,386,0,0,9,9,9,0,0,,,,,,,3,0,3,0,0,47,47,9,,,,,,,,,,,,num_3,1.2216850000259,num_3,0.25,0.3,0.25,0.75,9.55138,28.65413,return,3.250859900013893,,,,,,,,,,,,,,,,,717,24,female,up_down_width,2024-08-27_15h59.33.664,exp1,2023.1.0,59.91723033728238,
,,,,,,,,,,,,,,,,4,9.3,9.766666666666667,10.233333333333333,10.7,0,0.4666666666666667,0.06666666666666665,0.4,1.8,10,match,36.05,335,352,369,386,0,9,9,9,9,0,,,,,,,3,0,3,0,0,48,48,10,,,,,,,,,,,,num_3,1.0806996000173967,num_3,0.25,0.3,0.39999999999999997,0.5,15.2822,19.10275,return,7.413273400015896,,,,,,,,,,,,,,,,,717,24,female,up_down_width,2024-08-27_15h59.33.664,exp1,2023.1.0,59.91723033728238,
,,,,,,,,,,,,,,,,5,8.95,9.475,10,10.525,11.05,0.525,0.275,0.25,2.35,10,match,36.05,323,342,361,379,398,9,9,9,9,9,,,,,,,3,0,3,0,0,49,49,25,,,,,,,,,,,,num_4,1.101735300006112,num_4,0.55,0.9,0.4,0.6,15.2822,22.9233,return,5.6473148000077344,,,,,,,,,,,,,,,,,717,24,female,up_down_width,2024-08-27_15h59.33.664,exp1,2023.1.0,59.91723033728238,
,,,,,,,,,,,,,,,,4,9.1,9.7,10.3,10.9,0,0.5999999999999999,0.3499999999999999,0.25,2.05,10,match,36.05,328,350,371,393,0,9,9,9,9,0,,,,,,,3,0,3,0,0,50,50,14,,,,,,,,,,,,num_4,1.3434377000230597,num_4,0.35,1.1,0.3,0.5,11.46165,19.10275,return,4.2326443000056315,,,,,,,,,,,,,,,,,717,24,female,up_down_width,2024-08-27_15h59.33.664,exp1,2023.1.0,59.91723033728238,
,,,,,,,,,,,,,,,,3,7.8,10,12.2,0,0,2.2,1.65,0.55,4.95,10,match,36.05,281,361,440,0,0,9,9,9,0,0,,,,,,,3,0,3,0,0,51,51,35,,,,,,,,,,,,num_3,1.2251049000042258,num_3,0.5,1.2,0.35000000000000003,1.2,13.37193,45.8466,return,2.838173400014057,,,,,,,,,,,,,,,,,717,24,female,up_down_width,2024-08-27_15h59.33.664,exp1,2023.1.0,59.91723033728238,
,,,,,,,,,,,,,,,,,,,,,,,,,,,,,,,,,,,,,,,,,,,,,3,0,3,0,,,,,,,,,,,,,,,,,,,,,,,,,,,,,2134.7671544999903,2134.7671544999903,2134.7671544999903,,,,,,,,,,,,717,24,female,up_down_width,2024-08-27_15h59.33.664,exp1,2023.1.0,59.91723033728238,
,,,,,,,,,,,,,,,,4,8.825,9.608333333333333,10.391666666666667,11.175,0,0.7833333333333333,0.5333333333333333,0.25,2.6,10,match,36.05,318,346,375,403,0,9,9,9,9,0,,,,,,,4,0,4,0,0,0,0,5,,,,,,,,,,,,num_3,1.17893650001497,num_3,0.5,1.3,0.35000000000000003,1.2,13.37193,45.8466,return,2.810295400005998,,,,,,,,,,,,,,,,,717,24,female,up_down_width,2024-08-27_15h59.33.664,exp1,2023.1.0,59.91723033728238,
,,,,,,,,,,,,,,,,5,8.65,9.325,10,10.675,11.35,0.675,0.125,0.55,3.25,10,match,36.05,312,336,361,385,409,9,9,9,9,9,,,,,,,4,0,4,0,0,1,1,29,,,,,,,,,,,,num_5,0.9735405000101309,num_5,0.2,0.8,0.39999999999999997,0.7,15.2822,26.74385,return,3.621226300019771,,,,,,,,,,,,,,,,,717,24,female,up_down_width,2024-08-27_15h59.33.664,exp1,2023.1.0,59.91723033728238,
,,,,,,,,,,,,,,,,5,8.2,9.1,10,10.9,11.8,0.9,0.65,0.25,3.85,10,initial,36.05,296,328,361,393,425,9,9,9,9,9,,,,,,,4,0,4,0,0,2,2,48,,,,,,,,,,,,num_5,1.357037500012666,num_5,0.45,0.7,0.35000000000000003,0.9,13.37193,34.38495,return,2.7898538000154076,,,,,,,,,,,,,,,,,717,24,female,up_down_width,2024-08-27_15h59.33.664,exp1,2023.1.0,59.91723033728238,
,,,,,,,,,,,,,,,,5,8.35,9.175,10,10.825,11.65,0.825,0.575,0.25,3.55,10,match,36.05,301,331,361,390,420,9,9,9,9,9,,,,,,,4,0,4,0,0,3,3,20,,,,,,,,,,,,num_4,1.0394690000102855,num_4,0.2,0.5,0.2,1.0,7.6411,38.2055,return,3.9204997000051662,,,,,,,,,,,,,,,,,717,24,female,up_down_width,2024-08-27_15h59.33.664,exp1,2023.1.0,59.91723033728238,
,,,,,,,,,,,,,,,,3,9.3,10,10.7,0,0,0.7,0.1499999999999999,0.55,1.95,10,initial,36.05,335,361,386,0,0,9,9,9,0,0,,,,,,,4,0,4,0,0,4,4,6,,,,,,,,,,,,num_2,1.1371635000250535,num_2,0.55,0.8,0.55,0.8,21.01303,30.5644,return,0.9936661000247113,,,,,,,,,,,,,,,,,717,24,female,up_down_width,2024-08-27_15h59.33.664,exp1,2023.1.0,59.91723033728238,
,,,,,,,,,,,,,,,,5,8.65,9.325,10,10.675,11.35,0.675,0.42500000000000004,0.25,2.95,10,match,36.05,312,336,361,385,409,9,9,9,9,9,,,,,,,4,0,4,0,0,5,5,31,,,,,,,,,,,,num_3,1.0683789000177057,num_3,0.45,0.5,0.30000000000000004,0.9,11.46165,34.38495,return,5.886740900023142,,,,,,,,,,,,,,,,,717,24,female,up_down_width,2024-08-27_15h59.33.664,exp1,2023.1.0,59.91723033728238,
,,,,,,,,,,,,,,,,4,9.1,9.7,10.3,10.9,0,0.6,0.04999999999999997,0.55,2.35,10,match,36.05,328,350,371,393,0,9,9,9,9,0,,,,,,,4,0,4,0,0,6,6,12,,,,,,,,,,,,num_3,1.0165307000133907,num_3,0.25,0.4,0.5499999999999999,0.65,21.01303,24.83358,return,8.270997000014177,,,,,,,,,,,,,,,,,717,24,female,up_down_width,2024-08-27_15h59.33.664,exp1,2023.1.0,59.91723033728238,
,,,,,,,,,,,,,,,,3,9.1,10,10.9,0,0,0.9,0.65,0.25,2.05,10,initial,36.05,328,361,393,0,0,9,9,9,0,0,,,,,,,4,0,4,0,0,7,7,13,,,,,,,,,,,,num_2,0.9237829000194324,num_2,0.5,1.6,0.35000000000000003,1.3,13.37193,49.66716,return,2.804419300024165,,,,,,,,,,,,,,,,,717,24,female,up_down_width,2024-08-27_15h59.33.664,exp1,2023.1.0,59.91723033728238,
,,,,,,,,,,,,,,,,3,7.8,10,12.2,0,0,2.2,1.9500000000000002,0.25,4.65,10,match,36.05,281,361,440,0,0,9,9,9,0,0,,,,,,,4,0,4,0,0,8,8,37,,,,,,,,,,,,num_2,1.308040300005814,num_2,0.2,1.2,0.2,2.8,7.6411,106.97541,return,5.152789000014309,,,,,,,,,,,,,,,,,717,24,female,up_down_width,2024-08-27_15h59.33.664,exp1,2023.1.0,59.91723033728238,
,,,,,,,,,,,,,,,,5,8.95,9.475,10,10.525,11.05,0.525,0.125,0.4,2.5,10,match,36.05,323,342,361,379,398,9,9,9,9,9,,,,,,,4,0,4,0,0,9,9,27,,,,,,,,,,,,num_3,1.368582700015395,num_3,0.3,0.5,0.3,1.0,11.46165,38.2055,return,3.9794277000182774,,,,,,,,,,,,,,,,,717,24,female,up_down_width,2024-08-27_15h59.33.664,exp1,2023.1.0,59.91723033728238,
,,,,,,,,,,,,,,,,4,9.3,9.766666666666667,10.233333333333333,10.7,0,0.4666666666666667,0.21666666666666665,0.25,1.65,10,match,36.05,335,352,369,386,0,9,9,9,9,0,,,,,,,4,0,4,0,0,10,10,8,,,,,,,,,,,,num_3,0.8831397000030847,num_3,0.3,0.4,0.25,0.8,9.55138,30.5644,return,3.9152930000127526,,,,,,,,,,,,,,,,,717,24,female,up_down_width,2024-08-27_15h59.33.664,exp1,2023.1.0,59.91723033728238,
,,,,,,,,,,,,,,,,5,8.6,9.3,10,10.7,11.4,0.7,0.44999999999999996,0.25,3.05,10,initial,36.05,310,335,361,386,411,9,9,9,9,9,,,,,,,4,0,4,0,0,11,11,42,,,,,,,,,,,,num_4,0.8747223000100348,num_4,0.3,0.8,0.2,0.8,7.6411,30.5644,return,2.230418400009512,,,,,,,,,,,,,,,,,717,24,female,up_down_width,2024-08-27_15h59.33.664,exp1,2023.1.0,59.91723033728238,
,,,,,,,,,,,,,,,,4,9.1,9.7,10.3,10.9,0,0.5999999999999999,0.3499999999999999,0.25,2.05,10,match,36.05,328,350,371,393,0,9,9,9,9,0,,,,,,,4,0,4,0,0,12,12,14,,,,,,,,,,,,num_4,0.9014632000180427,num_4,0.2,1.1,0.2,0.9,7.6411,34.38495,return,3.1849867000128143,,,,,,,,,,,,,,,,,717,24,female,up_down_width,2024-08-27_15h59.33.664,exp1,2023.1.0,59.91723033728238,
,,,,,,,,,,,,,,,,5,8.95,9.475,10,10.525,11.05,0.525,0.275,0.25,2.35,10,match,36.05,323,342,361,379,398,9,9,9,9,9,,,,,,,4,0,4,0,0,13,13,25,,,,,,,,,,,,num_4,1.0591562000190606,num_4,0.45,0.9,0.25000000000000006,0.8,9.55138,30.5644,return,3.761605600011535,,,,,,,,,,,,,,,,,717,24,female,up_down_width,2024-08-27_15h59.33.664,exp1,2023.1.0,59.91723033728238,
,,,,,,,,,,,,,,,,3,9.3,10,10.7,0,0,0.7,0.29999999999999993,0.4,1.8,10,initial,36.05,335,361,386,0,0,9,9,9,0,0,,,,,,,4,0,4,0,0,14,14,9,,,,,,,,,,,,num_3,1.139611300008255,num_3,0.35,1.3,0.35,1.0,13.37193,38.2055,return,4.486099900022964,,,,,,,,,,,,,,,,,717,24,female,up_down_width,2024-08-27_15h59.33.664,exp1,2023.1.0,59.91723033728238,
,,,,,,,,,,,,,,,,4,8.35,9.45,10.55,11.65,0,1.1,0.8500000000000001,0.25,3.5500000000000003,10,initial,36.05,301,341,380,420,0,9,9,9,9,0,,,,,,,4,0,4,0,0,15,15,19,,,,,,,,,,,,num_3,0.9173768000036944,num_3,0.35,0.9,0.25,0.9,9.55138,34.38495,return,2.1241416000120807,,,,,,,,,,,,,,,,,717,24,female,up_down_width,2024-08-27_15h59.33.664,exp1,2023.1.0,59.91723033728238,
,,,,,,,,,,,,,,,,5,8.2,9.1,10,10.9,11.8,0.9,0.5,0.4,4,10,initial,36.05,296,328,361,393,425,9,9,9,9,9,,,,,,,4,0,4,0,0,16,16,50,,,,,,,,,,,,num_4,0.9229886000102852,num_4,0.2,0.7,0.25,0.9,9.55138,34.38495,return,2.804271200016956,,,,,,,,,,,,,,,,,717,24,female,up_down_width,2024-08-27_15h59.33.664,exp1,2023.1.0,59.91723033728238,
,,,,,,,,,,,,,,,,4,8.65,9.55,10.45,11.35,0,0.9,0.65,0.25,2.95,10,initial,36.05,312,344,377,409,0,9,9,9,9,0,,,,,,,4,0,4,0,0,17,17,30,,,,,,,,,,,,num_4,1.0227901000034763,num_4,0.25,0.8,0.25,0.9,9.55138,34.38495,return,2.9128805000218563,,,,,,,,,,,,,,,,,717,24,female,up_down_width,2024-08-27_15h59.33.664,exp1,2023.1.0,59.91723033728238,
,,,,,,,,,,,,,,,,3,8.9,10,11.1,0,0,1.1,0.55,0.55,2.75,10,initial,36.05,321,361,400,0,0,9,9,9,0,0,,,,,,,4,0,4,0,0,18,18,0,,,,,,,,,,,,num_2,0.8924382000113837,num_2,0.5,1.0,0.5,1.3,19.10275,49.66716,return,3.1094725000148173,,,,,,,,,,,,,,,,,717,24,female,up_down_width,2024-08-27_15h59.33.664,exp1,2023.1.0,59.91723033728238,
,,,,,,,,,,,,,,,,5,8.275,9.1375,10,10.8625,11.725,0.8625,0.6125,0.25,3.7,10,match,36.05,298,329,361,392,423,9,9,9,9,9,,,,,,,4,0,4,0,0,19,19,22,,,,,,,,,,,,num_5,1.5446829000138678,num_5,0.4,1.1,0.35000000000000003,1.0,13.37193,38.2055,return,2.4203647000103956,,,,,,,,,,,,,,,,,717,24,female,up_down_width,2024-08-27_15h59.33.664,exp1,2023.1.0,59.91723033728238,
,,,,,,,,,,,,,,,,4,8.95,9.65,10.35,11.05,0,0.7,0.44999999999999996,0.25,2.3499999999999996,10,initial,36.05,323,348,373,398,0,9,9,9,9,0,,,,,,,4,0,4,0,0,20,20,24,,,,,,,,,,,,num_3,1.9513290000031702,num_3,0.25,1.1,0.25,1.1,9.55138,42.02605,return,0.8923332000122173,,,,,,,,,,,,,,,,,717,24,female,up_down_width,2024-08-27_15h59.33.664,exp1,2023.1.0,59.91723033728238,
,,,,,,,,,,,,,,,,3,7.8,10,12.2,0,0,2.2,1.65,0.55,4.95,10,match,36.05,281,361,440,0,0,9,9,9,0,0,,,,,,,4,0,4,0,0,21,21,35,,,,,,,,,,,,num_3,0.884626200015191,num_3,0.55,0.9,0.45,1.2,17.19248,45.8466,return,3.05497860001924,,,,,,,,,,,,,,,,,717,24,female,up_down_width,2024-08-27_15h59.33.664,exp1,2023.1.0,59.91723033728238,
,,,,,,,,,,,,,,,,3,8.9,10,11.1,0,0,1.1,0.8500000000000001,0.25,2.45,10,initial,36.05,321,361,400,0,0,9,9,9,0,0,,,,,,,4,0,4,0,0,22,22,2,,,,,,,,,,,,num_3,0.9512295000167796,num_3,0.45,1.2,0.25000000000000006,1.1,9.55138,42.02605,return,2.6188265000091633,,,,,,,,,,,,,,,,,717,24,female,up_down_width,2024-08-27_15h59.33.664,exp1,2023.1.0,59.91723033728238,
,,,,,,,,,,,,,,,,3,9.1,10,10.9,0,0,0.9,0.5,0.4,2.2,10,initial,36.05,328,361,393,0,0,9,9,9,0,0,,,,,,,4,0,4,0,0,23,23,15,,,,,,,,,,,,num_3,1.0235220000176923,num_3,0.5,0.9,0.35000000000000003,0.95,13.37193,36.29523,return,2.966440100019099,,,,,,,,,,,,,,,,,717,24,female,up_down_width,2024-08-27_15h59.33.664,exp1,2023.1.0,59.91723033728238,
,,,,,,,,,,,,,,,,3,8.2,10,11.8,0,0,1.8,1.25,0.55,4.15,10,match,36.05,296,361,425,0,0,9,9,9,0,0,,,,,,,4,0,4,0,0,24,24,47,,,,,,,,,,,,num_2,1.037814100011019,num_2,0.45,1.0,0.35000000000000003,1.4,13.37193,53.48771,return,2.8821288000035565,,,,,,,,,,,,,,,,,717,24,female,up_down_width,2024-08-27_15h59.33.664,exp1,2023.1.0,59.91723033728238,
,,,,,,,,,,,,,,,,4,9.1,9.7,10.3,10.9,0,0.6000000000000001,0.20000000000000004,0.4,2.2,10,match,36.05,328,350,371,393,0,9,9,9,9,0,,,,,,,4,0,4,0,0,25,25,16,,,,,,,,,,,,num_2,0.9495408000075258,num_2,0.5,1.2,0.45,0.8,17.19248,30.5644,return,2.14353040001879,,,,,,,,,,,,,,,,,717,24,female,up_down_width,2024-08-27_15h59.33.664,exp1,2023.1.0,59.91723033728238,
,,,,,,,,,,,,,,,,3,8.2,10,11.8,0,0,1.7999999999999998,1.4,0.4,4,10,match,36.05,296,361,425,0,0,9,9,9,0,0,,,,,,,4,0,4,0,0,26,26,51,,,,,,,,,,,,num_2,1.139319100024295,num_2,0.5,1.2,0.35000000000000003,2.0,13.37193,76.41101,return,3.685051200009184,,,,,,,,,,,,,,,,,717,24,female,up_down_width,2024-08-27_15h59.33.664,exp1,2023.1.0,59.91723033728238,
,,,,,,,,,,,,,,,,4,8.95,9.65,10.35,11.05,0,0.7,0.29999999999999993,0.4,2.5,10,initial,36.05,323,348,373,398,0,9,9,9,9,0,,,,,,,4,0,4,0,0,27,27,26,,,,,,,,,,,,num_3,1.2840810000197962,num_3,0.25,0.4,0.2,1.05,7.6411,40.11578,return,4.8107541000063065,,,,,,,,,,,,,,,,,717,24,female,up_down_width,2024-08-27_15h59.33.664,exp1,2023.1.0,59.91723033728238,
,,,,,,,,,,,,,,,,4,8.9,9.633333333333333,10.366666666666667,11.1,0,0.7333333333333333,0.18333333333333326,0.55,2.75,10,match,36.05,321,347,374,400,0,9,9,9,9,0,,,,,,,4,0,4,0,0,28,28,1,,,,,,,,,,,,num_3,0.9612502000236418,num_3,0.25,0.4,0.49999999999999994,0.9,19.10275,34.38495,return,5.9751324000098975,,,,,,,,,,,,,,,,,717,24,female,up_down_width,2024-08-27_15h59.33.664,exp1,2023.1.0,59.91723033728238,
,,,,,,,,,,,,,,,,3,9.1,10,10.9,0,0,0.9,0.35,0.55,2.35,10,initial,36.05,328,361,393,0,0,9,9,9,0,0,,,,,,,4,0,4,0,0,29,29,11,,,,,,,,,,,,num_2,0.8228792000154499,num_2,0.5,1.6,0.5,0.9,19.10275,34.38495,return,3.5186035000078846,,,,,,,,,,,,,,,,,717,24,female,up_down_width,2024-08-27_15h59.33.664,exp1,2023.1.0,59.91723033728238,
,,,,,,,,,,,,,,,,3,8.525,10,11.475,0,0,1.475,1.225,0.25,3.2,10,match,36.05,307,361,414,0,0,9,9,9,0,0,,,,,,,4,0,4,0,0,30,30,45,,,,,,,,,,,,num_2,0.7898593000136316,num_2,0.35,1.4,0.25,0.9,9.55138,34.38495,return,3.663062000021455,,,,,,,,,,,,,,,,,717,24,female,up_down_width,2024-08-27_15h59.33.664,exp1,2023.1.0,59.91723033728238,
,,,,,,,,,,,,,,,,3,8.6,10,11.4,0,0,1.4,1.15,0.25,3.05,10,match,36.05,310,361,411,0,0,9,9,9,0,0,,,,,,,4,0,4,0,0,31,31,43,,,,,,,,,,,,num_2,1.0228563000127906,num_2,0.35,1.0,0.25,0.8,9.55138,30.5644,return,3.044747300024028,,,,,,,,,,,,,,,,,717,24,female,up_down_width,2024-08-27_15h59.33.664,exp1,2023.1.0,59.91723033728238,
,,,,,,,,,,,,,,,,5,8.65,9.325,10,10.675,11.35,0.675,0.275,0.4,3.1,10,match,36.05,312,336,361,385,409,9,9,9,9,9,,,,,,,4,0,4,0,0,32,32,33,,,,,,,,,,,,num_3,0.8203503000113415,num_3,0.45,1.2,0.25000000000000006,0.95,9.55138,36.29523,return,3.2953581000183476,,,,,,,,,,,,,,,,,717,24,female,up_down_width,2024-08-27_15h59.33.664,exp1,2023.1.0,59.91723033728238,
,,,,,,,,,,,,,,,,4,9.3,9.766666666666667,10.233333333333333,10.7,0,0.4666666666666667,0.06666666666666665,0.4,1.8,10,match,36.05,335,352,369,386,0,9,9,9,9,0,,,,,,,4,0,4,0,0,33,33,10,,,,,,,,,,,,num_3,0.9142317000078037,num_3,0.2,0.4,0.15000000000000002,0.6,5.73083,22.9233,return,4.215337900008308,,,,,,,,,,,,,,,,,717,24,female,up_down_width,2024-08-27_15h59.33.664,exp1,2023.1.0,59.91723033728238,
,,,,,,,,,,,,,,,,5,8.6,9.3,10,10.7,11.4,0.7,0.1499999999999999,0.55,3.3499999999999996,10,initial,36.05,310,335,361,386,411,9,9,9,9,9,,,,,,,4,0,4,0,0,34,34,40,,,,,,,,,,,,num_3,0.8518423000205075,num_3,0.3,0.9,0.44999999999999996,0.75,17.19248,28.65413,return,3.2024937000096543,,,,,,,,,,,,,,,,,717,24,female,up_down_width,2024-08-27_15h59.33.664,exp1,2023.1.0,59.91723033728238,
,,,,,,,,,,,,,,,,4,8.95,9.65,10.35,11.05,0,0.7,0.1499999999999999,0.55,2.65,10,initial,36.05,323,348,373,398,0,9,9,9,9,0,,,,,,,4,0,4,0,0,35,35,23,,,,,,,,,,,,num_3,1.4424545000074431,num_3,0.55,1.1,0.5,0.8,19.10275,30.5644,return,4.451981400008663,,,,,,,,,,,,,,,,,717,24,female,up_down_width,2024-08-27_15h59.33.664,exp1,2023.1.0,59.91723033728238,
,,,,,,,,,,,,,,,,5,7.8,8.9,10,11.1,12.2,1.1,0.55,0.55,4.95,10,initial,36.05,281,321,361,400,440,9,9,9,9,9,,,,,,,4,0,4,0,0,36,36,34,,,,,,,,,,,,num_5,1.046407400019234,num_5,0.3,0.7,0.44999999999999996,0.65,17.19248,24.83358,return,4.6968004000227666,,,,,,,,,,,,,,,,,717,24,female,up_down_width,2024-08-27_15h59.33.664,exp1,2023.1.0,59.91723033728238,
,,,,,,,,,,,,,,,,5,7.8,8.9,10,11.1,12.2,1.1,0.8500000000000001,0.25,4.65,10,initial,36.05,281,321,361,400,440,9,9,9,9,9,,,,,,,4,0,4,0,0,37,37,36,,,,,,,,,,,,num_5,0.9825369000027422,num_5,0.45,0.6,0.25000000000000006,0.85,9.55138,32.47468,return,3.6119645000144374,,,,,,,,,,,,,,,,,717,24,female,up_down_width,2024-08-27_15h59.33.664,exp1,2023.1.0,59.91723033728238,
,,,,,,,,,,,,,,,,3,9.3,10,10.7,0,0,0.7,0.44999999999999996,0.25,1.65,10,initial,36.05,335,361,386,0,0,9,9,9,0,0,,,,,,,4,0,4,0,0,38,38,7,,,,,,,,,,,,num_3,0.834003500000108,num_3,0.5,0.9,0.25000000000000006,0.9,9.55138,34.38495,return,2.2518797000084305,,,,,,,,,,,,,,,,,717,24,female,up_down_width,2024-08-27_15h59.33.664,exp1,2023.1.0,59.91723033728238,
,,,,,,,,,,,,,,,,4,8.65,9.55,10.45,11.35,0,0.9,0.35,0.55,3.25,10,initial,36.05,312,344,377,409,0,9,9,9,9,0,,,,,,,4,0,4,0,0,39,39,28,,,,,,,,,,,,num_4,0.9566362000041408,num_4,0.25,0.6,0.25,1.0,9.55138,38.2055,return,3.220331200005603,,,,,,,,,,,,,,,,,717,24,female,up_down_width,2024-08-27_15h59.33.664,exp1,2023.1.0,59.91723033728238,
,,,,,,,,,,,,,,,,3,7.800000000000001,10,12.2,0,0,2.1999999999999997,1.7999999999999998,0.4,4.8,10,match,36.05,281,361,440,0,0,9,9,9,0,0,,,,,,,4,0,4,0,0,40,40,39,,,,,,,,,,,,num_2,1.4659147000056691,num_2,0.35,0.8,0.25,1.2,9.55138,45.8466,return,4.512020600013784,,,,,,,,,,,,,,,,,717,24,female,up_down_width,2024-08-27_15h59.33.664,exp1,2023.1.0,59.91723033728238,
,,,,,,,,,,,,,,,,3,8.6,10,11.4,0,0,1.4,0.85,0.55,3.35,10,match,36.05,310,361,411,0,0,9,9,9,0,0,,,,,,,4,0,4,0,0,41,41,41,,,,,,,,,,,,num_2,1.1277927000046475,num_2,0.45,0.8,0.25000000000000006,1.4,9.55138,53.48771,return,5.3324156000162475,,,,,,,,,,,,,,,,,717,24,female,up_down_width,2024-08-27_15h59.33.664,exp1,2023.1.0,59.91723033728238,
,,,,,,,,,,,,,,,,5,8.2,9.1,10,10.9,11.8,0.9,0.35,0.55,4.15,10,initial,36.05,296,328,361,393,425,9,9,9,9,9,,,,,,,4,0,4,0,0,42,42,46,,,,,,,,,,,,num_4,3.165826400014339,num_4,0.4,1.1,0.4,0.8,15.2822,30.5644,return,2.427821200020844,,,,,,,,,,,,,,,,,717,24,female,up_down_width,2024-08-27_15h59.33.664,exp1,2023.1.0,59.91723033728238,
,,,,,,,,,,,,,,,,5,8.35,9.175,10,10.825,11.65,0.8250000000000001,0.275,0.55,3.85,10,match,36.05,301,331,361,390,420,9,9,9,9,9,,,,,,,4,0,4,0,0,43,43,18,,,,,,,,,,,,num_5,1.1245521000237204,num_5,0.25,0.4,0.35,0.7,13.37193,26.74385,return,4.48042870000063,,,,,,,,,,,,,,,,,717,24,female,up_down_width,2024-08-27_15h59.33.664,exp1,2023.1.0,59.91723033728238,
,,,,,,,,,,,,,,,,4,8.9,9.633333333333333,10.366666666666667,11.1,0,0.7333333333333334,0.4833333333333334,0.25,2.45,10,match,36.05,321,347,374,400,0,9,9,9,9,0,,,,,,,4,0,4,0,0,44,44,3,,,,,,,,,,,,num_4,1.0124591000203509,num_4,0.45,1.3,0.4,0.7,15.2822,26.74385,return,3.163291200020467,,,,,,,,,,,,,,,,,717,24,female,up_down_width,2024-08-27_15h59.33.664,exp1,2023.1.0,59.91723033728238,
,,,,,,,,,,,,,,,,4,8.35,9.45,10.55,11.65,0,1.1,0.55,0.55,3.8500000000000005,10,initial,36.05,301,341,380,420,0,9,9,9,9,0,,,,,,,4,0,4,0,0,45,45,17,,,,,,,,,,,,num_4,1.2638611000147648,num_4,0.45,0.5,0.45,0.9,17.19248,34.38495,return,2.1552084000140894,,,,,,,,,,,,,,,,,717,24,female,up_down_width,2024-08-27_15h59.33.664,exp1,2023.1.0,59.91723033728238,
,,,,,,,,,,,,,,,,3,8.9,10,11.1,0,0,1.1,0.7000000000000001,0.4,2.6000000000000005,10,initial,36.05,321,361,400,0,0,9,9,9,0,0,,,,,,,4,0,4,0,0,46,46,4,,,,,,,,,,,,num_2,0.9423860000097193,num_2,0.55,0.8,0.5,1.3,19.10275,49.66716,return,2.999589700018987,,,,,,,,,,,,,,,,,717,24,female,up_down_width,2024-08-27_15h59.33.664,exp1,2023.1.0,59.91723033728238,
,,,,,,,,,,,,,,,,4,8.65,9.55,10.45,11.35,0,0.9,0.5,0.4,3.1,10,initial,36.05,312,344,377,409,0,9,9,9,9,0,,,,,,,4,0,4,0,0,47,47,32,,,,,,,,,,,,num_2,0.9730463000159943,num_2,0.2,0.8,0.39999999999999997,1.2,15.2822,45.8466,return,3.16670790000353,,,,,,,,,,,,,,,,,717,24,female,up_down_width,2024-08-27_15h59.33.664,exp1,2023.1.0,59.91723033728238,
,,,,,,,,,,,,,,,,4,8.35,9.45,10.55,11.65,0,1.1,0.7000000000000001,0.4,3.7,10,initial,36.05,301,341,380,420,0,9,9,9,9,0,,,,,,,4,0,4,0,0,48,48,21,,,,,,,,,,,,num_4,1.4560293000249658,num_4,0.4,1.3,0.35000000000000003,1.0,13.37193,38.2055,return,2.2080359000101453,,,,,,,,,,,,,,,,,717,24,female,up_down_width,2024-08-27_15h59.33.664,exp1,2023.1.0,59.91723033728238,
,,,,,,,,,,,,,,,,3,8.2,10,11.8,0,0,1.8,1.55,0.25,3.85,10,match,36.05,296,361,425,0,0,9,9,9,0,0,,,,,,,4,0,4,0,0,49,49,49,,,,,,,,,,,,num_2,1.140558900005999,num_2,0.55,0.8,0.25000000000000006,2.0,9.55138,76.41101,return,4.949608000009903,,,,,,,,,,,,,,,,,717,24,female,up_down_width,2024-08-27_15h59.33.664,exp1,2023.1.0,59.91723033728238,
,,,,,,,,,,,,,,,,5,7.8,8.9,10,11.1,12.2,1.1,0.7000000000000001,0.4,4.800000000000001,10,initial,36.05,281,321,361,400,440,9,9,9,9,9,,,,,,,4,0,4,0,0,50,50,38,,,,,,,,,,,,num_4,1.1233929000154603,num_4,0.5,0.8,0.20000000000000007,1.4,7.6411,53.48771,return,5.061381900013657,,,,,,,,,,,,,,,,,717,24,female,up_down_width,2024-08-27_15h59.33.664,exp1,2023.1.0,59.91723033728238,
,,,,,,,,,,,,,,,,5,8.6,9.3,10,10.7,11.4,0.7,0.29999999999999993,0.4,3.1999999999999997,10,initial,36.05,310,335,361,386,411,9,9,9,9,9,,,,,,,4,0,4,0,0,51,51,44,,,,,,,,,,,,num_4,1.0425428000162356,num_4,0.2,1.1,0.39999999999999997,1.0,15.2822,38.2055,return,3.920008200017037,,,,,,,,,,,,,,,,,717,24,female,up_down_width,2024-08-27_15h59.33.664,exp1,2023.1.0,59.91723033728238,
,,,,,,,,,,,,,,,,,,,,,,,,,,,,,,,,,,,,,,,,,,,,,4,0,4,0,,,,,,,,,,,,,,,,,,,,,,,,,,,,,2468.6338778999925,2468.6338778999925,2468.6338778999925,,,,,,,,,,,,717,24,female,up_down_width,2024-08-27_15h59.33.664,exp1,2023.1.0,59.91723033728238,
,,,,,,,,,,,,,,,,3,8.6,10,11.4,0,0,1.4,0.85,0.55,3.35,10,match,36.05,310,361,411,0,0,9,9,9,0,0,,,,,,,5,0,5,0,0,0,0,41,,,,,,,,,,,,num_2,0.9572023000073386,num_2,0.2,1.2,0.44999999999999996,0.9,17.19248,34.38495,return,4.736683500013896,,,,,,,,,,,,,,,,,717,24,female,up_down_width,2024-08-27_15h59.33.664,exp1,2023.1.0,59.91723033728238,
,,,,,,,,,,,,,,,,4,9.1,9.7,10.3,10.9,0,0.5999999999999999,0.3499999999999999,0.25,2.05,10,match,36.05,328,350,371,393,0,9,9,9,9,0,,,,,,,5,0,5,0,0,1,1,14,,,,,,,,,,,,num_3,1.0457322000147542,num_3,0.35,0.6,0.3,0.8,11.46165,30.5644,return,3.017937000025995,,,,,,,,,,,,,,,,,717,24,female,up_down_width,2024-08-27_15h59.33.664,exp1,2023.1.0,59.91723033728238,
,,,,,,,,,,,,,,,,5,8.35,9.175,10,10.825,11.65,0.8250000000000001,0.275,0.55,3.85,10,match,36.05,301,331,361,390,420,9,9,9,9,9,,,,,,,5,0,5,0,0,2,2,18,,,,,,,,,,,,num_4,1.019397400013986,num_4,0.25,0.9,0.39999999999999997,0.8,15.2822,30.5644,return,5.788250500016147,,,,,,,,,,,,,,,,,717,24,female,up_down_width,2024-08-27_15h59.33.664,exp1,2023.1.0,59.91723033728238,
,,,,,,,,,,,,,,,,3,7.8,10,12.2,0,0,2.2,1.65,0.55,4.95,10,match,36.05,281,361,440,0,0,9,9,9,0,0,,,,,,,5,0,5,0,0,3,3,35,,,,,,,,,,,,num_3,0.8487515000015264,num_3,0.35,0.7,0.35,1.1,13.37193,42.02605,return,5.097655000019586,,,,,,,,,,,,,,,,,717,24,female,up_down_width,2024-08-27_15h59.33.664,exp1,2023.1.0,59.91723033728238,
,,,,,,,,,,,,,,,,4,8.65,9.55,10.45,11.35,0,0.9,0.35,0.55,3.25,10,initial,36.05,312,344,377,409,0,9,9,9,9,0,,,,,,,5,0,5,0,0,4,4,28,,,,,,,,,,,,num_3,1.1443106000078842,num_3,0.4,0.8,0.4,1.0,15.2822,38.2055,return,2.212388900006772,,,,,,,,,,,,,,,,,717,24,female,up_down_width,2024-08-27_15h59.33.664,exp1,2023.1.0,59.91723033728238,
,,,,,,,,,,,,,,,,3,8.2,10,11.8,0,0,1.8,1.25,0.55,4.15,10,match,36.05,296,361,425,0,0,9,9,9,0,0,,,,,,,5,0,5,0,0,5,5,47,,,,,,,,,,,,num_2,1.075440200016601,num_2,0.35,0.4,0.35,1.4,13.37193,53.48771,return,4.82278950001637,,,,,,,,,,,,,,,,,717,24,female,up_down_width,2024-08-27_15h59.33.664,exp1,2023.1.0,59.91723033728238,
,,,,,,,,,,,,,,,,4,8.9,9.633333333333333,10.366666666666667,11.1,0,0.7333333333333334,0.4833333333333334,0.25,2.45,10,match,36.05,321,347,374,400,0,9,9,9,9,0,,,,,,,5,0,5,0,0,6,6,3,,,,,,,,,,,,num_3,1.518417800005409,num_3,0.25,0.7,0.2,0.95,7.6411,36.29523,return,4.497832900015055,,,,,,,,,,,,,,,,,717,24,female,up_down_width,2024-08-27_15h59.33.664,exp1,2023.1.0,59.91723033728238,
,,,,,,,,,,,,,,,,4,8.95,9.65,10.35,11.05,0,0.7,0.29999999999999993,0.4,2.5,10,initial,36.05,323,348,373,398,0,9,9,9,9,0,,,,,,,5,0,5,0,0,7,7,26,,,,,,,,,,,,num_3,1.3383263000141596,num_3,0.3,1.2,0.3,0.75,11.46165,28.65413,return,4.416174000012688,,,,,,,,,,,,,,,,,717,24,female,up_down_width,2024-08-27_15h59.33.664,exp1,2023.1.0,59.91723033728238,
,,,,,,,,,,,,,,,,3,7.800000000000001,10,12.2,0,0,2.1999999999999997,1.7999999999999998,0.4,4.8,10,match,36.05,281,361,440,0,0,9,9,9,0,0,,,,,,,5,0,5,0,0,8,8,39,,,,,,,,,,,,num_2,0.9247406000213232,num_2,0.3,1.2,0.25,2.2,9.55138,84.05211,return,4.368914100006805,,,,,,,,,,,,,,,,,717,24,female,up_down_width,2024-08-27_15h59.33.664,exp1,2023.1.0,59.91723033728238,
