amount_p,posx1_p,posx2_p,posx3_p,posx4_p,posx5_p,center_to_center_p,edge_to_edge_p,w_p,stim_lengt_p,eccentricity_p,line1_p,line2_p,line3_p,line4_p,line5_p,amount,posx1,posx2,posx3,posx4,posx5,center_to_center,edge_to_edge,w,stim_length,eccentricity,trial_type,deg_to_pix_index,posx1_in_pix,posx2_in_pix,posx3_in_pix,posx4_in_pix,posx5_in_pix,line1,line2,line3,line4,line5,posx,setsize_cobdi,trials.thisRepN,trials.thisTrialN,trials.thisN,trials.thisIndex,blocks.thisRepN,blocks.thisTrialN,blocks.thisN,blocks.thisIndex,loop.thisRepN,loop.thisTrialN,loop.thisN,loop.thisIndex,first.thisRepN,first.thisTrialN,first.thisN,first.thisIndex,second.thisRepN,second.thisTrialN,second.thisN,second.thisIndex,key_resp_3.started,key_resp_3.keys,key_resp_3.rt,key_resp.keys,key_resp.rt,response,starting_width_deg,starting_space_deg,response_width_degree,response_spacing_degree,response_width_pixel,response_spacing_pixel,next_5.keys,next_5.rt,key_resp_4.keys,key_resp_4.rt,text_3.started,text_4.started,key_resp_2.started,text_2.started,key_resp_2.keys,key_resp_2.rt,adjusting.started,next.keys,next.rt,text_control2.started,key_resp.started,key_resp.corr,text_bye.started,text_bye.stopped,participant,age,gender,resp_group,date,expName,psychopyVersion,frameRate,
,,,,,,,,,,,,,,,,,,,,,,,,,,,,,,,,,,,,,,,,,,,,,,,,,,,,,,,,,,,,,127.21623189999082,c,106.30293949999032,,,,,,,,,,,,,,,,,,,,,,,,,,,,718,22,female,left_right_width,2024-08-27_17h19.24.984,exp1,2023.1.0,59.99692815658768,
5,8.6,9.3,10,10.7,11.4,0.7,0.29999999999999993,0.4,3.1999999999999997,10,9,9,9,9,9,,,,,,,,,,,,,,,,,,,,,,,,,,0,0,0,7,,,,,,,,,,,,,,,,,,,,num_4,3.2153575000120327,num_4,0.4,1.0,0.4,1.0,15.2822,38.2055,return,15.501945600000909,,,,,,,,,,,,,,,,,718,22,female,left_right_width,2024-08-27_17h19.24.984,exp1,2023.1.0,59.99692815658768,
4,9.25,9.75,10.25,10.75,0,0.5,0.25,0.25,1.75,10,9,9,9,9,0,,,,,,,,,,,,,,,,,,,,,,,,,,0,1,1,4,,,,,,,,,,,,,,,,,,,,num_3,3.196207200002391,num_3,0.25,0.6,0.25,0.8,9.55138,30.5644,return,12.933239999998477,,,,,,,,,,,,,,,,,718,22,female,left_right_width,2024-08-27_17h19.24.984,exp1,2023.1.0,59.99692815658768,
4,8.65,9.55,10.45,11.35,0,0.9,0.5,0.4,3.1,10,9,9,9,9,0,,,,,,,,,,,,,,,,,,,,,,,,,,0,2,2,5,,,,,,,,,,,,,,,,,,,,num_4,2.151722800001153,num_4,0.25,0.3,0.25,0.9,9.55138,34.38495,return,3.166289400003734,,,,,,,,,,,,,,,,,718,22,female,left_right_width,2024-08-27_17h19.24.984,exp1,2023.1.0,59.99692815658768,
4,9.5,9.833333333333334,10.166666666666666,10.5,0,0.33333333333333337,0.23333333333333336,0.1,1.1,10,9,9,9,9,0,,,,,,,,,,,,,,,,,,,,,,,,,,0,3,3,3,,,,,,,,,,,,,,,,,,,,num_4,2.1325592000066536,num_4,0.35,0.7,0.10000000000000002,0.3,3.82055,11.46165,return,11.386429299993324,,,,,,,,,,,,,,,,,718,22,female,left_right_width,2024-08-27_17h19.24.984,exp1,2023.1.0,59.99692815658768,
5,9,9.5,10,10.5,11,0.5,0.09999999999999998,0.4,2.4,10,9,9,9,9,9,,,,,,,,,,,,,,,,,,,,,,,,,,0,4,4,8,,,,,,,,,,,,,,,,,,,,num_4,1.9505756000144174,num_4,0.5,0.7,0.5,0.7,19.10275,26.74385,return,4.3656765000050655,,,,,,,,,,,,,,,,,718,22,female,left_right_width,2024-08-27_17h19.24.984,exp1,2023.1.0,59.99692815658768,
5,9.25,9.625,10,10.375,10.75,0.375,0.125,0.25,1.75,10,9,9,9,9,9,,,,,,,,,,,,,,,,,,,,,,,,,,0,5,5,6,,,,,,,,,,,,,,,,,,,,num_4,2.532448600002681,num_4,0.2,1.3,0.2,0.5,7.6411,19.10275,return,5.102128600003198,,,,,,,,,,,,,,,,,718,22,female,left_right_width,2024-08-27_17h19.24.984,exp1,2023.1.0,59.99692815658768,
3,8.2,10,11.8,0,0,1.7999999999999998,1.4,0.4,4,10,9,9,9,0,0,,,,,,,,,,,,,,,,,,,,,,,,,,0,6,6,2,,,,,,,,,,,,,,,,,,,,num_3,1.2696774000069126,num_3,0.25,0.9,0.2,1.2,7.6411,45.8466,return,7.617774900005315,,,,,,,,,,,,,,,,,718,22,female,left_right_width,2024-08-27_17h19.24.984,exp1,2023.1.0,59.99692815658768,
3,9.5,10,10.5,0,0,0.5,0.4,0.1,1.1,10,9,9,9,0,0,,,,,,,,,,,,,,,,,,,,,,,,,,0,7,7,0,,,,,,,,,,,,,,,,,,,,num_3,1.7588803999969969,num_3,0.5,0.9,0.10000000000000007,0.7,3.82055,26.74385,return,4.466413100002683,,,,,,,,,,,,,,,,,718,22,female,left_right_width,2024-08-27_17h19.24.984,exp1,2023.1.0,59.99692815658768,
3,9,10,11,0,0,1,0.9,0.1,2.1,10,9,9,9,0,0,,,,,,,,,,,,,,,,,,,,,,,,,,0,8,8,1,,,,,,,,,,,,,,,,,,,,num_3,2.1237721999932546,num_3,0.5,0.6,0.10000000000000007,0.8,3.82055,30.5644,return,8.305033299999195,,,,,,,,,,,,,,,,,718,22,female,left_right_width,2024-08-27_17h19.24.984,exp1,2023.1.0,59.99692815658768,
,,,,,,,,,,,,,,,,,,,,,,,,,,,,,,,,,,,,,,,,,,,,,,,,,,,,,,,,,,,,,,,,,,,,,,,,,,,c,75.09436540000024,,,,,,,,,,,,,,,718,22,female,left_right_width,2024-08-27_17h19.24.984,exp1,2023.1.0,59.99692815658768,
,,,,,,,,,,,,,,,,3,8.2,10,11.8,0,0,1.8,1.25,0.55,4.15,10,match,36.05,296,361,425,0,0,9,9,9,0,0,,,,,,,0,0,0,0,0,0,0,47,,,,,,,,,,,,num_3,1.3868365999951493,num_3,0.45,1.1,0.4,1.25,15.2822,47.75688,return,4.1300672000070335,,,,,,,,,,,,,,,,,718,22,female,left_right_width,2024-08-27_17h19.24.984,exp1,2023.1.0,59.99692815658768,
,,,,,,,,,,,,,,,,3,9.1,10,10.9,0,0,0.9,0.5,0.4,2.2,10,initial,36.05,328,361,393,0,0,9,9,9,0,0,,,,,,,0,0,0,0,0,1,1,15,,,,,,,,,,,,num_4,1.239735399998608,num_4,0.3,1.1,0.3,1.1,11.46165,42.02605,return,1.0757863000035286,,,,,,,,,,,,,,,,,718,22,female,left_right_width,2024-08-27_17h19.24.984,exp1,2023.1.0,59.99692815658768,
,,,,,,,,,,,,,,,,4,8.65,9.55,10.45,11.35,0,0.9,0.65,0.25,2.95,10,initial,36.05,312,344,377,409,0,9,9,9,9,0,,,,,,,0,0,0,0,0,2,2,30,,,,,,,,,,,,num_4,1.0090310000086902,num_4,0.25,0.4,0.25,0.8,9.55138,30.5644,return,4.2880966999946395,,,,,,,,,,,,,,,,,718,22,female,left_right_width,2024-08-27_17h19.24.984,exp1,2023.1.0,59.99692815658768,
,,,,,,,,,,,,,,,,3,8.9,10,11.1,0,0,1.1,0.7000000000000001,0.4,2.6000000000000005,10,initial,36.05,321,361,400,0,0,9,9,9,0,0,,,,,,,0,0,0,0,0,3,3,4,,,,,,,,,,,,num_4,1.2147551999951247,num_4,0.2,0.9,0.25,0.7,9.55138,26.74385,return,3.484703200010699,,,,,,,,,,,,,,,,,718,22,female,left_right_width,2024-08-27_17h19.24.984,exp1,2023.1.0,59.99692815658768,
,,,,,,,,,,,,,,,,3,9.1,10,10.9,0,0,0.9,0.35,0.55,2.35,10,initial,36.05,328,361,393,0,0,9,9,9,0,0,,,,,,,0,0,0,0,0,4,4,11,,,,,,,,,,,,num_3,1.1153492000012193,num_3,0.4,0.8,0.5,0.85,19.10275,32.47468,return,2.0573302999982843,,,,,,,,,,,,,,,,,718,22,female,left_right_width,2024-08-27_17h19.24.984,exp1,2023.1.0,59.99692815658768,
,,,,,,,,,,,,,,,,4,9.3,9.766666666666667,10.233333333333333,10.7,0,0.4666666666666667,0.06666666666666665,0.4,1.8,10,match,36.05,335,352,369,386,0,9,9,9,9,0,,,,,,,0,0,0,0,0,5,5,10,,,,,,,,,,,,num_4,6.316149999998743,num_4,0.2,0.5,0.35,0.5,13.37193,19.10275,return,2.0406062999973074,,,,,,,,,,,,,,,,,718,22,female,left_right_width,2024-08-27_17h19.24.984,exp1,2023.1.0,59.99692815658768,
,,,,,,,,,,,,,,,,3,8.6,10,11.4,0,0,1.4,0.85,0.55,3.35,10,match,36.05,310,361,411,0,0,9,9,9,0,0,,,,,,,0,0,0,0,0,6,6,41,,,,,,,,,,,,num_3,0.9827673999971012,num_3,0.4,0.6,0.5,0.9,19.10275,34.38495,return,3.8656660000124248,,,,,,,,,,,,,,,,,718,22,female,left_right_width,2024-08-27_17h19.24.984,exp1,2023.1.0,59.99692815658768,
,,,,,,,,,,,,,,,,4,8.95,9.65,10.35,11.05,0,0.7,0.1499999999999999,0.55,2.65,10,initial,36.05,323,348,373,398,0,9,9,9,9,0,,,,,,,0,0,0,0,0,7,7,23,,,,,,,,,,,,num_3,0.9233911000046646,num_3,0.25,1.2,0.44999999999999996,0.85,17.19248,32.47468,return,5.023563100010506,,,,,,,,,,,,,,,,,718,22,female,left_right_width,2024-08-27_17h19.24.984,exp1,2023.1.0,59.99692815658768,
,,,,,,,,,,,,,,,,5,8.65,9.325,10,10.675,11.35,0.675,0.42500000000000004,0.25,2.95,10,match,36.05,312,336,361,385,409,9,9,9,9,9,,,,,,,0,0,0,0,0,8,8,31,,,,,,,,,,,,num_5,0.9469877000083216,num_5,0.4,0.6,0.4,0.6,15.2822,22.9233,return,0.8572407000028761,,,,,,,,,,,,,,,,,718,22,female,left_right_width,2024-08-27_17h19.24.984,exp1,2023.1.0,59.99692815658768,
,,,,,,,,,,,,,,,,5,8.2,9.1,10,10.9,11.8,0.9,0.5,0.4,4,10,initial,36.05,296,328,361,393,425,9,9,9,9,9,,,,,,,0,0,0,0,0,9,9,50,,,,,,,,,,,,num_5,1.1842926999961492,num_5,0.35,1.0,0.35,1.0,13.37193,38.2055,return,0.7165590000076918,,,,,,,,,,,,,,,,,718,22,female,left_right_width,2024-08-27_17h19.24.984,exp1,2023.1.0,59.99692815658768,
,,,,,,,,,,,,,,,,3,8.525,10,11.475,0,0,1.475,1.225,0.25,3.2,10,match,36.05,307,361,414,0,0,9,9,9,0,0,,,,,,,0,0,0,0,0,10,10,45,,,,,,,,,,,,num_3,0.7263759999914328,num_3,0.35,0.4,0.35,1.1,13.37193,42.02605,return,9.305034600009094,,,,,,,,,,,,,,,,,718,22,female,left_right_width,2024-08-27_17h19.24.984,exp1,2023.1.0,59.99692815658768,
,,,,,,,,,,,,,,,,5,8.6,9.3,10,10.7,11.4,0.7,0.1499999999999999,0.55,3.3499999999999996,10,initial,36.05,310,335,361,386,411,9,9,9,9,9,,,,,,,0,0,0,0,0,11,11,40,,,,,,,,,,,,num_4,1.2017408999963664,num_4,0.25,0.8,0.39999999999999997,0.7,15.2822,26.74385,return,4.32927689999633,,,,,,,,,,,,,,,,,718,22,female,left_right_width,2024-08-27_17h19.24.984,exp1,2023.1.0,59.99692815658768,
,,,,,,,,,,,,,,,,5,7.8,8.9,10,11.1,12.2,1.1,0.55,0.55,4.95,10,initial,36.05,281,321,361,400,440,9,9,9,9,9,,,,,,,0,0,0,0,0,12,12,34,,,,,,,,,,,,num_5,1.2318729999969946,num_5,0.3,0.6,0.39999999999999997,0.8,15.2822,30.5644,return,4.413731699998607,,,,,,,,,,,,,,,,,718,22,female,left_right_width,2024-08-27_17h19.24.984,exp1,2023.1.0,59.99692815658768,
,,,,,,,,,,,,,,,,3,8.2,10,11.8,0,0,1.7999999999999998,1.4,0.4,4,10,match,36.05,296,361,425,0,0,9,9,9,0,0,,,,,,,0,0,0,0,0,13,13,51,,,,,,,,,,,,num_3,0.9344420999987051,num_3,0.3,1.3,0.3,1.6,11.46165,61.12881,return,3.4691413000109605,,,,,,,,,,,,,,,,,718,22,female,left_right_width,2024-08-27_17h19.24.984,exp1,2023.1.0,59.99692815658768,
,,,,,,,,,,,,,,,,5,8.275,9.1375,10,10.8625,11.725,0.8625,0.6125,0.25,3.7,10,match,36.05,298,329,361,392,423,9,9,9,9,9,,,,,,,0,0,0,0,0,14,14,22,,,,,,,,,,,,num_5,1.9162604000011925,num_5,0.2,0.5,0.2,0.5,7.6411,19.10275,return,0.520406900002854,,,,,,,,,,,,,,,,,718,22,female,left_right_width,2024-08-27_17h19.24.984,exp1,2023.1.0,59.99692815658768,
,,,,,,,,,,,,,,,,4,8.65,9.55,10.45,11.35,0,0.9,0.5,0.4,3.1,10,initial,36.05,312,344,377,409,0,9,9,9,9,0,,,,,,,0,0,0,0,0,15,15,32,,,,,,,,,,,,num_4,1.2064112000080058,num_4,0.4,0.8,0.4,0.8,15.2822,30.5644,return,0.8343827000062447,,,,,,,,,,,,,,,,,718,22,female,left_right_width,2024-08-27_17h19.24.984,exp1,2023.1.0,59.99692815658768,
,,,,,,,,,,,,,,,,3,9.3,10,10.7,0,0,0.7,0.44999999999999996,0.25,1.65,10,initial,36.05,335,361,386,0,0,9,9,9,0,0,,,,,,,0,0,0,0,0,16,16,7,,,,,,,,,,,,num_3,0.7684301999979652,num_3,0.25,0.8,0.25,0.75,9.55138,28.65413,return,3.6604998000111664,,,,,,,,,,,,,,,,,718,22,female,left_right_width,2024-08-27_17h19.24.984,exp1,2023.1.0,59.99692815658768,
,,,,,,,,,,,,,,,,4,9.1,9.7,10.3,10.9,0,0.6000000000000001,0.20000000000000004,0.4,2.2,10,match,36.05,328,350,371,393,0,9,9,9,9,0,,,,,,,0,0,0,0,0,17,17,16,,,,,,,,,,,,num_4,2.73546169999463,num_4,0.25,1.0,0.25,0.6,9.55138,22.9233,return,1.7597457000083523,,,,,,,,,,,,,,,,,718,22,female,left_right_width,2024-08-27_17h19.24.984,exp1,2023.1.0,59.99692815658768,
,,,,,,,,,,,,,,,,5,8.95,9.475,10,10.525,11.05,0.525,0.275,0.25,2.35,10,match,36.05,323,342,361,379,398,9,9,9,9,9,,,,,,,0,0,0,0,0,18,18,25,,,,,,,,,,,,num_5,0.7796402999956626,num_5,0.45,0.5,0.35000000000000003,0.7,13.37193,26.74385,return,3.6258065000001807,,,,,,,,,,,,,,,,,718,22,female,left_right_width,2024-08-27_17h19.24.984,exp1,2023.1.0,59.99692815658768,
,,,,,,,,,,,,,,,,3,7.800000000000001,10,12.2,0,0,2.1999999999999997,1.7999999999999998,0.4,4.8,10,match,36.05,281,361,440,0,0,9,9,9,0,0,,,,,,,0,0,0,0,0,19,19,39,,,,,,,,,,,,num_3,0.977762000009534,num_3,0.35,1.3,0.3,1.7,11.46165,64.94936,return,4.1971641999989515,,,,,,,,,,,,,,,,,718,22,female,left_right_width,2024-08-27_17h19.24.984,exp1,2023.1.0,59.99692815658768,
,,,,,,,,,,,,,,,,4,8.35,9.45,10.55,11.65,0,1.1,0.55,0.55,3.8500000000000005,10,initial,36.05,301,341,380,420,0,9,9,9,9,0,,,,,,,0,0,0,0,0,20,20,17,,,,,,,,,,,,num_4,1.0590076000080444,num_4,0.2,0.6,0.35,0.9,13.37193,34.38495,return,3.143945599993458,,,,,,,,,,,,,,,,,718,22,female,left_right_width,2024-08-27_17h19.24.984,exp1,2023.1.0,59.99692815658768,
,,,,,,,,,,,,,,,,5,7.8,8.9,10,11.1,12.2,1.1,0.8500000000000001,0.25,4.65,10,initial,36.05,281,321,361,400,440,9,9,9,9,9,,,,,,,0,0,0,0,0,21,21,36,,,,,,,,,,,,num_5,1.3222039000102086,num_5,0.3,1.1,0.2,1.05,7.6411,40.11578,return,3.502330700008315,,,,,,,,,,,,,,,,,718,22,female,left_right_width,2024-08-27_17h19.24.984,exp1,2023.1.0,59.99692815658768,
,,,,,,,,,,,,,,,,3,9.3,10,10.7,0,0,0.7,0.1499999999999999,0.55,1.95,10,initial,36.05,335,361,386,0,0,9,9,9,0,0,,,,,,,0,0,0,0,0,22,22,6,,,,,,,,,,,,num_4,0.9982654999912484,num_4,0.55,1.1,0.55,0.8,21.01303,30.5644,return,1.8402138000092236,,,,,,,,,,,,,,,,,718,22,female,left_right_width,2024-08-27_17h19.24.984,exp1,2023.1.0,59.99692815658768,
,,,,,,,,,,,,,,,,3,8.9,10,11.1,0,0,1.1,0.8500000000000001,0.25,2.45,10,initial,36.05,321,361,400,0,0,9,9,9,0,0,,,,,,,0,0,0,0,0,23,23,2,,,,,,,,,,,,num_3,0.8272684999974445,num_3,0.35,0.6,0.3,0.8,11.46165,30.5644,return,3.7023426000087056,,,,,,,,,,,,,,,,,718,22,female,left_right_width,2024-08-27_17h19.24.984,exp1,2023.1.0,59.99692815658768,
,,,,,,,,,,,,,,,,5,8.2,9.1,10,10.9,11.8,0.9,0.65,0.25,3.85,10,initial,36.05,296,328,361,393,425,9,9,9,9,9,,,,,,,0,0,0,0,0,24,24,48,,,,,,,,,,,,num_5,0.9449727000028361,num_5,0.5,1.1,0.35000000000000003,1.05,13.37193,40.11578,return,3.398837300002924,,,,,,,,,,,,,,,,,718,22,female,left_right_width,2024-08-27_17h19.24.984,exp1,2023.1.0,59.99692815658768,
,,,,,,,,,,,,,,,,3,8.6,10,11.4,0,0,1.4,1.15,0.25,3.05,10,match,36.05,310,361,411,0,0,9,9,9,0,0,,,,,,,0,0,0,0,0,25,25,43,,,,,,,,,,,,num_3,0.9528147000091849,num_3,0.5,0.7,0.30000000000000004,1.2,11.46165,45.8466,return,5.773044199988362,,,,,,,,,,,,,,,,,718,22,female,left_right_width,2024-08-27_17h19.24.984,exp1,2023.1.0,59.99692815658768,
,,,,,,,,,,,,,,,,4,9.1,9.7,10.3,10.9,0,0.5999999999999999,0.3499999999999999,0.25,2.05,10,match,36.05,328,350,371,393,0,9,9,9,9,0,,,,,,,0,0,0,0,0,26,26,14,,,,,,,,,,,,num_5,1.2466854000085732,num_5,0.3,0.7,0.3,0.7,11.46165,26.74385,return,0.8090498000092339,,,,,,,,,,,,,,,,,718,22,female,left_right_width,2024-08-27_17h19.24.984,exp1,2023.1.0,59.99692815658768,
,,,,,,,,,,,,,,,,5,8.95,9.475,10,10.525,11.05,0.525,0.125,0.4,2.5,10,match,36.05,323,342,361,379,398,9,9,9,9,9,,,,,,,0,0,0,0,0,27,27,27,,,,,,,,,,,,num_5,0.8915129999950295,num_5,0.35,1.3,0.35,0.8,13.37193,30.5644,return,8.417927000002237,,,,,,,,,,,,,,,,,718,22,female,left_right_width,2024-08-27_17h19.24.984,exp1,2023.1.0,59.99692815658768,
,,,,,,,,,,,,,,,,4,8.95,9.65,10.35,11.05,0,0.7,0.44999999999999996,0.25,2.3499999999999996,10,initial,36.05,323,348,373,398,0,9,9,9,9,0,,,,,,,0,0,0,0,0,28,28,24,,,,,,,,,,,,num_4,1.0808176999998977,num_4,0.25,1.1,0.25,0.6,9.55138,22.9233,return,1.7540196999907494,,,,,,,,,,,,,,,,,718,22,female,left_right_width,2024-08-27_17h19.24.984,exp1,2023.1.0,59.99692815658768,
,,,,,,,,,,,,,,,,3,7.8,10,12.2,0,0,2.2,1.9500000000000002,0.25,4.65,10,match,36.05,281,361,440,0,0,9,9,9,0,0,,,,,,,0,0,0,0,0,29,29,37,,,,,,,,,,,,num_3,0.8159402000019327,num_3,0.4,0.9,0.25000000000000006,1.5,9.55138,57.30826,return,6.987541700000293,,,,,,,,,,,,,,,,,718,22,female,left_right_width,2024-08-27_17h19.24.984,exp1,2023.1.0,59.99692815658768,
,,,,,,,,,,,,,,,,4,8.35,9.45,10.55,11.65,0,1.1,0.7000000000000001,0.4,3.7,10,initial,36.05,301,341,380,420,0,9,9,9,9,0,,,,,,,0,0,0,0,0,30,30,21,,,,,,,,,,,,num_4,0.912986399998772,num_4,0.3,0.8,0.3,1.0,11.46165,38.2055,return,2.2314288999914424,,,,,,,,,,,,,,,,,718,22,female,left_right_width,2024-08-27_17h19.24.984,exp1,2023.1.0,59.99692815658768,
,,,,,,,,,,,,,,,,5,7.8,8.9,10,11.1,12.2,1.1,0.7000000000000001,0.4,4.800000000000001,10,initial,36.05,281,321,361,400,440,9,9,9,9,9,,,,,,,0,0,0,0,0,31,31,38,,,,,,,,,,,,num_4,0.7896156000060728,num_4,0.55,0.9,0.30000000000000004,1.1,11.46165,42.02605,return,4.044569899997441,,,,,,,,,,,,,,,,,718,22,female,left_right_width,2024-08-27_17h19.24.984,exp1,2023.1.0,59.99692815658768,
,,,,,,,,,,,,,,,,4,8.825,9.608333333333333,10.391666666666667,11.175,0,0.7833333333333333,0.5333333333333333,0.25,2.6,10,match,36.05,318,346,375,403,0,9,9,9,9,0,,,,,,,0,0,0,0,0,32,32,5,,,,,,,,,,,,num_4,0.7874590999999782,num_4,0.3,1.3,0.3,1.3,11.46165,49.66716,return,0.7026952000014717,,,,,,,,,,,,,,,,,718,22,female,left_right_width,2024-08-27_17h19.24.984,exp1,2023.1.0,59.99692815658768,
,,,,,,,,,,,,,,,,5,8.6,9.3,10,10.7,11.4,0.7,0.29999999999999993,0.4,3.1999999999999997,10,initial,36.05,310,335,361,386,411,9,9,9,9,9,,,,,,,0,0,0,0,0,33,33,44,,,,,,,,,,,,num_5,0.910911800005124,num_5,0.25,0.6,0.35,0.7,13.37193,26.74385,return,2.631073700002162,,,,,,,,,,,,,,,,,718,22,female,left_right_width,2024-08-27_17h19.24.984,exp1,2023.1.0,59.99692815658768,
,,,,,,,,,,,,,,,,4,9.3,9.766666666666667,10.233333333333333,10.7,0,0.4666666666666667,0.21666666666666665,0.25,1.65,10,match,36.05,335,352,369,386,0,9,9,9,9,0,,,,,,,0,0,0,0,0,34,34,8,,,,,,,,,,,,num_4,0.8409360999939963,num_4,0.2,1.1,0.25,0.5,9.55138,19.10275,return,3.669603999995161,,,,,,,,,,,,,,,,,718,22,female,left_right_width,2024-08-27_17h19.24.984,exp1,2023.1.0,59.99692815658768,
,,,,,,,,,,,,,,,,5,8.65,9.325,10,10.675,11.35,0.675,0.275,0.4,3.1,10,match,36.05,312,336,361,385,409,9,9,9,9,9,,,,,,,0,0,0,0,0,35,35,33,,,,,,,,,,,,num_5,0.7111564000078943,num_5,0.45,0.7,0.25000000000000006,0.65,9.55138,24.83358,return,2.5489935999939917,,,,,,,,,,,,,,,,,718,22,female,left_right_width,2024-08-27_17h19.24.984,exp1,2023.1.0,59.99692815658768,
,,,,,,,,,,,,,,,,3,8.2,10,11.8,0,0,1.8,1.55,0.25,3.85,10,match,36.05,296,361,425,0,0,9,9,9,0,0,,,,,,,0,0,0,0,0,36,36,49,,,,,,,,,,,,num_3,0.9407492999889655,num_3,0.35,0.7,0.2,1.2,7.6411,45.8466,return,4.624461799990968,,,,,,,,,,,,,,,,,718,22,female,left_right_width,2024-08-27_17h19.24.984,exp1,2023.1.0,59.99692815658768,
,,,,,,,,,,,,,,,,4,8.9,9.633333333333333,10.366666666666667,11.1,0,0.7333333333333334,0.4833333333333334,0.25,2.45,10,match,36.05,321,347,374,400,0,9,9,9,9,0,,,,,,,0,0,0,0,0,37,37,3,,,,,,,,,,,,num_3,1.1740071000094758,num_3,0.3,0.5,0.2,1.05,7.6411,40.11578,return,5.987958600002457,,,,,,,,,,,,,,,,,718,22,female,left_right_width,2024-08-27_17h19.24.984,exp1,2023.1.0,59.99692815658768,
,,,,,,,,,,,,,,,,4,9.1,9.7,10.3,10.9,0,0.6,0.04999999999999997,0.55,2.35,10,match,36.05,328,350,371,393,0,9,9,9,9,0,,,,,,,0,0,0,0,0,38,38,12,,,,,,,,,,,,num_4,1.0329463000089163,num_4,0.45,1.0,0.45,0.5,17.19248,19.10275,return,4.103510800006916,,,,,,,,,,,,,,,,,718,22,female,left_right_width,2024-08-27_17h19.24.984,exp1,2023.1.0,59.99692815658768,
,,,,,,,,,,,,,,,,4,8.95,9.65,10.35,11.05,0,0.7,0.29999999999999993,0.4,2.5,10,initial,36.05,323,348,373,398,0,9,9,9,9,0,,,,,,,0,0,0,0,0,39,39,26,,,,,,,,,,,,num_4,0.915979099998367,num_4,0.25,1.1,0.35,0.6,13.37193,22.9233,return,2.586935400002403,,,,,,,,,,,,,,,,,718,22,female,left_right_width,2024-08-27_17h19.24.984,exp1,2023.1.0,59.99692815658768,
,,,,,,,,,,,,,,,,4,8.35,9.45,10.55,11.65,0,1.1,0.8500000000000001,0.25,3.5500000000000003,10,initial,36.05,301,341,380,420,0,9,9,9,9,0,,,,,,,0,0,0,0,0,40,40,19,,,,,,,,,,,,num_5,0.8424336000025505,num_5,0.35,1.3,0.25,0.7,9.55138,26.74385,return,5.027921300003072,,,,,,,,,,,,,,,,,718,22,female,left_right_width,2024-08-27_17h19.24.984,exp1,2023.1.0,59.99692815658768,
,,,,,,,,,,,,,,,,3,9.3,10,10.7,0,0,0.7,0.29999999999999993,0.4,1.8,10,initial,36.05,335,361,386,0,0,9,9,9,0,0,,,,,,,0,0,0,0,0,41,41,9,,,,,,,,,,,,num_3,0.7414494999975432,num_3,0.2,1.1,0.39999999999999997,0.65,15.2822,24.83358,return,5.542658599995775,,,,,,,,,,,,,,,,,718,22,female,left_right_width,2024-08-27_17h19.24.984,exp1,2023.1.0,59.99692815658768,
,,,,,,,,,,,,,,,,3,9.1,10,10.9,0,0,0.9,0.65,0.25,2.05,10,initial,36.05,328,361,393,0,0,9,9,9,0,0,,,,,,,0,0,0,0,0,42,42,13,,,,,,,,,,,,num_3,0.8220950000104494,num_3,0.2,0.5,0.35,0.65,13.37193,24.83358,return,2.717779900005553,,,,,,,,,,,,,,,,,718,22,female,left_right_width,2024-08-27_17h19.24.984,exp1,2023.1.0,59.99692815658768,
,,,,,,,,,,,,,,,,5,8.6,9.3,10,10.7,11.4,0.7,0.44999999999999996,0.25,3.05,10,initial,36.05,310,335,361,386,411,9,9,9,9,9,,,,,,,0,0,0,0,0,43,43,42,,,,,,,,,,,,num_4,0.8722951999952784,num_4,0.45,0.9,0.30000000000000004,0.7,11.46165,26.74385,return,2.945214200008195,,,,,,,,,,,,,,,,,718,22,female,left_right_width,2024-08-27_17h19.24.984,exp1,2023.1.0,59.99692815658768,
,,,,,,,,,,,,,,,,4,8.65,9.55,10.45,11.35,0,0.9,0.35,0.55,3.25,10,initial,36.05,312,344,377,409,0,9,9,9,9,0,,,,,,,0,0,0,0,0,44,44,28,,,,,,,,,,,,num_4,3.0236645999975735,num_4,0.45,1.3,0.45,0.7,17.19248,26.74385,return,2.9969209999981103,,,,,,,,,,,,,,,,,718,22,female,left_right_width,2024-08-27_17h19.24.984,exp1,2023.1.0,59.99692815658768,
,,,,,,,,,,,,,,,,4,8.9,9.633333333333333,10.366666666666667,11.1,0,0.7333333333333333,0.18333333333333326,0.55,2.75,10,match,36.05,321,347,374,400,0,9,9,9,9,0,,,,,,,0,0,0,0,0,45,45,1,,,,,,,,,,,,num_4,0.7841812999977265,num_4,0.2,0.8,0.39999999999999997,0.6,15.2822,22.9233,return,2.480598699999973,,,,,,,,,,,,,,,,,718,22,female,left_right_width,2024-08-27_17h19.24.984,exp1,2023.1.0,59.99692815658768,
,,,,,,,,,,,,,,,,5,8.65,9.325,10,10.675,11.35,0.675,0.125,0.55,3.25,10,match,36.05,312,336,361,385,409,9,9,9,9,9,,,,,,,0,0,0,0,0,46,46,29,,,,,,,,,,,,num_5,0.9850078000017675,num_5,0.25,0.4,0.39999999999999997,0.5,15.2822,19.10275,return,2.348842399995192,,,,,,,,,,,,,,,,,718,22,female,left_right_width,2024-08-27_17h19.24.984,exp1,2023.1.0,59.99692815658768,
,,,,,,,,,,,,,,,,5,8.35,9.175,10,10.825,11.65,0.8250000000000001,0.275,0.55,3.85,10,match,36.05,301,331,361,390,420,9,9,9,9,9,,,,,,,0,0,0,0,0,47,47,18,,,,,,,,,,,,num_5,0.8428164999932051,num_5,0.3,0.4,0.39999999999999997,0.7,15.2822,26.74385,return,3.9553190000005998,,,,,,,,,,,,,,,,,718,22,female,left_right_width,2024-08-27_17h19.24.984,exp1,2023.1.0,59.99692815658768,
,,,,,,,,,,,,,,,,3,7.8,10,12.2,0,0,2.2,1.65,0.55,4.95,10,match,36.05,281,361,440,0,0,9,9,9,0,0,,,,,,,0,0,0,0,0,48,48,35,,,,,,,,,,,,num_3,1.3989887000061572,num_3,0.25,0.3,0.39999999999999997,0.85,15.2822,32.47468,return,3.9658695999969495,,,,,,,,,,,,,,,,,718,22,female,left_right_width,2024-08-27_17h19.24.984,exp1,2023.1.0,59.99692815658768,
,,,,,,,,,,,,,,,,3,8.9,10,11.1,0,0,1.1,0.55,0.55,2.75,10,initial,36.05,321,361,400,0,0,9,9,9,0,0,,,,,,,0,0,0,0,0,49,49,0,,,,,,,,,,,,num_3,0.7907406000012998,num_3,0.25,0.5,0.25,0.95,9.55138,36.29523,return,9.376544400001876,,,,,,,,,,,,,,,,,718,22,female,left_right_width,2024-08-27_17h19.24.984,exp1,2023.1.0,59.99692815658768,
,,,,,,,,,,,,,,,,5,8.35,9.175,10,10.825,11.65,0.825,0.575,0.25,3.55,10,match,36.05,301,331,361,390,420,9,9,9,9,9,,,,,,,0,0,0,0,0,50,50,20,,,,,,,,,,,,num_5,0.7695402999961516,num_5,0.2,0.5,0.2,0.85,7.6411,32.47468,return,3.919460799996159,,,,,,,,,,,,,,,,,718,22,female,left_right_width,2024-08-27_17h19.24.984,exp1,2023.1.0,59.99692815658768,
,,,,,,,,,,,,,,,,5,8.2,9.1,10,10.9,11.8,0.9,0.35,0.55,4.15,10,initial,36.05,296,328,361,393,425,9,9,9,9,9,,,,,,,0,0,0,0,0,51,51,46,,,,,,,,,,,,num_5,0.8140947000065353,num_5,0.2,0.6,0.35,0.85,13.37193,32.47468,return,2.474471399997128,,,,,,,,,,,,,,,,,718,22,female,left_right_width,2024-08-27_17h19.24.984,exp1,2023.1.0,59.99692815658768,
,,,,,,,,,,,,,,,,,,,,,,,,,,,,,,,,,,,,,,,,,,,,,0,0,0,0,,,,,,,,,,,,,,,,,,,,,,,,,,,,,750.6155319999962,750.6155319999962,750.6155319999962,,,,,,,,,,,,718,22,female,left_right_width,2024-08-27_17h19.24.984,exp1,2023.1.0,59.99692815658768,
,,,,,,,,,,,,,,,,3,8.525,10,11.475,0,0,1.475,1.225,0.25,3.2,10,match,36.05,307,361,414,0,0,9,9,9,0,0,,,,,,,1,0,1,0,0,0,0,45,,,,,,,,,,,,num_3,0.8363526000030106,num_3,0.55,0.9,0.25000000000000006,1.15,9.55138,43.93633,return,3.442231900000479,,,,,,,,,,,,,,,,,718,22,female,left_right_width,2024-08-27_17h19.24.984,exp1,2023.1.0,59.99692815658768,
,,,,,,,,,,,,,,,,3,8.2,10,11.8,0,0,1.8,1.55,0.25,3.85,10,match,36.05,296,361,425,0,0,9,9,9,0,0,,,,,,,1,0,1,0,0,1,1,49,,,,,,,,,,,,num_3,0.7782382000004873,num_3,0.35,0.6,0.2,1.2,7.6411,45.8466,return,5.51410910001141,,,,,,,,,,,,,,,,,718,22,female,left_right_width,2024-08-27_17h19.24.984,exp1,2023.1.0,59.99692815658768,
,,,,,,,,,,,,,,,,4,8.65,9.55,10.45,11.35,0,0.9,0.65,0.25,2.95,10,initial,36.05,312,344,377,409,0,9,9,9,9,0,,,,,,,1,0,1,0,0,2,2,30,,,,,,,,,,,,num_4,0.8464845999988029,num_4,0.25,1.2,0.15000000000000002,1.2,5.73083,45.8466,return,1.5419227000093088,,,,,,,,,,,,,,,,,718,22,female,left_right_width,2024-08-27_17h19.24.984,exp1,2023.1.0,59.99692815658768,
,,,,,,,,,,,,,,,,3,8.6,10,11.4,0,0,1.4,1.15,0.25,3.05,10,match,36.05,310,361,411,0,0,9,9,9,0,0,,,,,,,1,0,1,0,0,3,3,43,,,,,,,,,,,,num_3,0.7507049999985611,num_3,0.55,0.9,0.15000000000000008,1.05,5.73083,40.11578,return,4.316963100005523,,,,,,,,,,,,,,,,,718,22,female,left_right_width,2024-08-27_17h19.24.984,exp1,2023.1.0,59.99692815658768,
,,,,,,,,,,,,,,,,5,8.35,9.175,10,10.825,11.65,0.8250000000000001,0.275,0.55,3.85,10,match,36.05,301,331,361,390,420,9,9,9,9,9,,,,,,,1,0,1,0,0,4,4,18,,,,,,,,,,,,num_4,0.6884915999980876,num_4,0.45,0.6,0.4,0.9,15.2822,34.38495,return,3.1688132000126643,,,,,,,,,,,,,,,,,718,22,female,left_right_width,2024-08-27_17h19.24.984,exp1,2023.1.0,59.99692815658768,
,,,,,,,,,,,,,,,,3,8.2,10,11.8,0,0,1.7999999999999998,1.4,0.4,4,10,match,36.05,296,361,425,0,0,9,9,9,0,0,,,,,,,1,0,1,0,0,5,5,51,,,,,,,,,,,,num_3,0.5747847000020556,num_3,0.25,1,0.3,1.1,11.46165,42.02605,return,2.3717579999938607,,,,,,,,,,,,,,,,,718,22,female,left_right_width,2024-08-27_17h19.24.984,exp1,2023.1.0,59.99692815658768,
,,,,,,,,,,,,,,,,4,8.35,9.45,10.55,11.65,0,1.1,0.8500000000000001,0.25,3.5500000000000003,10,initial,36.05,301,341,380,420,0,9,9,9,9,0,,,,,,,1,0,1,0,0,6,6,19,,,,,,,,,,,,num_4,0.7354754999978468,num_4,0.45,1.0,0.20000000000000007,1.0,7.6411,38.2055,return,1.8676759000081802,,,,,,,,,,,,,,,,,718,22,female,left_right_width,2024-08-27_17h19.24.984,exp1,2023.1.0,59.99692815658768,
,,,,,,,,,,,,,,,,5,8.275,9.1375,10,10.8625,11.725,0.8625,0.6125,0.25,3.7,10,match,36.05,298,329,361,392,423,9,9,9,9,9,,,,,,,1,0,1,0,0,7,7,22,,,,,,,,,,,,num_5,0.7777200999989873,num_5,0.3,0.8,0.2,0.8,7.6411,30.5644,return,2.9822266999981366,,,,,,,,,,,,,,,,,718,22,female,left_right_width,2024-08-27_17h19.24.984,exp1,2023.1.0,59.99692815658768,
,,,,,,,,,,,,,,,,3,9.1,10,10.9,0,0,0.9,0.5,0.4,2.2,10,initial,36.05,328,361,393,0,0,9,9,9,0,0,,,,,,,1,0,1,0,0,8,8,15,,,,,,,,,,,,num_3,0.6826834000094095,num_3,0.5,0.7,0.5,0.7,19.10275,26.74385,return,0.5718275999970501,,,,,,,,,,,,,,,,,718,22,female,left_right_width,2024-08-27_17h19.24.984,exp1,2023.1.0,59.99692815658768,
,,,,,,,,,,,,,,,,4,8.65,9.55,10.45,11.35,0,0.9,0.5,0.4,3.1,10,initial,36.05,312,344,377,409,0,9,9,9,9,0,,,,,,,1,0,1,0,0,9,9,32,,,,,,,,,,,,num_4,1.00130019999051,num_4,0.25,0.8,0.39999999999999997,0.8,15.2822,30.5644,return,1.5832457999931648,,,,,,,,,,,,,,,,,718,22,female,left_right_width,2024-08-27_17h19.24.984,exp1,2023.1.0,59.99692815658768,
,,,,,,,,,,,,,,,,3,9.3,10,10.7,0,0,0.7,0.29999999999999993,0.4,1.8,10,initial,36.05,335,361,386,0,0,9,9,9,0,0,,,,,,,1,0,1,0,0,10,10,9,,,,,,,,,,,,num_3,0.7083208999974886,num_3,0.25,0.9,0.39999999999999997,0.9,15.2822,34.38495,return,1.4091133000038099,,,,,,,,,,,,,,,,,718,22,female,left_right_width,2024-08-27_17h19.24.984,exp1,2023.1.0,59.99692815658768,
,,,,,,,,,,,,,,,,4,8.65,9.55,10.45,11.35,0,0.9,0.35,0.55,3.25,10,initial,36.05,312,344,377,409,0,9,9,9,9,0,,,,,,,1,0,1,0,0,11,11,28,,,,,,,,,,,,num_4,0.7883683999971254,num_4,0.35,0.5,0.44999999999999996,0.8,17.19248,30.5644,return,2.7720496999972966,,,,,,,,,,,,,,,,,718,22,female,left_right_width,2024-08-27_17h19.24.984,exp1,2023.1.0,59.99692815658768,
,,,,,,,,,,,,,,,,4,9.1,9.7,10.3,10.9,0,0.6000000000000001,0.20000000000000004,0.4,2.2,10,match,36.05,328,350,371,393,0,9,9,9,9,0,,,,,,,1,0,1,0,0,12,12,16,,,,,,,,,,,,num_4,0.8625115999893751,num_4,0.45,1.1,0.45,0.8,17.19248,30.5644,return,3.6533181999984663,,,,,,,,,,,,,,,,,718,22,female,left_right_width,2024-08-27_17h19.24.984,exp1,2023.1.0,59.99692815658768,
,,,,,,,,,,,,,,,,4,8.35,9.45,10.55,11.65,0,1.1,0.7000000000000001,0.4,3.7,10,initial,36.05,301,341,380,420,0,9,9,9,9,0,,,,,,,1,0,1,0,0,13,13,21,,,,,,,,,,,,num_4,0.7851097999955527,num_4,0.2,1.0,0.35,0.7,13.37193,26.74385,return,3.088958799999091,,,,,,,,,,,,,,,,,718,22,female,left_right_width,2024-08-27_17h19.24.984,exp1,2023.1.0,59.99692815658768,
,,,,,,,,,,,,,,,,4,8.95,9.65,10.35,11.05,0,0.7,0.44999999999999996,0.25,2.3499999999999996,10,initial,36.05,323,348,373,398,0,9,9,9,9,0,,,,,,,1,0,1,0,0,14,14,24,,,,,,,,,,,,num_4,0.7821847000013804,num_4,0.4,1.3,0.30000000000000004,0.7,11.46165,26.74385,return,4.08979700000782,,,,,,,,,,,,,,,,,718,22,female,left_right_width,2024-08-27_17h19.24.984,exp1,2023.1.0,59.99692815658768,
,,,,,,,,,,,,,,,,5,8.95,9.475,10,10.525,11.05,0.525,0.275,0.25,2.35,10,match,36.05,323,342,361,379,398,9,9,9,9,9,,,,,,,1,0,1,0,0,15,15,25,,,,,,,,,,,,num_4,0.84955820000323,num_4,0.45,1.2,0.35000000000000003,0.7,13.37193,26.74385,return,3.961367900003097,,,,,,,,,,,,,,,,,718,22,female,left_right_width,2024-08-27_17h19.24.984,exp1,2023.1.0,59.99692815658768,
,,,,,,,,,,,,,,,,4,8.9,9.633333333333333,10.366666666666667,11.1,0,0.7333333333333333,0.18333333333333326,0.55,2.75,10,match,36.05,321,347,374,400,0,9,9,9,9,0,,,,,,,1,0,1,0,0,16,16,1,,,,,,,,,,,,num_5,1.218162500008475,num_5,0.2,0.8,0.3,0.9,11.46165,34.38495,return,2.8872673000005307,,,,,,,,,,,,,,,,,718,22,female,left_right_width,2024-08-27_17h19.24.984,exp1,2023.1.0,59.99692815658768,
,,,,,,,,,,,,,,,,3,8.2,10,11.8,0,0,1.8,1.25,0.55,4.15,10,match,36.05,296,361,425,0,0,9,9,9,0,0,,,,,,,1,0,1,0,0,17,17,47,,,,,,,,,,,,num_3,0.6114525000011781,num_3,0.5,0.6,0.4,1.55,15.2822,59.21853,return,7.7058437000087,,,,,,,,,,,,,,,,,718,22,female,left_right_width,2024-08-27_17h19.24.984,exp1,2023.1.0,59.99692815658768,
,,,,,,,,,,,,,,,,4,9.3,9.766666666666667,10.233333333333333,10.7,0,0.4666666666666667,0.06666666666666665,0.4,1.8,10,match,36.05,335,352,369,386,0,9,9,9,9,0,,,,,,,1,0,1,0,0,18,18,10,,,,,,,,,,,,num_4,1.0207050000026356,num_4,0.55,0.6,0.5,0.6,19.10275,22.9233,return,3.251384400005918,,,,,,,,,,,,,,,,,718,22,female,left_right_width,2024-08-27_17h19.24.984,exp1,2023.1.0,59.99692815658768,
,,,,,,,,,,,,,,,,5,7.8,8.9,10,11.1,12.2,1.1,0.55,0.55,4.95,10,initial,36.05,281,321,361,400,440,9,9,9,9,9,,,,,,,1,0,1,0,0,19,19,34,,,,,,,,,,,,num_5,0.8258518000075128,num_5,0.2,1.3,0.49999999999999994,0.8,19.10275,30.5644,return,7.601734399999259,,,,,,,,,,,,,,,,,718,22,female,left_right_width,2024-08-27_17h19.24.984,exp1,2023.1.0,59.99692815658768,
,,,,,,,,,,,,,,,,5,8.2,9.1,10,10.9,11.8,0.9,0.35,0.55,4.15,10,initial,36.05,296,328,361,393,425,9,9,9,9,9,,,,,,,1,0,1,0,0,20,20,46,,,,,,,,,,,,num_5,0.8402946999995038,num_5,0.5,1.3,0.45,0.75,17.19248,28.65413,return,4.437602999998489,,,,,,,,,,,,,,,,,718,22,female,left_right_width,2024-08-27_17h19.24.984,exp1,2023.1.0,59.99692815658768,
,,,,,,,,,,,,,,,,3,7.800000000000001,10,12.2,0,0,2.1999999999999997,1.7999999999999998,0.4,4.8,10,match,36.05,281,361,440,0,0,9,9,9,0,0,,,,,,,1,0,1,0,0,21,21,39,,,,,,,,,,,,num_3,0.7787803000101121,num_3,0.5,1.2,0.4,1.85,15.2822,70.68018,return,5.431853200003388,,,,,,,,,,,,,,,,,718,22,female,left_right_width,2024-08-27_17h19.24.984,exp1,2023.1.0,59.99692815658768,
,,,,,,,,,,,,,,,,5,7.8,8.9,10,11.1,12.2,1.1,0.8500000000000001,0.25,4.65,10,initial,36.05,281,321,361,400,440,9,9,9,9,9,,,,,,,1,0,1,0,0,22,22,36,,,,,,,,,,,,num_5,1.0029943000117783,num_5,0.25,0.5,0.2,0.9,7.6411,34.38495,return,3.277932900004089,,,,,,,,,,,,,,,,,718,22,female,left_right_width,2024-08-27_17h19.24.984,exp1,2023.1.0,59.99692815658768,
,,,,,,,,,,,,,,,,3,9.1,10,10.9,0,0,0.9,0.65,0.25,2.05,10,initial,36.05,328,361,393,0,0,9,9,9,0,0,,,,,,,1,0,1,0,0,23,23,13,,,,,,,,,,,,num_2,0.897582900011912,num_2,0.3,1.6,0.3,1.6,11.46165,61.12881,return,1.1931574999907752,,,,,,,,,,,,,,,,,718,22,female,left_right_width,2024-08-27_17h19.24.984,exp1,2023.1.0,59.99692815658768,
,,,,,,,,,,,,,,,,4,8.825,9.608333333333333,10.391666666666667,11.175,0,0.7833333333333333,0.5333333333333333,0.25,2.6,10,match,36.05,318,346,375,403,0,9,9,9,9,0,,,,,,,1,0,1,0,0,24,24,5,,,,,,,,,,,,num_4,0.9856310000031954,num_4,0.4,1.3,0.30000000000000004,1.1,11.46165,42.02605,return,3.3239159999939147,,,,,,,,,,,,,,,,,718,22,female,left_right_width,2024-08-27_17h19.24.984,exp1,2023.1.0,59.99692815658768,
,,,,,,,,,,,,,,,,5,8.65,9.325,10,10.675,11.35,0.675,0.42500000000000004,0.25,2.95,10,match,36.05,312,336,361,385,409,9,9,9,9,9,,,,,,,1,0,1,0,0,25,25,31,,,,,,,,,,,,num_4,0.9012083000125131,num_4,0.3,0.6,0.35,0.9,13.37193,34.38495,return,2.365357700007735,,,,,,,,,,,,,,,,,718,22,female,left_right_width,2024-08-27_17h19.24.984,exp1,2023.1.0,59.99692815658768,
,,,,,,,,,,,,,,,,5,7.8,8.9,10,11.1,12.2,1.1,0.7000000000000001,0.4,4.800000000000001,10,initial,36.05,281,321,361,400,440,9,9,9,9,9,,,,,,,1,0,1,0,0,26,26,38,,,,,,,,,,,,num_5,0.8893865999998525,num_5,0.5,1.0,0.4,1.0,15.2822,38.2055,return,2.0211190999980317,,,,,,,,,,,,,,,,,718,22,female,left_right_width,2024-08-27_17h19.24.984,exp1,2023.1.0,59.99692815658768,
,,,,,,,,,,,,,,,,5,8.2,9.1,10,10.9,11.8,0.9,0.65,0.25,3.85,10,initial,36.05,296,328,361,393,425,9,9,9,9,9,,,,,,,1,0,1,0,0,27,27,48,,,,,,,,,,,,num_5,0.732837000003201,num_5,0.3,0.6,0.2,0.75,7.6411,28.65413,return,3.4535956000036094,,,,,,,,,,,,,,,,,718,22,female,left_right_width,2024-08-27_17h19.24.984,exp1,2023.1.0,59.99692815658768,
,,,,,,,,,,,,,,,,5,8.35,9.175,10,10.825,11.65,0.825,0.575,0.25,3.55,10,match,36.05,301,331,361,390,420,9,9,9,9,9,,,,,,,1,0,1,0,0,28,28,20,,,,,,,,,,,,num_5,0.9829122999944957,num_5,0.4,1.3,0.35000000000000003,1.1,13.37193,42.02605,return,2.584520700009307,,,,,,,,,,,,,,,,,718,22,female,left_right_width,2024-08-27_17h19.24.984,exp1,2023.1.0,59.99692815658768,
,,,,,,,,,,,,,,,,4,8.35,9.45,10.55,11.65,0,1.1,0.55,0.55,3.8500000000000005,10,initial,36.05,301,341,380,420,0,9,9,9,9,0,,,,,,,1,0,1,0,0,29,29,17,,,,,,,,,,,,num_5,0.6119184999988647,num_5,0.25,0.6,0.3,0.85,11.46165,32.47468,return,2.6677284999896074,,,,,,,,,,,,,,,,,718,22,female,left_right_width,2024-08-27_17h19.24.984,exp1,2023.1.0,59.99692815658768,
,,,,,,,,,,,,,,,,5,8.6,9.3,10,10.7,11.4,0.7,0.44999999999999996,0.25,3.05,10,initial,36.05,310,335,361,386,411,9,9,9,9,9,,,,,,,1,0,1,0,0,30,30,42,,,,,,,,,,,,num_5,0.6416969999991124,num_5,0.55,1.3,0.30000000000000004,1.05,11.46165,40.11578,return,2.423028200006229,,,,,,,,,,,,,,,,,718,22,female,left_right_width,2024-08-27_17h19.24.984,exp1,2023.1.0,59.99692815658768,
,,,,,,,,,,,,,,,,4,9.3,9.766666666666667,10.233333333333333,10.7,0,0.4666666666666667,0.21666666666666665,0.25,1.65,10,match,36.05,335,352,369,386,0,9,9,9,9,0,,,,,,,1,0,1,0,0,31,31,8,,,,,,,,,,,,num_4,0.9191769000026397,num_4,0.45,1.1,0.20000000000000007,0.4,7.6411,15.2822,return,3.6166224000044167,,,,,,,,,,,,,,,,,718,22,female,left_right_width,2024-08-27_17h19.24.984,exp1,2023.1.0,59.99692815658768,
,,,,,,,,,,,,,,,,5,8.6,9.3,10,10.7,11.4,0.7,0.1499999999999999,0.55,3.3499999999999996,10,initial,36.05,310,335,361,386,411,9,9,9,9,9,,,,,,,1,0,1,0,0,32,32,40,,,,,,,,,,,,num_4,0.9846361999952933,num_4,0.25,0.5,0.35,0.8,13.37193,30.5644,return,2.2706354999972973,,,,,,,,,,,,,,,,,718,22,female,left_right_width,2024-08-27_17h19.24.984,exp1,2023.1.0,59.99692815658768,
,,,,,,,,,,,,,,,,3,9.1,10,10.9,0,0,0.9,0.35,0.55,2.35,10,initial,36.05,328,361,393,0,0,9,9,9,0,0,,,,,,,1,0,1,0,0,33,33,11,,,,,,,,,,,,num_3,0.8755888000014238,num_3,0.45,0.9,0.45,0.8,17.19248,30.5644,return,2.9345848000084516,,,,,,,,,,,,,,,,,718,22,female,left_right_width,2024-08-27_17h19.24.984,exp1,2023.1.0,59.99692815658768,
,,,,,,,,,,,,,,,,3,7.8,10,12.2,0,0,2.2,1.65,0.55,4.95,10,match,36.05,281,361,440,0,0,9,9,9,0,0,,,,,,,1,0,1,0,0,34,34,35,,,,,,,,,,,,num_3,0.7029288000048837,num_3,0.45,1.1,0.4,1.7,15.2822,64.94936,return,5.983626900007948,,,,,,,,,,,,,,,,,718,22,female,left_right_width,2024-08-27_17h19.24.984,exp1,2023.1.0,59.99692815658768,
,,,,,,,,,,,,,,,,5,8.65,9.325,10,10.675,11.35,0.675,0.275,0.4,3.1,10,match,36.05,312,336,361,385,409,9,9,9,9,9,,,,,,,1,0,1,0,0,35,35,33,,,,,,,,,,,,num_5,0.8103625000076136,num_5,0.55,1.3,0.35000000000000003,0.8,13.37193,30.5644,return,3.4967057000030763,,,,,,,,,,,,,,,,,718,22,female,left_right_width,2024-08-27_17h19.24.984,exp1,2023.1.0,59.99692815658768,
,,,,,,,,,,,,,,,,3,8.9,10,11.1,0,0,1.1,0.55,0.55,2.75,10,initial,36.05,321,361,400,0,0,9,9,9,0,0,,,,,,,1,0,1,0,0,36,36,0,,,,,,,,,,,,num_3,0.6012121999956435,num_3,0.25,0.9,0.5499999999999999,1.0,21.01303,38.2055,return,3.5318321000086144,,,,,,,,,,,,,,,,,718,22,female,left_right_width,2024-08-27_17h19.24.984,exp1,2023.1.0,59.99692815658768,
,,,,,,,,,,,,,,,,4,8.95,9.65,10.35,11.05,0,0.7,0.29999999999999993,0.4,2.5,10,initial,36.05,323,348,373,398,0,9,9,9,9,0,,,,,,,1,0,1,0,0,37,37,26,,,,,,,,,,,,num_4,1.0447704000107478,num_4,0.2,0.4,0.6,0.8,22.9233,30.5644,return,3.2821506000036607,,,,,,,,,,,,,,,,,718,22,female,left_right_width,2024-08-27_17h19.24.984,exp1,2023.1.0,59.99692815658768,
,,,,,,,,,,,,,,,,4,8.9,9.633333333333333,10.366666666666667,11.1,0,0.7333333333333334,0.4833333333333334,0.25,2.45,10,match,36.05,321,347,374,400,0,9,9,9,9,0,,,,,,,1,0,1,0,0,38,38,3,,,,,,,,,,,,num_4,1.1110317999991821,num_4,0.2,0.4,0.3,0.8,11.46165,30.5644,return,2.4226408999966225,,,,,,,,,,,,,,,,,718,22,female,left_right_width,2024-08-27_17h19.24.984,exp1,2023.1.0,59.99692815658768,
,,,,,,,,,,,,,,,,3,8.9,10,11.1,0,0,1.1,0.7000000000000001,0.4,2.6000000000000005,10,initial,36.05,321,361,400,0,0,9,9,9,0,0,,,,,,,1,0,1,0,0,39,39,4,,,,,,,,,,,,num_3,0.6562945000041509,num_3,0.25,1,0.39999999999999997,1.05,15.2822,40.11578,return,3.0597221000061836,,,,,,,,,,,,,,,,,718,22,female,left_right_width,2024-08-27_17h19.24.984,exp1,2023.1.0,59.99692815658768,
,,,,,,,,,,,,,,,,5,8.2,9.1,10,10.9,11.8,0.9,0.5,0.4,4,10,initial,36.05,296,328,361,393,425,9,9,9,9,9,,,,,,,1,0,1,0,0,40,40,50,,,,,,,,,,,,num_5,0.8493320999987191,num_5,0.45,0.5,0.35000000000000003,0.85,13.37193,32.47468,return,4.249737499994808,,,,,,,,,,,,,,,,,718,22,female,left_right_width,2024-08-27_17h19.24.984,exp1,2023.1.0,59.99692815658768,
,,,,,,,,,,,,,,,,3,7.8,10,12.2,0,0,2.2,1.9500000000000002,0.25,4.65,10,match,36.05,281,361,440,0,0,9,9,9,0,0,,,,,,,1,0,1,0,0,41,41,37,,,,,,,,,,,,num_3,0.7097107000008691,num_3,0.55,1.2,0.15000000000000008,1.6,5.73083,61.12881,return,3.8915258000051836,,,,,,,,,,,,,,,,,718,22,female,left_right_width,2024-08-27_17h19.24.984,exp1,2023.1.0,59.99692815658768,
,,,,,,,,,,,,,,,,4,8.95,9.65,10.35,11.05,0,0.7,0.1499999999999999,0.55,2.65,10,initial,36.05,323,348,373,398,0,9,9,9,9,0,,,,,,,1,0,1,0,0,42,42,23,,,,,,,,,,,,num_3,0.6394261999957962,num_3,0.4,1.1,0.45,1.0,17.19248,38.2055,return,4.239992599992547,,,,,,,,,,,,,,,,,718,22,female,left_right_width,2024-08-27_17h19.24.984,exp1,2023.1.0,59.99692815658768,
,,,,,,,,,,,,,,,,5,8.65,9.325,10,10.675,11.35,0.675,0.125,0.55,3.25,10,match,36.05,312,336,361,385,409,9,9,9,9,9,,,,,,,1,0,1,0,0,43,43,29,,,,,,,,,,,,num_4,0.6747795999981463,num_4,0.2,0.7,0.6,1.0,22.9233,38.2055,return,3.234718599996995,,,,,,,,,,,,,,,,,718,22,female,left_right_width,2024-08-27_17h19.24.984,exp1,2023.1.0,59.99692815658768,
,,,,,,,,,,,,,,,,4,9.1,9.7,10.3,10.9,0,0.6,0.04999999999999997,0.55,2.35,10,match,36.05,328,350,371,393,0,9,9,9,9,0,,,,,,,1,0,1,0,0,44,44,12,,,,,,,,,,,,num_4,0.7051733999978751,num_4,0.35,0.9,0.44999999999999996,0.6,17.19248,22.9233,return,4.221504700006335,,,,,,,,,,,,,,,,,718,22,female,left_right_width,2024-08-27_17h19.24.984,exp1,2023.1.0,59.99692815658768,
,,,,,,,,,,,,,,,,5,8.6,9.3,10,10.7,11.4,0.7,0.29999999999999993,0.4,3.1999999999999997,10,initial,36.05,310,335,361,386,411,9,9,9,9,9,,,,,,,1,0,1,0,0,45,45,44,,,,,,,,,,,,num_5,0.8923688999930164,num_5,0.2,0.8,0.39999999999999997,0.6,15.2822,22.9233,return,3.8304897000052733,,,,,,,,,,,,,,,,,718,22,female,left_right_width,2024-08-27_17h19.24.984,exp1,2023.1.0,59.99692815658768,
,,,,,,,,,,,,,,,,3,8.9,10,11.1,0,0,1.1,0.8500000000000001,0.25,2.45,10,initial,36.05,321,361,400,0,0,9,9,9,0,0,,,,,,,1,0,1,0,0,46,46,2,,,,,,,,,,,,num_3,0.6935955999942962,num_3,0.45,1.2,0.25000000000000006,1.15,9.55138,43.93633,return,2.787364100004197,,,,,,,,,,,,,,,,,718,22,female,left_right_width,2024-08-27_17h19.24.984,exp1,2023.1.0,59.99692815658768,
,,,,,,,,,,,,,,,,3,9.3,10,10.7,0,0,0.7,0.44999999999999996,0.25,1.65,10,initial,36.05,335,361,386,0,0,9,9,9,0,0,,,,,,,1,0,1,0,0,47,47,7,,,,,,,,,,,,num_3,0.7325313000037568,num_3,0.2,1.2,0.15000000000000002,0.65,5.73083,24.83358,return,3.785979199994472,,,,,,,,,,,,,,,,,718,22,female,left_right_width,2024-08-27_17h19.24.984,exp1,2023.1.0,59.99692815658768,
,,,,,,,,,,,,,,,,3,9.3,10,10.7,0,0,0.7,0.1499999999999999,0.55,1.95,10,initial,36.05,335,361,386,0,0,9,9,9,0,0,,,,,,,1,0,1,0,0,48,48,6,,,,,,,,,,,,num_3,0.6622091000026558,num_3,0.2,1,0.35,0.8,13.37193,30.5644,return,3.8043520000064746,,,,,,,,,,,,,,,,,718,22,female,left_right_width,2024-08-27_17h19.24.984,exp1,2023.1.0,59.99692815658768,
,,,,,,,,,,,,,,,,5,8.95,9.475,10,10.525,11.05,0.525,0.125,0.4,2.5,10,match,36.05,323,342,361,379,398,9,9,9,9,9,,,,,,,1,0,1,0,0,49,49,27,,,,,,,,,,,,num_5,0.6306617999944137,num_5,0.35,1.3,0.39999999999999997,0.65,15.2822,24.83358,return,4.27726299999631,,,,,,,,,,,,,,,,,718,22,female,left_right_width,2024-08-27_17h19.24.984,exp1,2023.1.0,59.99692815658768,
,,,,,,,,,,,,,,,,3,8.6,10,11.4,0,0,1.4,0.85,0.55,3.35,10,match,36.05,310,361,411,0,0,9,9,9,0,0,,,,,,,1,0,1,0,0,50,50,41,,,,,,,,,,,,num_3,0.7070166999910725,num_3,0.5,0.8,0.30000000000000004,1.1,11.46165,42.02605,return,3.3308273000002373,,,,,,,,,,,,,,,,,718,22,female,left_right_width,2024-08-27_17h19.24.984,exp1,2023.1.0,59.99692815658768,
,,,,,,,,,,,,,,,,4,9.1,9.7,10.3,10.9,0,0.5999999999999999,0.3499999999999999,0.25,2.05,10,match,36.05,328,350,371,393,0,9,9,9,9,0,,,,,,,1,0,1,0,0,51,51,14,,,,,,,,,,,,num_5,0.8505985999945551,num_5,0.3,1.2,0.2,0.5,7.6411,19.10275,return,8.448489299989888,,,,,,,,,,,,,,,,,718,22,female,left_right_width,2024-08-27_17h19.24.984,exp1,2023.1.0,59.99692815658768,
,,,,,,,,,,,,,,,,,,,,,,,,,,,,,,,,,,,,,,,,,,,,,1,0,1,0,,,,,,,,,,,,,,,,,,,,,,,,,,,,,1070.8989841000002,1070.8989841000002,1070.8989841000002,,,,,,,,,,,,718,22,female,left_right_width,2024-08-27_17h19.24.984,exp1,2023.1.0,59.99692815658768,
,,,,,,,,,,,,,,,,5,8.6,9.3,10,10.7,11.4,0.7,0.1499999999999999,0.55,3.3499999999999996,10,initial,36.05,310,335,361,386,411,9,9,9,9,9,,,,,,,2,0,2,0,0,0,0,40,,,,,,,,,,,,num_5,1.2205511999927694,num_5,0.3,0.5,0.44999999999999996,0.7,17.19248,26.74385,return,2.817216199997347,,,,,,,,,,,,,,,,,718,22,female,left_right_width,2024-08-27_17h19.24.984,exp1,2023.1.0,59.99692815658768,
,,,,,,,,,,,,,,,,3,9.1,10,10.9,0,0,0.9,0.65,0.25,2.05,10,initial,36.05,328,361,393,0,0,9,9,9,0,0,,,,,,,2,0,2,0,0,1,1,13,,,,,,,,,,,,num_3,0.7350676000060048,num_3,0.4,0.8,0.25000000000000006,1.15,9.55138,43.93633,return,3.649319400006789,,,,,,,,,,,,,,,,,718,22,female,left_right_width,2024-08-27_17h19.24.984,exp1,2023.1.0,59.99692815658768,
,,,,,,,,,,,,,,,,5,7.8,8.9,10,11.1,12.2,1.1,0.55,0.55,4.95,10,initial,36.05,281,321,361,400,440,9,9,9,9,9,,,,,,,2,0,2,0,0,2,2,34,,,,,,,,,,,,num_5,0.9080122000013944,num_5,0.4,0.8,0.30000000000000004,0.95,11.46165,36.29523,return,3.507051099993987,,,,,,,,,,,,,,,,,718,22,female,left_right_width,2024-08-27_17h19.24.984,exp1,2023.1.0,59.99692815658768,
,,,,,,,,,,,,,,,,3,9.1,10,10.9,0,0,0.9,0.5,0.4,2.2,10,initial,36.05,328,361,393,0,0,9,9,9,0,0,,,,,,,2,0,2,0,0,3,3,15,,,,,,,,,,,,num_3,0.6443807000032393,num_3,0.2,0.3,0.35,0.75,13.37193,28.65413,return,4.263717599998927,,,,,,,,,,,,,,,,,718,22,female,left_right_width,2024-08-27_17h19.24.984,exp1,2023.1.0,59.99692815658768,
,,,,,,,,,,,,,,,,5,8.6,9.3,10,10.7,11.4,0.7,0.44999999999999996,0.25,3.05,10,initial,36.05,310,335,361,386,411,9,9,9,9,9,,,,,,,2,0,2,0,0,4,4,42,,,,,,,,,,,,num_5,0.7898165999940829,num_5,0.5,0.6,0.20000000000000007,0.75,7.6411,28.65413,return,4.147053099994082,,,,,,,,,,,,,,,,,718,22,female,left_right_width,2024-08-27_17h19.24.984,exp1,2023.1.0,59.99692815658768,
,,,,,,,,,,,,,,,,5,8.95,9.475,10,10.525,11.05,0.525,0.125,0.4,2.5,10,match,36.05,323,342,361,379,398,9,9,9,9,9,,,,,,,2,0,2,0,0,5,5,27,,,,,,,,,,,,num_4,0.9507100999908289,num_4,0.45,0.8,0.45,0.8,17.19248,30.5644,return,1.1492686000128742,,,,,,,,,,,,,,,,,718,22,female,left_right_width,2024-08-27_17h19.24.984,exp1,2023.1.0,59.99692815658768,
,,,,,,,,,,,,,,,,3,9.1,10,10.9,0,0,0.9,0.35,0.55,2.35,10,initial,36.05,328,361,393,0,0,9,9,9,0,0,,,,,,,2,0,2,0,0,6,6,11,,,,,,,,,,,,num_3,0.5865625000005821,num_3,0.25,0.5,0.39999999999999997,0.7,15.2822,26.74385,return,2.7047525999951176,,,,,,,,,,,,,,,,,718,22,female,left_right_width,2024-08-27_17h19.24.984,exp1,2023.1.0,59.99692815658768,
,,,,,,,,,,,,,,,,4,9.1,9.7,10.3,10.9,0,0.6000000000000001,0.20000000000000004,0.4,2.2,10,match,36.05,328,350,371,393,0,9,9,9,9,0,,,,,,,2,0,2,0,0,7,7,16,,,,,,,,,,,,num_4,0.844337300004554,num_4,0.2,0.9,0.35,0.7,13.37193,26.74385,return,3.160213900002418,,,,,,,,,,,,,,,,,718,22,female,left_right_width,2024-08-27_17h19.24.984,exp1,2023.1.0,59.99692815658768,
,,,,,,,,,,,,,,,,3,8.6,10,11.4,0,0,1.4,0.85,0.55,3.35,10,match,36.05,310,361,411,0,0,9,9,9,0,0,,,,,,,2,0,2,0,0,8,8,41,,,,,,,,,,,,num_3,0.7923953999998048,num_3,0.5,0.7,0.30000000000000004,0.65,11.46165,24.83358,return,2.4354581000079634,,,,,,,,,,,,,,,,,718,22,female,left_right_width,2024-08-27_17h19.24.984,exp1,2023.1.0,59.99692815658768,
,,,,,,,,,,,,,,,,3,8.6,10,11.4,0,0,1.4,1.15,0.25,3.05,10,match,36.05,310,361,411,0,0,9,9,9,0,0,,,,,,,2,0,2,0,0,9,9,43,,,,,,,,,,,,num_4,1.0796193999995012,num_4,0.25,1.0,0.35,0.8,13.37193,30.5644,return,2.8429427000082796,,,,,,,,,,,,,,,,,718,22,female,left_right_width,2024-08-27_17h19.24.984,exp1,2023.1.0,59.99692815658768,
,,,,,,,,,,,,,,,,4,8.35,9.45,10.55,11.65,0,1.1,0.7000000000000001,0.4,3.7,10,initial,36.05,301,341,380,420,0,9,9,9,9,0,,,,,,,2,0,2,0,0,10,10,21,,,,,,,,,,,,num_4,0.7590880999923684,num_4,0.45,0.8,0.35000000000000003,0.9,13.37193,34.38495,return,2.374342199997045,,,,,,,,,,,,,,,,,718,22,female,left_right_width,2024-08-27_17h19.24.984,exp1,2023.1.0,59.99692815658768,
,,,,,,,,,,,,,,,,5,8.65,9.325,10,10.675,11.35,0.675,0.275,0.4,3.1,10,match,36.05,312,336,361,385,409,9,9,9,9,9,,,,,,,2,0,2,0,0,11,11,33,,,,,,,,,,,,num_5,0.9323771000053966,num_5,0.4,1.0,0.4,1.0,15.2822,38.2055,return,1.5191385999933118,,,,,,,,,,,,,,,,,718,22,female,left_right_width,2024-08-27_17h19.24.984,exp1,2023.1.0,59.99692815658768,
,,,,,,,,,,,,,,,,4,8.65,9.55,10.45,11.35,0,0.9,0.65,0.25,2.95,10,initial,36.05,312,344,377,409,0,9,9,9,9,0,,,,,,,2,0,2,0,0,12,12,30,,,,,,,,,,,,num_5,0.8257889000087744,num_5,0.35,0.9,0.35,0.9,13.37193,34.38495,return,0.532082799996715,,,,,,,,,,,,,,,,,718,22,female,left_right_width,2024-08-27_17h19.24.984,exp1,2023.1.0,59.99692815658768,
,,,,,,,,,,,,,,,,3,9.3,10,10.7,0,0,0.7,0.1499999999999999,0.55,1.95,10,initial,36.05,335,361,386,0,0,9,9,9,0,0,,,,,,,2,0,2,0,0,13,13,6,,,,,,,,,,,,num_3,0.9493911000026856,num_3,0.35,0.6,0.44999999999999996,0.65,17.19248,24.83358,return,1.993780600008904,,,,,,,,,,,,,,,,,718,22,female,left_right_width,2024-08-27_17h19.24.984,exp1,2023.1.0,59.99692815658768,
,,,,,,,,,,,,,,,,4,9.3,9.766666666666667,10.233333333333333,10.7,0,0.4666666666666667,0.06666666666666665,0.4,1.8,10,match,36.05,335,352,369,386,0,9,9,9,9,0,,,,,,,2,0,2,0,0,14,14,10,,,,,,,,,,,,num_5,1.3724174000089988,num_5,0.2,0.3,0.2,0.5,7.6411,19.10275,return,1.9517428999970434,,,,,,,,,,,,,,,,,718,22,female,left_right_width,2024-08-27_17h19.24.984,exp1,2023.1.0,59.99692815658768,
,,,,,,,,,,,,,,,,3,8.9,10,11.1,0,0,1.1,0.7000000000000001,0.4,2.6000000000000005,10,initial,36.05,321,361,400,0,0,9,9,9,0,0,,,,,,,2,0,2,0,0,15,15,4,,,,,,,,,,,,num_3,0.665911000003689,num_3,0.2,0.3,0.2,1.1,7.6411,42.02605,return,6.121527499999502,,,,,,,,,,,,,,,,,718,22,female,left_right_width,2024-08-27_17h19.24.984,exp1,2023.1.0,59.99692815658768,
,,,,,,,,,,,,,,,,4,8.9,9.633333333333333,10.366666666666667,11.1,0,0.7333333333333333,0.18333333333333326,0.55,2.75,10,match,36.05,321,347,374,400,0,9,9,9,9,0,,,,,,,2,0,2,0,0,16,16,1,,,,,,,,,,,,num_4,1.0783374000020558,num_4,0.2,1.3,0.35,0.6,13.37193,22.9233,return,3.28437649999978,,,,,,,,,,,,,,,,,718,22,female,left_right_width,2024-08-27_17h19.24.984,exp1,2023.1.0,59.99692815658768,
,,,,,,,,,,,,,,,,5,8.35,9.175,10,10.825,11.65,0.825,0.575,0.25,3.55,10,match,36.05,301,331,361,390,420,9,9,9,9,9,,,,,,,2,0,2,0,0,17,17,20,,,,,,,,,,,,num_4,0.9029408000060357,num_4,0.45,0.7,0.30000000000000004,0.7,11.46165,26.74385,return,5.6592645999917295,,,,,,,,,,,,,,,,,718,22,female,left_right_width,2024-08-27_17h19.24.984,exp1,2023.1.0,59.99692815658768,
,,,,,,,,,,,,,,,,3,7.8,10,12.2,0,0,2.2,1.65,0.55,4.95,10,match,36.05,281,361,440,0,0,9,9,9,0,0,,,,,,,2,0,2,0,0,18,18,35,,,,,,,,,,,,num_4,0.7286800000001676,num_4,0.25,1.3,0.3,1.7,11.46165,64.94936,return,3.6239698999997927,,,,,,,,,,,,,,,,,718,22,female,left_right_width,2024-08-27_17h19.24.984,exp1,2023.1.0,59.99692815658768,
,,,,,,,,,,,,,,,,4,8.65,9.55,10.45,11.35,0,0.9,0.5,0.4,3.1,10,initial,36.05,312,344,377,409,0,9,9,9,9,0,,,,,,,2,0,2,0,0,19,19,32,,,,,,,,,,,,num_4,0.7861968000070192,num_4,0.35,0.4,0.35,1.1,13.37193,42.02605,return,2.8148262000031536,,,,,,,,,,,,,,,,,718,22,female,left_right_width,2024-08-27_17h19.24.984,exp1,2023.1.0,59.99692815658768,
,,,,,,,,,,,,,,,,4,8.95,9.65,10.35,11.05,0,0.7,0.44999999999999996,0.25,2.3499999999999996,10,initial,36.05,323,348,373,398,0,9,9,9,9,0,,,,,,,2,0,2,0,0,20,20,24,,,,,,,,,,,,num_4,1.0158953000063775,num_4,0.3,0.8,0.3,0.6,11.46165,22.9233,return,1.3101136999903247,,,,,,,,,,,,,,,,,718,22,female,left_right_width,2024-08-27_17h19.24.984,exp1,2023.1.0,59.99692815658768,
,,,,,,,,,,,,,,,,3,9.3,10,10.7,0,0,0.7,0.44999999999999996,0.25,1.65,10,initial,36.05,335,361,386,0,0,9,9,9,0,0,,,,,,,2,0,2,0,0,21,21,7,,,,,,,,,,,,num_3,0.819661300003645,num_3,0.25,0.7,0.35,0.8,13.37193,30.5644,return,2.52453960001003,,,,,,,,,,,,,,,,,718,22,female,left_right_width,2024-08-27_17h19.24.984,exp1,2023.1.0,59.99692815658768,
,,,,,,,,,,,,,,,,3,8.9,10,11.1,0,0,1.1,0.8500000000000001,0.25,2.45,10,initial,36.05,321,361,400,0,0,9,9,9,0,0,,,,,,,2,0,2,0,0,22,22,2,,,,,,,,,,,,num_3,0.778298100005486,num_3,0.45,0.5,0.25000000000000006,1.0,9.55138,38.2055,return,4.801246999995783,,,,,,,,,,,,,,,,,718,22,female,left_right_width,2024-08-27_17h19.24.984,exp1,2023.1.0,59.99692815658768,
,,,,,,,,,,,,,,,,5,7.8,8.9,10,11.1,12.2,1.1,0.8500000000000001,0.25,4.65,10,initial,36.05,281,321,361,400,440,9,9,9,9,9,,,,,,,2,0,2,0,0,23,23,36,,,,,,,,,,,,num_4,0.7311618000094313,num_4,0.4,0.9,0.20000000000000007,0.8,7.6411,30.5644,return,2.636196299994481,,,,,,,,,,,,,,,,,718,22,female,left_right_width,2024-08-27_17h19.24.984,exp1,2023.1.0,59.99692815658768,
,,,,,,,,,,,,,,,,4,8.35,9.45,10.55,11.65,0,1.1,0.8500000000000001,0.25,3.5500000000000003,10,initial,36.05,301,341,380,420,0,9,9,9,9,0,,,,,,,2,0,2,0,0,24,24,19,,,,,,,,,,,,num_4,0.65199610000127,num_4,0.45,1.2,0.20000000000000007,1.3,7.6411,49.66716,return,4.284043300009216,,,,,,,,,,,,,,,,,718,22,female,left_right_width,2024-08-27_17h19.24.984,exp1,2023.1.0,59.99692815658768,
,,,,,,,,,,,,,,,,5,8.65,9.325,10,10.675,11.35,0.675,0.42500000000000004,0.25,2.95,10,match,36.05,312,336,361,385,409,9,9,9,9,9,,,,,,,2,0,2,0,0,25,25,31,,,,,,,,,,,,num_4,0.7544161999976495,num_4,0.2,0.8,0.25,0.8,9.55138,30.5644,return,2.5469869999942603,,,,,,,,,,,,,,,,,718,22,female,left_right_width,2024-08-27_17h19.24.984,exp1,2023.1.0,59.99692815658768,
,,,,,,,,,,,,,,,,4,8.35,9.45,10.55,11.65,0,1.1,0.55,0.55,3.8500000000000005,10,initial,36.05,301,341,380,420,0,9,9,9,9,0,,,,,,,2,0,2,0,0,26,26,17,,,,,,,,,,,,num_4,0.8063454999937676,num_4,0.45,1.1,0.45,1.1,17.19248,42.02605,return,0.9114336000056937,,,,,,,,,,,,,,,,,718,22,female,left_right_width,2024-08-27_17h19.24.984,exp1,2023.1.0,59.99692815658768,
,,,,,,,,,,,,,,,,3,8.2,10,11.8,0,0,1.8,1.25,0.55,4.15,10,match,36.05,296,361,425,0,0,9,9,9,0,0,,,,,,,2,0,2,0,0,27,27,47,,,,,,,,,,,,num_3,0.7187739000073634,num_3,0.4,0.5,0.4,1.0,15.2822,38.2055,return,6.080491899992921,,,,,,,,,,,,,,,,,718,22,female,left_right_width,2024-08-27_17h19.24.984,exp1,2023.1.0,59.99692815658768,
,,,,,,,,,,,,,,,,5,8.275,9.1375,10,10.8625,11.725,0.8625,0.6125,0.25,3.7,10,match,36.05,298,329,361,392,423,9,9,9,9,9,,,,,,,2,0,2,0,0,28,28,22,,,,,,,,,,,,num_5,0.8419310000026599,num_5,0.25,1.3,0.25,1.3,9.55138,49.66716,return,0.9490643000026466,,,,,,,,,,,,,,,,,718,22,female,left_right_width,2024-08-27_17h19.24.984,exp1,2023.1.0,59.99692815658768,
,,,,,,,,,,,,,,,,4,9.3,9.766666666666667,10.233333333333333,10.7,0,0.4666666666666667,0.21666666666666665,0.25,1.65,10,match,36.05,335,352,369,386,0,9,9,9,9,0,,,,,,,2,0,2,0,0,29,29,8,,,,,,,,,,,,num_4,0.8101624000119045,num_4,0.25,0.8,0.15000000000000002,0.3,5.73083,11.46165,return,2.77092240001366,,,,,,,,,,,,,,,,,718,22,female,left_right_width,2024-08-27_17h19.24.984,exp1,2023.1.0,59.99692815658768,
,,,,,,,,,,,,,,,,4,8.95,9.65,10.35,11.05,0,0.7,0.29999999999999993,0.4,2.5,10,initial,36.05,323,348,373,398,0,9,9,9,9,0,,,,,,,2,0,2,0,0,30,30,26,,,,,,,,,,,,num_4,0.6750798000139184,num_4,0.25,0.9,0.35,0.6,13.37193,22.9233,return,3.2336174999945797,,,,,,,,,,,,,,,,,718,22,female,left_right_width,2024-08-27_17h19.24.984,exp1,2023.1.0,59.99692815658768,
,,,,,,,,,,,,,,,,3,7.8,10,12.2,0,0,2.2,1.9500000000000002,0.25,4.65,10,match,36.05,281,361,440,0,0,9,9,9,0,0,,,,,,,2,0,2,0,0,31,31,37,,,,,,,,,,,,num_4,0.6846357000031276,num_4,0.25,0.9,0.39999999999999997,0.9,15.2822,34.38495,return,3.3919363000022713,,,,,,,,,,,,,,,,,718,22,female,left_right_width,2024-08-27_17h19.24.984,exp1,2023.1.0,59.99692815658768,
,,,,,,,,,,,,,,,,4,9.1,9.7,10.3,10.9,0,0.6,0.04999999999999997,0.55,2.35,10,match,36.05,328,350,371,393,0,9,9,9,9,0,,,,,,,2,0,2,0,0,32,32,12,,,,,,,,,,,,num_4,0.9070998000097461,num_4,0.35,0.5,0.44999999999999996,0.6,17.19248,22.9233,return,3.155475000006845,,,,,,,,,,,,,,,,,718,22,female,left_right_width,2024-08-27_17h19.24.984,exp1,2023.1.0,59.99692815658768,
,,,,,,,,,,,,,,,,5,8.65,9.325,10,10.675,11.35,0.675,0.125,0.55,3.25,10,match,36.05,312,336,361,385,409,9,9,9,9,9,,,,,,,2,0,2,0,0,33,33,29,,,,,,,,,,,,num_5,0.9454227999958675,num_5,0.25,1.3,0.35,0.45,13.37193,17.19248,return,9.47472729999572,,,,,,,,,,,,,,,,,718,22,female,left_right_width,2024-08-27_17h19.24.984,exp1,2023.1.0,59.99692815658768,
,,,,,,,,,,,,,,,,3,8.525,10,11.475,0,0,1.475,1.225,0.25,3.2,10,match,36.05,307,361,414,0,0,9,9,9,0,0,,,,,,,2,0,2,0,0,34,34,45,,,,,,,,,,,,num_3,0.7642894000018714,num_3,0.5,1.3,0.15000000000000008,1.3,5.73083,49.66716,return,2.4542958999954863,,,,,,,,,,,,,,,,,718,22,female,left_right_width,2024-08-27_17h19.24.984,exp1,2023.1.0,59.99692815658768,
,,,,,,,,,,,,,,,,3,7.800000000000001,10,12.2,0,0,2.1999999999999997,1.7999999999999998,0.4,4.8,10,match,36.05,281,361,440,0,0,9,9,9,0,0,,,,,,,2,0,2,0,0,35,35,39,,,,,,,,,,,,num_3,0.8591718999959994,num_3,0.3,0.9,0.25,1.15,9.55138,43.93633,return,4.16828600000008,,,,,,,,,,,,,,,,,718,22,female,left_right_width,2024-08-27_17h19.24.984,exp1,2023.1.0,59.99692815658768,
,,,,,,,,,,,,,,,,3,8.2,10,11.8,0,0,1.7999999999999998,1.4,0.4,4,10,match,36.05,296,361,425,0,0,9,9,9,0,0,,,,,,,2,0,2,0,0,36,36,51,,,,,,,,,,,,num_3,0.6696855999907712,num_3,0.35,0.5,0.2,1.15,7.6411,43.93633,return,5.967862999998033,,,,,,,,,,,,,,,,,718,22,female,left_right_width,2024-08-27_17h19.24.984,exp1,2023.1.0,59.99692815658768,
,,,,,,,,,,,,,,,,5,8.95,9.475,10,10.525,11.05,0.525,0.275,0.25,2.35,10,match,36.05,323,342,361,379,398,9,9,9,9,9,,,,,,,2,0,2,0,0,37,37,25,,,,,,,,,,,,num_4,0.7515732000028947,num_4,0.55,0.7,0.30000000000000004,0.5,11.46165,19.10275,return,2.7464933000010205,,,,,,,,,,,,,,,,,718,22,female,left_right_width,2024-08-27_17h19.24.984,exp1,2023.1.0,59.99692815658768,
,,,,,,,,,,,,,,,,3,8.2,10,11.8,0,0,1.8,1.55,0.25,3.85,10,match,36.05,296,361,425,0,0,9,9,9,0,0,,,,,,,2,0,2,0,0,38,38,49,,,,,,,,,,,,num_3,0.940399700004491,num_3,0.3,1.3,0.2,1.55,7.6411,59.21853,return,3.601164500010782,,,,,,,,,,,,,,,,,718,22,female,left_right_width,2024-08-27_17h19.24.984,exp1,2023.1.0,59.99692815658768,
,,,,,,,,,,,,,,,,5,8.2,9.1,10,10.9,11.8,0.9,0.5,0.4,4,10,initial,36.05,296,328,361,393,425,9,9,9,9,9,,,,,,,2,0,2,0,0,39,39,50,,,,,,,,,,,,num_5,0.9262087999959476,num_5,0.2,1.3,0.3,1.1,11.46165,42.02605,return,3.74662890000036,,,,,,,,,,,,,,,,,718,22,female,left_right_width,2024-08-27_17h19.24.984,exp1,2023.1.0,59.99692815658768,
,,,,,,,,,,,,,,,,3,9.3,10,10.7,0,0,0.7,0.29999999999999993,0.4,1.8,10,initial,36.05,335,361,386,0,0,9,9,9,0,0,,,,,,,2,0,2,0,0,40,40,9,,,,,,,,,,,,num_3,0.612016200000653,num_3,0.5,1,0.35000000000000003,0.9,13.37193,34.38495,return,2.8065310000092722,,,,,,,,,,,,,,,,,718,22,female,left_right_width,2024-08-27_17h19.24.984,exp1,2023.1.0,59.99692815658768,
,,,,,,,,,,,,,,,,5,8.6,9.3,10,10.7,11.4,0.7,0.29999999999999993,0.4,3.1999999999999997,10,initial,36.05,310,335,361,386,411,9,9,9,9,9,,,,,,,2,0,2,0,0,41,41,44,,,,,,,,,,,,num_4,0.6829741999972612,num_4,0.55,0.6,0.30000000000000004,0.7,11.46165,26.74385,return,5.871078800002579,,,,,,,,,,,,,,,,,718,22,female,left_right_width,2024-08-27_17h19.24.984,exp1,2023.1.0,59.99692815658768,
,,,,,,,,,,,,,,,,5,8.2,9.1,10,10.9,11.8,0.9,0.65,0.25,3.85,10,initial,36.05,296,328,361,393,425,9,9,9,9,9,,,,,,,2,0,2,0,0,42,42,48,,,,,,,,,,,,num_4,0.7148843000031775,num_4,0.25,0.6,0.35,1.1,13.37193,42.02605,return,2.8926986000005854,,,,,,,,,,,,,,,,,718,22,female,left_right_width,2024-08-27_17h19.24.984,exp1,2023.1.0,59.99692815658768,
,,,,,,,,,,,,,,,,4,8.95,9.65,10.35,11.05,0,0.7,0.1499999999999999,0.55,2.65,10,initial,36.05,323,348,373,398,0,9,9,9,9,0,,,,,,,2,0,2,0,0,43,43,23,,,,,,,,,,,,num_4,0.8437612999987323,num_4,0.4,1.0,0.4,0.8,15.2822,30.5644,return,1.9900333999976283,,,,,,,,,,,,,,,,,718,22,female,left_right_width,2024-08-27_17h19.24.984,exp1,2023.1.0,59.99692815658768,
,,,,,,,,,,,,,,,,5,7.8,8.9,10,11.1,12.2,1.1,0.7000000000000001,0.4,4.800000000000001,10,initial,36.05,281,321,361,400,440,9,9,9,9,9,,,,,,,2,0,2,0,0,44,44,38,,,,,,,,,,,,num_5,0.6994209000113187,num_5,0.2,0.8,0.35,0.9,13.37193,34.38495,return,2.1224179999990156,,,,,,,,,,,,,,,,,718,22,female,left_right_width,2024-08-27_17h19.24.984,exp1,2023.1.0,59.99692815658768,
,,,,,,,,,,,,,,,,3,8.9,10,11.1,0,0,1.1,0.55,0.55,2.75,10,initial,36.05,321,361,400,0,0,9,9,9,0,0,,,,,,,2,0,2,0,0,45,45,0,,,,,,,,,,,,num_4,0.8862114999938058,num_4,0.45,1.1,0.45,0.9,17.19248,34.38495,return,1.438811899992288,,,,,,,,,,,,,,,,,718,22,female,left_right_width,2024-08-27_17h19.24.984,exp1,2023.1.0,59.99692815658768,
,,,,,,,,,,,,,,,,4,8.65,9.55,10.45,11.35,0,0.9,0.35,0.55,3.25,10,initial,36.05,312,344,377,409,0,9,9,9,9,0,,,,,,,2,0,2,0,0,46,46,28,,,,,,,,,,,,num_5,0.865878500015242,num_5,0.35,0.8,0.39999999999999997,0.75,15.2822,28.65413,return,2.3450047000078484,,,,,,,,,,,,,,,,,718,22,female,left_right_width,2024-08-27_17h19.24.984,exp1,2023.1.0,59.99692815658768,
,,,,,,,,,,,,,,,,4,8.825,9.608333333333333,10.391666666666667,11.175,0,0.7833333333333333,0.5333333333333333,0.25,2.6,10,match,36.05,318,346,375,403,0,9,9,9,9,0,,,,,,,2,0,2,0,0,47,47,5,,,,,,,,,,,,num_5,0.8398128999979235,num_5,0.3,0.7,0.39999999999999997,0.65,15.2822,24.83358,return,2.8363793999888003,,,,,,,,,,,,,,,,,718,22,female,left_right_width,2024-08-27_17h19.24.984,exp1,2023.1.0,59.99692815658768,
,,,,,,,,,,,,,,,,5,8.35,9.175,10,10.825,11.65,0.8250000000000001,0.275,0.55,3.85,10,match,36.05,301,331,361,390,420,9,9,9,9,9,,,,,,,2,0,2,0,0,48,48,18,,,,,,,,,,,,num_5,0.7632319999975152,num_5,0.45,1.0,0.45,0.75,17.19248,28.65413,return,1.7510357999999542,,,,,,,,,,,,,,,,,718,22,female,left_right_width,2024-08-27_17h19.24.984,exp1,2023.1.0,59.99692815658768,
,,,,,,,,,,,,,,,,5,8.2,9.1,10,10.9,11.8,0.9,0.35,0.55,4.15,10,initial,36.05,296,328,361,393,425,9,9,9,9,9,,,,,,,2,0,2,0,0,49,49,46,,,,,,,,,,,,num_5,0.7491230000014184,num_5,0.45,0.9,0.45,0.85,17.19248,32.47468,return,1.5808462999993935,,,,,,,,,,,,,,,,,718,22,female,left_right_width,2024-08-27_17h19.24.984,exp1,2023.1.0,59.99692815658768,
,,,,,,,,,,,,,,,,4,9.1,9.7,10.3,10.9,0,0.5999999999999999,0.3499999999999999,0.25,2.05,10,match,36.05,328,350,371,393,0,9,9,9,9,0,,,,,,,2,0,2,0,0,50,50,14,,,,,,,,,,,,num_4,0.9493461999954889,num_4,0.25,0.3,0.25,0.7,9.55138,26.74385,return,2.153852600007667,,,,,,,,,,,,,,,,,718,22,female,left_right_width,2024-08-27_17h19.24.984,exp1,2023.1.0,59.99692815658768,
,,,,,,,,,,,,,,,,4,8.9,9.633333333333333,10.366666666666667,11.1,0,0.7333333333333334,0.4833333333333334,0.25,2.45,10,match,36.05,321,347,374,400,0,9,9,9,9,0,,,,,,,2,0,2,0,0,51,51,3,,,,,,,,,,,,num_4,0.8222782000084408,num_4,0.2,0.6,0.3,0.7,11.46165,26.74385,return,2.303655900002923,,,,,,,,,,,,,,,,,718,22,female,left_right_width,2024-08-27_17h19.24.984,exp1,2023.1.0,59.99692815658768,
,,,,,,,,,,,,,,,,,,,,,,,,,,,,,,,,,,,,,,,,,,,,,2,0,2,0,,,,,,,,,,,,,,,,,,,,,,,,,,,,,1368.665677699988,1368.665677699988,1368.665677699988,,,,,,,,,,,,718,22,female,left_right_width,2024-08-27_17h19.24.984,exp1,2023.1.0,59.99692815658768,
,,,,,,,,,,,,,,,,3,8.9,10,11.1,0,0,1.1,0.7000000000000001,0.4,2.6000000000000005,10,initial,36.05,321,361,400,0,0,9,9,9,0,0,,,,,,,3,0,3,0,0,0,0,4,,,,,,,,,,,,num_3,0.7174825999973109,num_3,0.25,0.8,0.39999999999999997,0.9,15.2822,34.38495,return,1.7247027999983402,,,,,,,,,,,,,,,,,718,22,female,left_right_width,2024-08-27_17h19.24.984,exp1,2023.1.0,59.99692815658768,
,,,,,,,,,,,,,,,,5,8.95,9.475,10,10.525,11.05,0.525,0.125,0.4,2.5,10,match,36.05,323,342,361,379,398,9,9,9,9,9,,,,,,,3,0,3,0,0,1,1,27,,,,,,,,,,,,num_5,0.7701077999954578,num_5,0.2,1.3,0.35,0.45,13.37193,17.19248,return,6.513957899995148,,,,,,,,,,,,,,,,,718,22,female,left_right_width,2024-08-27_17h19.24.984,exp1,2023.1.0,59.99692815658768,
,,,,,,,,,,,,,,,,5,8.6,9.3,10,10.7,11.4,0.7,0.29999999999999993,0.4,3.1999999999999997,10,initial,36.05,310,335,361,386,411,9,9,9,9,9,,,,,,,3,0,3,0,0,2,2,44,,,,,,,,,,,,num_5,0.7406323999894084,num_5,0.55,0.7,0.4,0.75,15.2822,28.65413,return,3.632528899994213,,,,,,,,,,,,,,,,,718,22,female,left_right_width,2024-08-27_17h19.24.984,exp1,2023.1.0,59.99692815658768,
,,,,,,,,,,,,,,,,3,8.9,10,11.1,0,0,1.1,0.8500000000000001,0.25,2.45,10,initial,36.05,321,361,400,0,0,9,9,9,0,0,,,,,,,3,0,3,0,0,3,3,2,,,,,,,,,,,,num_2,1.0771363000094425,num_2,0.2,0.6,0.3,0.9,11.46165,34.38495,return,2.152280800000881,,,,,,,,,,,,,,,,,718,22,female,left_right_width,2024-08-27_17h19.24.984,exp1,2023.1.0,59.99692815658768,
,,,,,,,,,,,,,,,,4,8.35,9.45,10.55,11.65,0,1.1,0.55,0.55,3.8500000000000005,10,initial,36.05,301,341,380,420,0,9,9,9,9,0,,,,,,,3,0,3,0,0,4,4,17,,,,,,,,,,,,num_4,0.7964427000115393,num_4,0.35,1.0,0.25,0.8,9.55138,30.5644,return,2.2784780000074534,,,,,,,,,,,,,,,,,718,22,female,left_right_width,2024-08-27_17h19.24.984,exp1,2023.1.0,59.99692815658768,
,,,,,,,,,,,,,,,,4,9.1,9.7,10.3,10.9,0,0.6000000000000001,0.20000000000000004,0.4,2.2,10,match,36.05,328,350,371,393,0,9,9,9,9,0,,,,,,,3,0,3,0,0,5,5,16,,,,,,,,,,,,num_4,0.6477618000062648,num_4,0.2,0.6,0.35,0.7,13.37193,26.74385,return,1.693056300005992,,,,,,,,,,,,,,,,,718,22,female,left_right_width,2024-08-27_17h19.24.984,exp1,2023.1.0,59.99692815658768,
,,,,,,,,,,,,,,,,3,8.525,10,11.475,0,0,1.475,1.225,0.25,3.2,10,match,36.05,307,361,414,0,0,9,9,9,0,0,,,,,,,3,0,3,0,0,6,6,45,,,,,,,,,,,,num_3,0.5943613999988884,num_3,0.3,0.7,0.2,1.05,7.6411,40.11578,return,4.120154000003822,,,,,,,,,,,,,,,,,718,22,female,left_right_width,2024-08-27_17h19.24.984,exp1,2023.1.0,59.99692815658768,
,,,,,,,,,,,,,,,,3,9.1,10,10.9,0,0,0.9,0.35,0.55,2.35,10,initial,36.05,328,361,393,0,0,9,9,9,0,0,,,,,,,3,0,3,0,0,7,7,11,,,,,,,,,,,,num_3,0.5720656000048621,num_3,0.45,0.9,0.6000000000000001,1.0,22.9233,38.2055,return,1.7590773999982048,,,,,,,,,,,,,,,,,718,22,female,left_right_width,2024-08-27_17h19.24.984,exp1,2023.1.0,59.99692815658768,
,,,,,,,,,,,,,,,,4,9.3,9.766666666666667,10.233333333333333,10.7,0,0.4666666666666667,0.06666666666666665,0.4,1.8,10,match,36.05,335,352,369,386,0,9,9,9,9,0,,,,,,,3,0,3,0,0,8,8,10,,,,,,,,,,,,num_3,0.689486899995245,num_3,0.45,0.9,0.45,0.65,17.19248,24.83358,return,1.8731075000105193,,,,,,,,,,,,,,,,,718,22,female,left_right_width,2024-08-27_17h19.24.984,exp1,2023.1.0,59.99692815658768,
,,,,,,,,,,,,,,,,4,8.95,9.65,10.35,11.05,0,0.7,0.1499999999999999,0.55,2.65,10,initial,36.05,323,348,373,398,0,9,9,9,9,0,,,,,,,3,0,3,0,0,9,9,23,,,,,,,,,,,,num_4,0.8489779999945313,num_4,0.55,0.7,0.55,0.7,21.01303,26.74385,return,1.2930799000023399,,,,,,,,,,,,,,,,,718,22,female,left_right_width,2024-08-27_17h19.24.984,exp1,2023.1.0,59.99692815658768,
,,,,,,,,,,,,,,,,5,8.65,9.325,10,10.675,11.35,0.675,0.42500000000000004,0.25,2.95,10,match,36.05,312,336,361,385,409,9,9,9,9,9,,,,,,,3,0,3,0,0,10,10,31,,,,,,,,,,,,num_5,0.9233053999923868,num_5,0.25,1.1,0.25,0.5,9.55138,19.10275,return,3.022606899990933,,,,,,,,,,,,,,,,,718,22,female,left_right_width,2024-08-27_17h19.24.984,exp1,2023.1.0,59.99692815658768,
,,,,,,,,,,,,,,,,3,8.2,10,11.8,0,0,1.8,1.25,0.55,4.15,10,match,36.05,296,361,425,0,0,9,9,9,0,0,,,,,,,3,0,3,0,0,11,11,47,,,,,,,,,,,,num_3,1.1807803999981843,num_3,0.25,1.2,0.25,0.55,9.55138,21.01303,return,2.7972719999961555,,,,,,,,,,,,,,,,,718,22,female,left_right_width,2024-08-27_17h19.24.984,exp1,2023.1.0,59.99692815658768,
,,,,,,,,,,,,,,,,5,8.6,9.3,10,10.7,11.4,0.7,0.1499999999999999,0.55,3.3499999999999996,10,initial,36.05,310,335,361,386,411,9,9,9,9,9,,,,,,,3,0,3,0,0,12,12,40,,,,,,,,,,,,num_5,0.8265811000019312,num_5,0.45,1.1,0.30000000000000004,0.55,11.46165,21.01303,return,3.479588500005775,,,,,,,,,,,,,,,,,718,22,female,left_right_width,2024-08-27_17h19.24.984,exp1,2023.1.0,59.99692815658768,
,,,,,,,,,,,,,,,,5,8.2,9.1,10,10.9,11.8,0.9,0.35,0.55,4.15,10,initial,36.05,296,328,361,393,425,9,9,9,9,9,,,,,,,3,0,3,0,0,13,13,46,,,,,,,,,,,,num_5,0.6698181000101613,num_5,0.35,1.3,0.35,0.6,13.37193,22.9233,return,3.2492742000031285,,,,,,,,,,,,,,,,,718,22,female,left_right_width,2024-08-27_17h19.24.984,exp1,2023.1.0,59.99692815658768,
,,,,,,,,,,,,,,,,5,8.6,9.3,10,10.7,11.4,0.7,0.44999999999999996,0.25,3.05,10,initial,36.05,310,335,361,386,411,9,9,9,9,9,,,,,,,3,0,3,0,0,14,14,42,,,,,,,,,,,,num_5,0.6896273000020301,num_5,0.35,0.8,0.25,0.6,9.55138,22.9233,return,4.335145699995337,,,,,,,,,,,,,,,,,718,22,female,left_right_width,2024-08-27_17h19.24.984,exp1,2023.1.0,59.99692815658768,
,,,,,,,,,,,,,,,,3,7.8,10,12.2,0,0,2.2,1.9500000000000002,0.25,4.65,10,match,36.05,281,361,440,0,0,9,9,9,0,0,,,,,,,3,0,3,0,0,15,15,37,,,,,,,,,,,,num_3,0.5740678000001935,num_3,0.45,0.8,0.10000000000000007,2.5,3.82055,95.51376,return,12.753473600008874,,,,,,,,,,,,,,,,,718,22,female,left_right_width,2024-08-27_17h19.24.984,exp1,2023.1.0,59.99692815658768,
,,,,,,,,,,,,,,,,3,9.3,10,10.7,0,0,0.7,0.1499999999999999,0.55,1.95,10,initial,36.05,335,361,386,0,0,9,9,9,0,0,,,,,,,3,0,3,0,0,16,16,6,,,,,,,,,,,,num_3,1.5366647000046214,num_3,0.3,0.8,0.44999999999999996,0.7,17.19248,26.74385,return,3.6011112999985926,,,,,,,,,,,,,,,,,718,22,female,left_right_width,2024-08-27_17h19.24.984,exp1,2023.1.0,59.99692815658768,
,,,,,,,,,,,,,,,,5,8.275,9.1375,10,10.8625,11.725,0.8625,0.6125,0.25,3.7,10,match,36.05,298,329,361,392,423,9,9,9,9,9,,,,,,,3,0,3,0,0,17,17,22,,,,,,,,,,,,num_4,0.8351665999944089,num_4,0.2,0.6,0.15000000000000002,1.1,5.73083,42.02605,return,3.9801270000025397,,,,,,,,,,,,,,,,,718,22,female,left_right_width,2024-08-27_17h19.24.984,exp1,2023.1.0,59.99692815658768,
,,,,,,,,,,,,,,,,3,9.3,10,10.7,0,0,0.7,0.44999999999999996,0.25,1.65,10,initial,36.05,335,361,386,0,0,9,9,9,0,0,,,,,,,3,0,3,0,0,18,18,7,,,,,,,,,,,,num_2,0.6862093999952776,num_2,0.2,0.4,0.2,0.7,7.6411,26.74385,return,2.2554815000039525,,,,,,,,,,,,,,,,,718,22,female,left_right_width,2024-08-27_17h19.24.984,exp1,2023.1.0,59.99692815658768,
,,,,,,,,,,,,,,,,3,7.8,10,12.2,0,0,2.2,1.65,0.55,4.95,10,match,36.05,281,361,440,0,0,9,9,9,0,0,,,,,,,3,0,3,0,0,19,19,35,,,,,,,,,,,,num_3,0.587031900009606,num_3,0.35,0.5,0.44999999999999996,1.3,17.19248,49.66716,return,4.3539332000073045,,,,,,,,,,,,,,,,,718,22,female,left_right_width,2024-08-27_17h19.24.984,exp1,2023.1.0,59.99692815658768,
,,,,,,,,,,,,,,,,5,8.65,9.325,10,10.675,11.35,0.675,0.125,0.55,3.25,10,match,36.05,312,336,361,385,409,9,9,9,9,9,,,,,,,3,0,3,0,0,20,20,29,,,,,,,,,,,,num_4,0.7273276999912923,num_4,0.3,0.8,0.5499999999999999,0.8,21.01303,30.5644,return,3.832581399998162,,,,,,,,,,,,,,,,,718,22,female,left_right_width,2024-08-27_17h19.24.984,exp1,2023.1.0,59.99692815658768,
,,,,,,,,,,,,,,,,4,8.95,9.65,10.35,11.05,0,0.7,0.44999999999999996,0.25,2.3499999999999996,10,initial,36.05,323,348,373,398,0,9,9,9,9,0,,,,,,,3,0,3,0,0,21,21,24,,,,,,,,,,,,num_4,0.7446054999891203,num_4,0.4,1.1,0.4,0.6,15.2822,22.9233,return,1.6893206000095233,,,,,,,,,,,,,,,,,718,22,female,left_right_width,2024-08-27_17h19.24.984,exp1,2023.1.0,59.99692815658768,
,,,,,,,,,,,,,,,,3,8.9,10,11.1,0,0,1.1,0.55,0.55,2.75,10,initial,36.05,321,361,400,0,0,9,9,9,0,0,,,,,,,3,0,3,0,0,22,22,0,,,,,,,,,,,,num_3,0.7393872000102419,num_3,0.55,1.2,0.55,1.0,21.01303,38.2055,return,2.228362299996661,,,,,,,,,,,,,,,,,718,22,female,left_right_width,2024-08-27_17h19.24.984,exp1,2023.1.0,59.99692815658768,
,,,,,,,,,,,,,,,,4,8.95,9.65,10.35,11.05,0,0.7,0.29999999999999993,0.4,2.5,10,initial,36.05,323,348,373,398,0,9,9,9,9,0,,,,,,,3,0,3,0,0,23,23,26,,,,,,,,,,,,num_4,0.766546599988942,num_4,0.25,0.8,0.44999999999999996,0.8,17.19248,30.5644,return,2.7824122000019997,,,,,,,,,,,,,,,,,718,22,female,left_right_width,2024-08-27_17h19.24.984,exp1,2023.1.0,59.99692815658768,
,,,,,,,,,,,,,,,,3,9.1,10,10.9,0,0,0.9,0.5,0.4,2.2,10,initial,36.05,328,361,393,0,0,9,9,9,0,0,,,,,,,3,0,3,0,0,24,24,15,,,,,,,,,,,,num_3,0.63624659999914,num_3,0.45,0.8,0.35000000000000003,0.75,13.37193,28.65413,return,2.6721520999999484,,,,,,,,,,,,,,,,,718,22,female,left_right_width,2024-08-27_17h19.24.984,exp1,2023.1.0,59.99692815658768,
,,,,,,,,,,,,,,,,4,8.35,9.45,10.55,11.65,0,1.1,0.7000000000000001,0.4,3.7,10,initial,36.05,301,341,380,420,0,9,9,9,9,0,,,,,,,3,0,3,0,0,25,25,21,,,,,,,,,,,,num_4,0.6927439999999478,num_4,0.25,0.4,0.39999999999999997,1.2,15.2822,45.8466,return,2.535562700009905,,,,,,,,,,,,,,,,,718,22,female,left_right_width,2024-08-27_17h19.24.984,exp1,2023.1.0,59.99692815658768,
,,,,,,,,,,,,,,,,3,9.1,10,10.9,0,0,0.9,0.65,0.25,2.05,10,initial,36.05,328,361,393,0,0,9,9,9,0,0,,,,,,,3,0,3,0,0,26,26,13,,,,,,,,,,,,num_3,0.603111300006276,num_3,0.45,1.1,0.25000000000000006,1.0,9.55138,38.2055,return,2.0608669000066584,,,,,,,,,,,,,,,,,718,22,female,left_right_width,2024-08-27_17h19.24.984,exp1,2023.1.0,59.99692815658768,
,,,,,,,,,,,,,,,,3,8.6,10,11.4,0,0,1.4,1.15,0.25,3.05,10,match,36.05,310,361,411,0,0,9,9,9,0,0,,,,,,,3,0,3,0,0,27,27,43,,,,,,,,,,,,num_3,0.7297645999933593,num_3,0.2,1.2,0.2,1.15,7.6411,43.93633,return,1.1298493999929633,,,,,,,,,,,,,,,,,718,22,female,left_right_width,2024-08-27_17h19.24.984,exp1,2023.1.0,59.99692815658768,
,,,,,,,,,,,,,,,,4,8.825,9.608333333333333,10.391666666666667,11.175,0,0.7833333333333333,0.5333333333333333,0.25,2.6,10,match,36.05,318,346,375,403,0,9,9,9,9,0,,,,,,,3,0,3,0,0,28,28,5,,,,,,,,,,,,num_4,1.007198999999673,num_4,0.35,1.1,0.15000000000000002,0.7,5.73083,26.74385,return,2.816640799996094,,,,,,,,,,,,,,,,,718,22,female,left_right_width,2024-08-27_17h19.24.984,exp1,2023.1.0,59.99692815658768,
,,,,,,,,,,,,,,,,4,9.1,9.7,10.3,10.9,0,0.6,0.04999999999999997,0.55,2.35,10,match,36.05,328,350,371,393,0,9,9,9,9,0,,,,,,,3,0,3,0,0,29,29,12,,,,,,,,,,,,num_4,0.7483440000069095,num_4,0.5,0.8,0.6000000000000001,0.7,22.9233,26.74385,return,1.7523403000086546,,,,,,,,,,,,,,,,,718,22,female,left_right_width,2024-08-27_17h19.24.984,exp1,2023.1.0,59.99692815658768,
,,,,,,,,,,,,,,,,4,9.1,9.7,10.3,10.9,0,0.5999999999999999,0.3499999999999999,0.25,2.05,10,match,36.05,328,350,371,393,0,9,9,9,9,0,,,,,,,3,0,3,0,0,30,30,14,,,,,,,,,,,,num_4,0.6061308000062127,num_4,0.3,0.6,0.25,0.6,9.55138,22.9233,return,3.184230500002741,,,,,,,,,,,,,,,,,718,22,female,left_right_width,2024-08-27_17h19.24.984,exp1,2023.1.0,59.99692815658768,
,,,,,,,,,,,,,,,,5,8.65,9.325,10,10.675,11.35,0.675,0.275,0.4,3.1,10,match,36.05,312,336,361,385,409,9,9,9,9,9,,,,,,,3,0,3,0,0,31,31,33,,,,,,,,,,,,num_5,0.9563216999958968,num_5,0.2,0.4,0.39999999999999997,0.55,15.2822,21.01303,return,2.5100216999999247,,,,,,,,,,,,,,,,,718,22,female,left_right_width,2024-08-27_17h19.24.984,exp1,2023.1.0,59.99692815658768,
,,,,,,,,,,,,,,,,5,7.8,8.9,10,11.1,12.2,1.1,0.7000000000000001,0.4,4.800000000000001,10,initial,36.05,281,321,361,400,440,9,9,9,9,9,,,,,,,3,0,3,0,0,32,32,38,,,,,,,,,,,,num_5,0.8138108999992255,num_5,0.35,0.7,0.2,0.75,7.6411,28.65413,return,5.435634299996309,,,,,,,,,,,,,,,,,718,22,female,left_right_width,2024-08-27_17h19.24.984,exp1,2023.1.0,59.99692815658768,
,,,,,,,,,,,,,,,,3,8.2,10,11.8,0,0,1.7999999999999998,1.4,0.4,4,10,match,36.05,296,361,425,0,0,9,9,9,0,0,,,,,,,3,0,3,0,0,33,33,51,,,,,,,,,,,,num_3,1.2915854000020772,num_3,0.2,1,0.15000000000000002,1.4,5.73083,53.48771,return,4.608186299999943,,,,,,,,,,,,,,,,,718,22,female,left_right_width,2024-08-27_17h19.24.984,exp1,2023.1.0,59.99692815658768,
,,,,,,,,,,,,,,,,4,8.9,9.633333333333333,10.366666666666667,11.1,0,0.7333333333333333,0.18333333333333326,0.55,2.75,10,match,36.05,321,347,374,400,0,9,9,9,9,0,,,,,,,3,0,3,0,0,34,34,1,,,,,,,,,,,,num_4,1.3039513000112493,num_4,0.25,0.6,0.5499999999999999,0.8,21.01303,30.5644,return,2.49444440001389,,,,,,,,,,,,,,,,,718,22,female,left_right_width,2024-08-27_17h19.24.984,exp1,2023.1.0,59.99692815658768,
,,,,,,,,,,,,,,,,4,9.3,9.766666666666667,10.233333333333333,10.7,0,0.4666666666666667,0.21666666666666665,0.25,1.65,10,match,36.05,335,352,369,386,0,9,9,9,9,0,,,,,,,3,0,3,0,0,35,35,8,,,,,,,,,,,,num_4,0.7195751999970526,num_4,0.2,0.9,0.2,0.4,7.6411,15.2822,return,1.5962189999991097,,,,,,,,,,,,,,,,,718,22,female,left_right_width,2024-08-27_17h19.24.984,exp1,2023.1.0,59.99692815658768,
,,,,,,,,,,,,,,,,5,8.2,9.1,10,10.9,11.8,0.9,0.65,0.25,3.85,10,initial,36.05,296,328,361,393,425,9,9,9,9,9,,,,,,,3,0,3,0,0,36,36,48,,,,,,,,,,,,num_5,0.8894123000063701,num_5,0.35,1.1,0.15000000000000002,0.8,5.73083,30.5644,return,3.1703028000047198,,,,,,,,,,,,,,,,,718,22,female,left_right_width,2024-08-27_17h19.24.984,exp1,2023.1.0,59.99692815658768,
,,,,,,,,,,,,,,,,5,8.95,9.475,10,10.525,11.05,0.525,0.275,0.25,2.35,10,match,36.05,323,342,361,379,398,9,9,9,9,9,,,,,,,3,0,3,0,0,37,37,25,,,,,,,,,,,,num_5,0.9567203000042355,num_5,0.45,0.5,0.20000000000000007,0.4,7.6411,15.2822,return,2.3837873000011314,,,,,,,,,,,,,,,,,718,22,female,left_right_width,2024-08-27_17h19.24.984,exp1,2023.1.0,59.99692815658768,
,,,,,,,,,,,,,,,,5,8.35,9.175,10,10.825,11.65,0.8250000000000001,0.275,0.55,3.85,10,match,36.05,301,331,361,390,420,9,9,9,9,9,,,,,,,3,0,3,0,0,38,38,18,,,,,,,,,,,,num_5,1.0786108000029344,num_5,0.5,1.3,0.30000000000000004,0.45,11.46165,17.19248,return,5.401833199997782,,,,,,,,,,,,,,,,,718,22,female,left_right_width,2024-08-27_17h19.24.984,exp1,2023.1.0,59.99692815658768,
,,,,,,,,,,,,,,,,3,8.6,10,11.4,0,0,1.4,0.85,0.55,3.35,10,match,36.05,310,361,411,0,0,9,9,9,0,0,,,,,,,3,0,3,0,0,39,39,41,,,,,,,,,,,,num_3,0.7324305000074673,num_3,0.25,0.4,0.44999999999999996,0.85,17.19248,32.47468,return,6.506754500005627,,,,,,,,,,,,,,,,,718,22,female,left_right_width,2024-08-27_17h19.24.984,exp1,2023.1.0,59.99692815658768,
,,,,,,,,,,,,,,,,5,8.35,9.175,10,10.825,11.65,0.825,0.575,0.25,3.55,10,match,36.05,301,331,361,390,420,9,9,9,9,9,,,,,,,3,0,3,0,0,40,40,20,,,,,,,,,,,,num_5,0.7648801000032108,num_5,0.3,0.8,0.35,0.7,13.37193,26.74385,return,2.158010800005286,,,,,,,,,,,,,,,,,718,22,female,left_right_width,2024-08-27_17h19.24.984,exp1,2023.1.0,59.99692815658768,
,,,,,,,,,,,,,,,,5,7.8,8.9,10,11.1,12.2,1.1,0.8500000000000001,0.25,4.65,10,initial,36.05,281,321,361,400,440,9,9,9,9,9,,,,,,,3,0,3,0,0,41,41,36,,,,,,,,,,,,num_5,0.7989648000075249,num_5,0.35,0.9,0.25,0.85,9.55138,32.47468,return,2.200032499997178,,,,,,,,,,,,,,,,,718,22,female,left_right_width,2024-08-27_17h19.24.984,exp1,2023.1.0,59.99692815658768,
,,,,,,,,,,,,,,,,3,8.2,10,11.8,0,0,1.8,1.55,0.25,3.85,10,match,36.05,296,361,425,0,0,9,9,9,0,0,,,,,,,3,0,3,0,0,42,42,49,,,,,,,,,,,,num_3,0.8921012000064366,num_3,0.35,1.2,0.25,1.2,9.55138,45.8466,return,1.6707768000051146,,,,,,,,,,,,,,,,,718,22,female,left_right_width,2024-08-27_17h19.24.984,exp1,2023.1.0,59.99692815658768,
,,,,,,,,,,,,,,,,4,8.35,9.45,10.55,11.65,0,1.1,0.8500000000000001,0.25,3.5500000000000003,10,initial,36.05,301,341,380,420,0,9,9,9,9,0,,,,,,,3,0,3,0,0,43,43,19,,,,,,,,,,,,num_5,1.0094352000014624,num_5,0.3,1.3,0.2,1.15,7.6411,43.93633,return,2.147679799993057,,,,,,,,,,,,,,,,,718,22,female,left_right_width,2024-08-27_17h19.24.984,exp1,2023.1.0,59.99692815658768,
,,,,,,,,,,,,,,,,3,9.3,10,10.7,0,0,0.7,0.29999999999999993,0.4,1.8,10,initial,36.05,335,361,386,0,0,9,9,9,0,0,,,,,,,3,0,3,0,0,44,44,9,,,,,,,,,,,,num_3,0.7225999000074808,num_3,0.2,1,0.25,0.7,9.55138,26.74385,return,2.882084800003213,,,,,,,,,,,,,,,,,718,22,female,left_right_width,2024-08-27_17h19.24.984,exp1,2023.1.0,59.99692815658768,
,,,,,,,,,,,,,,,,5,8.2,9.1,10,10.9,11.8,0.9,0.5,0.4,4,10,initial,36.05,296,328,361,393,425,9,9,9,9,9,,,,,,,3,0,3,0,0,45,45,50,,,,,,,,,,,,num_5,0.7552454999968177,num_5,0.35,0.4,0.2,0.6,7.6411,22.9233,return,3.2171260000031907,,,,,,,,,,,,,,,,,718,22,female,left_right_width,2024-08-27_17h19.24.984,exp1,2023.1.0,59.99692815658768,
,,,,,,,,,,,,,,,,4,8.9,9.633333333333333,10.366666666666667,11.1,0,0.7333333333333334,0.4833333333333334,0.25,2.45,10,match,36.05,321,347,374,400,0,9,9,9,9,0,,,,,,,3,0,3,0,0,46,46,3,,,,,,,,,,,,num_5,0.9011801999877207,num_5,0.3,1.0,0.2,0.9,7.6411,34.38495,return,2.089649300003657,,,,,,,,,,,,,,,,,718,22,female,left_right_width,2024-08-27_17h19.24.984,exp1,2023.1.0,59.99692815658768,
,,,,,,,,,,,,,,,,5,7.8,8.9,10,11.1,12.2,1.1,0.55,0.55,4.95,10,initial,36.05,281,321,361,400,440,9,9,9,9,9,,,,,,,3,0,3,0,0,47,47,34,,,,,,,,,,,,num_5,0.7162880999967456,num_5,0.2,0.4,0.35,0.8,13.37193,30.5644,return,2.815743700004532,,,,,,,,,,,,,,,,,718,22,female,left_right_width,2024-08-27_17h19.24.984,exp1,2023.1.0,59.99692815658768,
,,,,,,,,,,,,,,,,4,8.65,9.55,10.45,11.35,0,0.9,0.65,0.25,2.95,10,initial,36.05,312,344,377,409,0,9,9,9,9,0,,,,,,,3,0,3,0,0,48,48,30,,,,,,,,,,,,num_4,0.8227400000032503,num_4,0.3,0.6,0.15000000000000002,0.7,5.73083,26.74385,return,5.822817899999791,,,,,,,,,,,,,,,,,718,22,female,left_right_width,2024-08-27_17h19.24.984,exp1,2023.1.0,59.99692815658768,
,,,,,,,,,,,,,,,,3,7.800000000000001,10,12.2,0,0,2.1999999999999997,1.7999999999999998,0.4,4.8,10,match,36.05,281,361,440,0,0,9,9,9,0,0,,,,,,,3,0,3,0,0,49,49,39,,,,,,,,,,,,num_4,0.6163372000009986,num_4,0.2,0.9,0.25,1.5,9.55138,57.30826,return,4.878719599990291,,,,,,,,,,,,,,,,,718,22,female,left_right_width,2024-08-27_17h19.24.984,exp1,2023.1.0,59.99692815658768,
,,,,,,,,,,,,,,,,4,8.65,9.55,10.45,11.35,0,0.9,0.5,0.4,3.1,10,initial,36.05,312,344,377,409,0,9,9,9,9,0,,,,,,,3,0,3,0,0,50,50,32,,,,,,,,,,,,num_4,0.7806988999946043,num_4,0.25,1.1,0.3,0.8,11.46165,30.5644,return,1.6579950000013923,,,,,,,,,,,,,,,,,718,22,female,left_right_width,2024-08-27_17h19.24.984,exp1,2023.1.0,59.99692815658768,
,,,,,,,,,,,,,,,,4,8.65,9.55,10.45,11.35,0,0.9,0.35,0.55,3.25,10,initial,36.05,312,344,377,409,0,9,9,9,9,0,,,,,,,3,0,3,0,0,51,51,28,,,,,,,,,,,,num_4,0.6213849999912782,num_4,0.3,1.3,0.44999999999999996,0.7,17.19248,26.74385,return,3.530650799992145,,,,,,,,,,,,,,,,,718,22,female,left_right_width,2024-08-27_17h19.24.984,exp1,2023.1.0,59.99692815658768,
,,,,,,,,,,,,,,,,,,,,,,,,,,,,,,,,,,,,,,,,,,,,,3,0,3,0,,,,,,,,,,,,,,,,,,,,,,,,,,,,,1663.5156848999904,1663.5156848999904,1663.5156848999904,,,,,,,,,,,,718,22,female,left_right_width,2024-08-27_17h19.24.984,exp1,2023.1.0,59.99692815658768,
,,,,,,,,,,,,,,,,3,9.1,10,10.9,0,0,0.9,0.65,0.25,2.05,10,initial,36.05,328,361,393,0,0,9,9,9,0,0,,,,,,,4,0,4,0,0,0,0,13,,,,,,,,,,,,num_3,0.6964216000051238,num_3,0.25,1.2,0.25,0.8,9.55138,30.5644,return,1.879379300007713,,,,,,,,,,,,,,,,,718,22,female,left_right_width,2024-08-27_17h19.24.984,exp1,2023.1.0,59.99692815658768,
,,,,,,,,,,,,,,,,5,8.35,9.175,10,10.825,11.65,0.8250000000000001,0.275,0.55,3.85,10,match,36.05,301,331,361,390,420,9,9,9,9,9,,,,,,,4,0,4,0,0,1,1,18,,,,,,,,,,,,num_4,0.7291712000005646,num_4,0.4,0.5,0.45,0.8,17.19248,30.5644,return,1.8026434000057634,,,,,,,,,,,,,,,,,718,22,female,left_right_width,2024-08-27_17h19.24.984,exp1,2023.1.0,59.99692815658768,
,,,,,,,,,,,,,,,,5,8.2,9.1,10,10.9,11.8,0.9,0.65,0.25,3.85,10,initial,36.05,296,328,361,393,425,9,9,9,9,9,,,,,,,4,0,4,0,0,2,2,48,,,,,,,,,,,,num_5,0.9876490000024205,num_5,0.45,0.5,0.10000000000000007,1.05,3.82055,40.11578,return,9.14905560000625,,,,,,,,,,,,,,,,,718,22,female,left_right_width,2024-08-27_17h19.24.984,exp1,2023.1.0,59.99692815658768,
,,,,,,,,,,,,,,,,4,8.9,9.633333333333333,10.366666666666667,11.1,0,0.7333333333333334,0.4833333333333334,0.25,2.45,10,match,36.05,321,347,374,400,0,9,9,9,9,0,,,,,,,4,0,4,0,0,3,3,3,,,,,,,,,,,,num_4,0.6227839999919524,num_4,0.2,0.7,0.25,0.9,9.55138,34.38495,return,1.6491519999981392,,,,,,,,,,,,,,,,,718,22,female,left_right_width,2024-08-27_17h19.24.984,exp1,2023.1.0,59.99692815658768,
,,,,,,,,,,,,,,,,4,8.825,9.608333333333333,10.391666666666667,11.175,0,0.7833333333333333,0.5333333333333333,0.25,2.6,10,match,36.05,318,346,375,403,0,9,9,9,9,0,,,,,,,4,0,4,0,0,4,4,5,,,,,,,,,,,,num_5,0.6781964999972843,num_5,0.25,1.2,0.25,1.05,9.55138,40.11578,return,1.9732777000026545,,,,,,,,,,,,,,,,,718,22,female,left_right_width,2024-08-27_17h19.24.984,exp1,2023.1.0,59.99692815658768,
,,,,,,,,,,,,,,,,5,8.6,9.3,10,10.7,11.4,0.7,0.29999999999999993,0.4,3.1999999999999997,10,initial,36.05,310,335,361,386,411,9,9,9,9,9,,,,,,,4,0,4,0,0,5,5,44,,,,,,,,,,,,num_5,0.7722041999950306,num_5,0.2,0.9,0.3,0.75,11.46165,28.65413,return,2.7335642999969423,,,,,,,,,,,,,,,,,718,22,female,left_right_width,2024-08-27_17h19.24.984,exp1,2023.1.0,59.99692815658768,
,,,,,,,,,,,,,,,,5,8.65,9.325,10,10.675,11.35,0.675,0.125,0.55,3.25,10,match,36.05,312,336,361,385,409,9,9,9,9,9,,,,,,,4,0,4,0,0,6,6,29,,,,,,,,,,,,num_5,0.7232338000030722,num_5,0.55,0.8,0.4,0.7,15.2822,26.74385,return,1.6042728000029456,,,,,,,,,,,,,,,,,718,22,female,left_right_width,2024-08-27_17h19.24.984,exp1,2023.1.0,59.99692815658768,
,,,,,,,,,,,,,,,,4,8.35,9.45,10.55,11.65,0,1.1,0.7000000000000001,0.4,3.7,10,initial,36.05,301,341,380,420,0,9,9,9,9,0,,,,,,,4,0,4,0,0,7,7,21,,,,,,,,,,,,num_5,0.6901538999954937,num_5,0.2,0.3,0.2,0.6,7.6411,22.9233,return,2.6287205000116955,,,,,,,,,,,,,,,,,718,22,female,left_right_width,2024-08-27_17h19.24.984,exp1,2023.1.0,59.99692815658768,
,,,,,,,,,,,,,,,,4,8.9,9.633333333333333,10.366666666666667,11.1,0,0.7333333333333333,0.18333333333333326,0.55,2.75,10,match,36.05,321,347,374,400,0,9,9,9,9,0,,,,,,,4,0,4,0,0,8,8,1,,,,,,,,,,,,num_5,0.6064058000047226,num_5,0.4,0.9,0.25000000000000006,0.6,9.55138,22.9233,return,2.7691525999980513,,,,,,,,,,,,,,,,,718,22,female,left_right_width,2024-08-27_17h19.24.984,exp1,2023.1.0,59.99692815658768,
,,,,,,,,,,,,,,,,4,9.1,9.7,10.3,10.9,0,0.6000000000000001,0.20000000000000004,0.4,2.2,10,match,36.05,328,350,371,393,0,9,9,9,9,0,,,,,,,4,0,4,0,0,9,9,16,,,,,,,,,,,,num_4,0.776167500007432,num_4,0.5,1.2,0.35000000000000003,0.6,13.37193,22.9233,return,3.042294099999708,,,,,,,,,,,,,,,,,718,22,female,left_right_width,2024-08-27_17h19.24.984,exp1,2023.1.0,59.99692815658768,
,,,,,,,,,,,,,,,,5,8.2,9.1,10,10.9,11.8,0.9,0.35,0.55,4.15,10,initial,36.05,296,328,361,393,425,9,9,9,9,9,,,,,,,4,0,4,0,0,10,10,46,,,,,,,,,,,,num_5,0.6443766999873333,num_5,0.25,0.9,0.35,0.55,13.37193,21.01303,return,2.504254100014805,,,,,,,,,,,,,,,,,718,22,female,left_right_width,2024-08-27_17h19.24.984,exp1,2023.1.0,59.99692815658768,
,,,,,,,,,,,,,,,,4,9.3,9.766666666666667,10.233333333333333,10.7,0,0.4666666666666667,0.21666666666666665,0.25,1.65,10,match,36.05,335,352,369,386,0,9,9,9,9,0,,,,,,,4,0,4,0,0,11,11,8,,,,,,,,,,,,num_4,0.8474086000060197,num_4,0.45,0.5,0.20000000000000007,0.5,7.6411,19.10275,return,1.9626394000079017,,,,,,,,,,,,,,,,,718,22,female,left_right_width,2024-08-27_17h19.24.984,exp1,2023.1.0,59.99692815658768,
,,,,,,,,,,,,,,,,4,8.65,9.55,10.45,11.35,0,0.9,0.5,0.4,3.1,10,initial,36.05,312,344,377,409,0,9,9,9,9,0,,,,,,,4,0,4,0,0,12,12,32,,,,,,,,,,,,num_4,0.695429300001706,num_4,0.55,0.8,0.35000000000000003,0.7,13.37193,26.74385,return,1.8156327000033343,,,,,,,,,,,,,,,,,718,22,female,left_right_width,2024-08-27_17h19.24.984,exp1,2023.1.0,59.99692815658768,
,,,,,,,,,,,,,,,,3,7.8,10,12.2,0,0,2.2,1.9500000000000002,0.25,4.65,10,match,36.05,281,361,440,0,0,9,9,9,0,0,,,,,,,4,0,4,0,0,13,13,37,,,,,,,,,,,,num_3,0.5326918000064325,num_3,0.55,0.6,0.20000000000000007,1.3,7.6411,49.66716,return,5.038690299988957,,,,,,,,,,,,,,,,,718,22,female,left_right_width,2024-08-27_17h19.24.984,exp1,2023.1.0,59.99692815658768,
,,,,,,,,,,,,,,,,5,8.65,9.325,10,10.675,11.35,0.675,0.42500000000000004,0.25,2.95,10,match,36.05,312,336,361,385,409,9,9,9,9,9,,,,,,,4,0,4,0,0,14,14,31,,,,,,,,,,,,num_5,0.8538571999961277,num_5,0.35,0.6,0.10000000000000002,0.8,3.82055,30.5644,return,4.5784332000039285,,,,,,,,,,,,,,,,,718,22,female,left_right_width,2024-08-27_17h19.24.984,exp1,2023.1.0,59.99692815658768,
,,,,,,,,,,,,,,,,3,8.2,10,11.8,0,0,1.8,1.55,0.25,3.85,10,match,36.05,296,361,425,0,0,9,9,9,0,0,,,,,,,4,0,4,0,0,15,15,49,,,,,,,,,,,,num_3,1.5325030000094557,num_3,0.5,0.7,0.25000000000000006,1.1,9.55138,42.02605,return,5.278398599999491,,,,,,,,,,,,,,,,,718,22,female,left_right_width,2024-08-27_17h19.24.984,exp1,2023.1.0,59.99692815658768,
,,,,,,,,,,,,,,,,4,8.65,9.55,10.45,11.35,0,0.9,0.65,0.25,2.95,10,initial,36.05,312,344,377,409,0,9,9,9,9,0,,,,,,,4,0,4,0,0,16,16,30,,,,,,,,,,,,num_4,0.7974096000107238,num_4,0.5,0.7,0.25000000000000006,1.0,9.55138,38.2055,return,3.1304680000030203,,,,,,,,,,,,,,,,,718,22,female,left_right_width,2024-08-27_17h19.24.984,exp1,2023.1.0,59.99692815658768,
,,,,,,,,,,,,,,,,5,7.8,8.9,10,11.1,12.2,1.1,0.8500000000000001,0.25,4.65,10,initial,36.05,281,321,361,400,440,9,9,9,9,9,,,,,,,4,0,4,0,0,17,17,36,,,,,,,,,,,,num_5,0.8964268999989145,num_5,0.25,0.5,0.15000000000000002,0.7,5.73083,26.74385,return,2.2328414999938104,,,,,,,,,,,,,,,,,718,22,female,left_right_width,2024-08-27_17h19.24.984,exp1,2023.1.0,59.99692815658768,
,,,,,,,,,,,,,,,,3,9.1,10,10.9,0,0,0.9,0.5,0.4,2.2,10,initial,36.05,328,361,393,0,0,9,9,9,0,0,,,,,,,4,0,4,0,0,18,18,15,,,,,,,,,,,,num_3,0.7905295000091428,num_3,0.5,1.3,0.20000000000000007,1.3,7.6411,49.66716,return,1.9848459000058938,,,,,,,,,,,,,,,,,718,22,female,left_right_width,2024-08-27_17h19.24.984,exp1,2023.1.0,59.99692815658768,
,,,,,,,,,,,,,,,,3,8.6,10,11.4,0,0,1.4,0.85,0.55,3.35,10,match,36.05,310,361,411,0,0,9,9,9,0,0,,,,,,,4,0,4,0,0,19,19,41,,,,,,,,,,,,num_2,0.6533866000099806,num_2,0.4,1.0,0.4,1.0,15.2822,38.2055,return,1.1975322000071174,,,,,,,,,,,,,,,,,718,22,female,left_right_width,2024-08-27_17h19.24.984,exp1,2023.1.0,59.99692815658768,
,,,,,,,,,,,,,,,,3,8.2,10,11.8,0,0,1.7999999999999998,1.4,0.4,4,10,match,36.05,296,361,425,0,0,9,9,9,0,0,,,,,,,4,0,4,0,0,20,20,51,,,,,,,,,,,,num_3,0.8468986000079894,num_3,0.3,0.7,0.2,1.45,7.6411,55.39798,return,4.924199900007807,,,,,,,,,,,,,,,,,718,22,female,left_right_width,2024-08-27_17h19.24.984,exp1,2023.1.0,59.99692815658768,
,,,,,,,,,,,,,,,,4,8.95,9.65,10.35,11.05,0,0.7,0.29999999999999993,0.4,2.5,10,initial,36.05,323,348,373,398,0,9,9,9,9,0,,,,,,,4,0,4,0,0,21,21,26,,,,,,,,,,,,num_3,0.692141100007575,num_3,0.3,1,0.35,0.85,13.37193,32.47468,return,3.3521675000083633,,,,,,,,,,,,,,,,,718,22,female,left_right_width,2024-08-27_17h19.24.984,exp1,2023.1.0,59.99692815658768,
,,,,,,,,,,,,,,,,3,8.9,10,11.1,0,0,1.1,0.55,0.55,2.75,10,initial,36.05,321,361,400,0,0,9,9,9,0,0,,,,,,,4,0,4,0,0,22,22,0,,,,,,,,,,,,num_3,0.7184161000041058,num_3,0.4,0.8,0.4,0.8,15.2822,30.5644,return,0.9389155999961076,,,,,,,,,,,,,,,,,718,22,female,left_right_width,2024-08-27_17h19.24.984,exp1,2023.1.0,59.99692815658768,
,,,,,,,,,,,,,,,,3,8.2,10,11.8,0,0,1.8,1.25,0.55,4.15,10,match,36.05,296,361,425,0,0,9,9,9,0,0,,,,,,,4,0,4,0,0,23,23,47,,,,,,,,,,,,num_3,0.7343314000027021,num_3,0.45,1.3,0.4,1.55,15.2822,59.21853,return,3.2761669000028633,,,,,,,,,,,,,,,,,718,22,female,left_right_width,2024-08-27_17h19.24.984,exp1,2023.1.0,59.99692815658768,
,,,,,,,,,,,,,,,,3,9.3,10,10.7,0,0,0.7,0.29999999999999993,0.4,1.8,10,initial,36.05,335,361,386,0,0,9,9,9,0,0,,,,,,,4,0,4,0,0,24,24,9,,,,,,,,,,,,num_2,0.9737510999984806,num_2,0.55,1.2,0.45,1.0,17.19248,38.2055,return,2.8180307000147877,,,,,,,,,,,,,,,,,718,22,female,left_right_width,2024-08-27_17h19.24.984,exp1,2023.1.0,59.99692815658768,
,,,,,,,,,,,,,,,,5,8.6,9.3,10,10.7,11.4,0.7,0.44999999999999996,0.25,3.05,10,initial,36.05,310,335,361,386,411,9,9,9,9,9,,,,,,,4,0,4,0,0,25,25,42,,,,,,,,,,,,num_5,0.9350390000035986,num_5,0.35,0.7,0.25,0.7,9.55138,26.74385,return,1.5025368000060553,,,,,,,,,,,,,,,,,718,22,female,left_right_width,2024-08-27_17h19.24.984,exp1,2023.1.0,59.99692815658768,
,,,,,,,,,,,,,,,,4,8.35,9.45,10.55,11.65,0,1.1,0.55,0.55,3.8500000000000005,10,initial,36.05,301,341,380,420,0,9,9,9,9,0,,,,,,,4,0,4,0,0,26,26,17,,,,,,,,,,,,num_5,1.003090300000622,num_5,0.35,0.4,0.2,0.7,7.6411,26.74385,return,2.595055099998717,,,,,,,,,,,,,,,,,718,22,female,left_right_width,2024-08-27_17h19.24.984,exp1,2023.1.0,59.99692815658768,
,,,,,,,,,,,,,,,,4,9.1,9.7,10.3,10.9,0,0.6,0.04999999999999997,0.55,2.35,10,match,36.05,328,350,371,393,0,9,9,9,9,0,,,,,,,4,0,4,0,0,27,27,12,,,,,,,,,,,,num_5,0.7494545999943512,num_5,0.55,1.3,0.35000000000000003,0.4,13.37193,15.2822,return,7.215818600001512,,,,,,,,,,,,,,,,,718,22,female,left_right_width,2024-08-27_17h19.24.984,exp1,2023.1.0,59.99692815658768,
,,,,,,,,,,,,,,,,4,9.3,9.766666666666667,10.233333333333333,10.7,0,0.4666666666666667,0.06666666666666665,0.4,1.8,10,match,36.05,335,352,369,386,0,9,9,9,9,0,,,,,,,4,0,4,0,0,28,28,10,,,,,,,,,,,,num_4,0.7580596000043442,num_4,0.3,1.0,0.35,0.4,13.37193,15.2822,return,3.6825677000015276,,,,,,,,,,,,,,,,,718,22,female,left_right_width,2024-08-27_17h19.24.984,exp1,2023.1.0,59.99692815658768,
,,,,,,,,,,,,,,,,5,8.275,9.1375,10,10.8625,11.725,0.8625,0.6125,0.25,3.7,10,match,36.05,298,329,361,392,423,9,9,9,9,9,,,,,,,4,0,4,0,0,29,29,22,,,,,,,,,,,,num_5,0.7777414000011049,num_5,0.5,0.9,0.35000000000000003,0.9,13.37193,34.38495,return,1.6535260999953607,,,,,,,,,,,,,,,,,718,22,female,left_right_width,2024-08-27_17h19.24.984,exp1,2023.1.0,59.99692815658768,
,,,,,,,,,,,,,,,,4,8.95,9.65,10.35,11.05,0,0.7,0.1499999999999999,0.55,2.65,10,initial,36.05,323,348,373,398,0,9,9,9,9,0,,,,,,,4,0,4,0,0,30,30,23,,,,,,,,,,,,num_4,0.784018999998807,num_4,0.45,0.9,0.45,0.6,17.19248,22.9233,return,1.8368884999945294,,,,,,,,,,,,,,,,,718,22,female,left_right_width,2024-08-27_17h19.24.984,exp1,2023.1.0,59.99692815658768,
,,,,,,,,,,,,,,,,5,8.95,9.475,10,10.525,11.05,0.525,0.275,0.25,2.35,10,match,36.05,323,342,361,379,398,9,9,9,9,9,,,,,,,4,0,4,0,0,31,31,25,,,,,,,,,,,,num_4,1.0111162999965018,num_4,0.3,0.8,0.35,0.6,13.37193,22.9233,return,3.369741399990744,,,,,,,,,,,,,,,,,718,22,female,left_right_width,2024-08-27_17h19.24.984,exp1,2023.1.0,59.99692815658768,
,,,,,,,,,,,,,,,,3,8.9,10,11.1,0,0,1.1,0.7000000000000001,0.4,2.6000000000000005,10,initial,36.05,321,361,400,0,0,9,9,9,0,0,,,,,,,4,0,4,0,0,32,32,4,,,,,,,,,,,,num_3,0.8650591000041459,num_3,0.45,0.5,0.25000000000000006,1.15,9.55138,43.93633,return,4.503431600009208,,,,,,,,,,,,,,,,,718,22,female,left_right_width,2024-08-27_17h19.24.984,exp1,2023.1.0,59.99692815658768,
,,,,,,,,,,,,,,,,3,8.9,10,11.1,0,0,1.1,0.8500000000000001,0.25,2.45,10,initial,36.05,321,361,400,0,0,9,9,9,0,0,,,,,,,4,0,4,0,0,33,33,2,,,,,,,,,,,,num_3,0.633944800007157,num_3,0.3,1.1,0.15000000000000002,1.05,5.73083,40.11578,return,1.791515700009768,,,,,,,,,,,,,,,,,718,22,female,left_right_width,2024-08-27_17h19.24.984,exp1,2023.1.0,59.99692815658768,
,,,,,,,,,,,,,,,,3,7.8,10,12.2,0,0,2.2,1.65,0.55,4.95,10,match,36.05,281,361,440,0,0,9,9,9,0,0,,,,,,,4,0,4,0,0,34,34,35,,,,,,,,,,,,num_3,0.6404428000096232,num_3,0.25,1.3,0.35,1.45,13.37193,55.39798,return,2.449747499995283,,,,,,,,,,,,,,,,,718,22,female,left_right_width,2024-08-27_17h19.24.984,exp1,2023.1.0,59.99692815658768,
,,,,,,,,,,,,,,,,5,8.65,9.325,10,10.675,11.35,0.675,0.275,0.4,3.1,10,match,36.05,312,336,361,385,409,9,9,9,9,9,,,,,,,4,0,4,0,0,35,35,33,,,,,,,,,,,,num_4,0.8748123999976087,num_4,0.3,1.1,0.35,1.0,13.37193,38.2055,return,3.7970934999902966,,,,,,,,,,,,,,,,,718,22,female,left_right_width,2024-08-27_17h19.24.984,exp1,2023.1.0,59.99692815658768,
,,,,,,,,,,,,,,,,3,9.1,10,10.9,0,0,0.9,0.35,0.55,2.35,10,initial,36.05,328,361,393,0,0,9,9,9,0,0,,,,,,,4,0,4,0,0,36,36,11,,,,,,,,,,,,num_2,0.6949830999947153,num_2,0.35,1.6,0.49999999999999994,0.7,19.10275,26.74385,return,7.35521520000475,,,,,,,,,,,,,,,,,718,22,female,left_right_width,2024-08-27_17h19.24.984,exp1,2023.1.0,59.99692815658768,
,,,,,,,,,,,,,,,,5,8.35,9.175,10,10.825,11.65,0.825,0.575,0.25,3.55,10,match,36.05,301,331,361,390,420,9,9,9,9,9,,,,,,,4,0,4,0,0,37,37,20,,,,,,,,,,,,num_4,0.7488537999888649,num_4,0.45,0.6,0.25000000000000006,1.0,9.55138,38.2055,return,3.4050963999907253,,,,,,,,,,,,,,,,,718,22,female,left_right_width,2024-08-27_17h19.24.984,exp1,2023.1.0,59.99692815658768,
,,,,,,,,,,,,,,,,4,8.65,9.55,10.45,11.35,0,0.9,0.35,0.55,3.25,10,initial,36.05,312,344,377,409,0,9,9,9,9,0,,,,,,,4,0,4,0,0,38,38,28,,,,,,,,,,,,num_4,0.5883887000090908,num_4,0.4,0.8,0.4,0.8,15.2822,30.5644,return,0.9284092000016244,,,,,,,,,,,,,,,,,718,22,female,left_right_width,2024-08-27_17h19.24.984,exp1,2023.1.0,59.99692815658768,
,,,,,,,,,,,,,,,,5,7.8,8.9,10,11.1,12.2,1.1,0.55,0.55,4.95,10,initial,36.05,281,321,361,400,440,9,9,9,9,9,,,,,,,4,0,4,0,0,39,39,34,,,,,,,,,,,,num_5,1.1352002000057837,num_5,0.35,1.3,0.35,1.0,13.37193,38.2055,return,2.2997786000050837,,,,,,,,,,,,,,,,,718,22,female,left_right_width,2024-08-27_17h19.24.984,exp1,2023.1.0,59.99692815658768,
,,,,,,,,,,,,,,,,4,9.1,9.7,10.3,10.9,0,0.5999999999999999,0.3499999999999999,0.25,2.05,10,match,36.05,328,350,371,393,0,9,9,9,9,0,,,,,,,4,0,4,0,0,40,40,14,,,,,,,,,,,,num_4,0.6725566000095569,num_4,0.5,1.2,0.25000000000000006,0.5,9.55138,19.10275,return,2.8026479999971343,,,,,,,,,,,,,,,,,718,22,female,left_right_width,2024-08-27_17h19.24.984,exp1,2023.1.0,59.99692815658768,
,,,,,,,,,,,,,,,,3,7.800000000000001,10,12.2,0,0,2.1999999999999997,1.7999999999999998,0.4,4.8,10,match,36.05,281,361,440,0,0,9,9,9,0,0,,,,,,,4,0,4,0,0,41,41,39,,,,,,,,,,,,num_3,0.5782835999998497,num_3,0.45,0.8,0.25000000000000006,1.0,9.55138,38.2055,return,2.217898000002606,,,,,,,,,,,,,,,,,718,22,female,left_right_width,2024-08-27_17h19.24.984,exp1,2023.1.0,59.99692815658768,
,,,,,,,,,,,,,,,,5,7.8,8.9,10,11.1,12.2,1.1,0.7000000000000001,0.4,4.800000000000001,10,initial,36.05,281,321,361,400,440,9,9,9,9,9,,,,,,,4,0,4,0,0,42,42,38,,,,,,,,,,,,num_4,0.8565542000142159,num_4,0.3,0.7,0.25,1.0,9.55138,38.2055,return,2.704232400006731,,,,,,,,,,,,,,,,,718,22,female,left_right_width,2024-08-27_17h19.24.984,exp1,2023.1.0,59.99692815658768,
,,,,,,,,,,,,,,,,5,8.6,9.3,10,10.7,11.4,0.7,0.1499999999999999,0.55,3.3499999999999996,10,initial,36.05,310,335,361,386,411,9,9,9,9,9,,,,,,,4,0,4,0,0,43,43,40,,,,,,,,,,,,num_4,0.706426000004285,num_4,0.55,0.6,0.4,1.0,15.2822,38.2055,return,3.9191616000025533,,,,,,,,,,,,,,,,,718,22,female,left_right_width,2024-08-27_17h19.24.984,exp1,2023.1.0,59.99692815658768,
,,,,,,,,,,,,,,,,5,8.95,9.475,10,10.525,11.05,0.525,0.125,0.4,2.5,10,match,36.05,323,342,361,379,398,9,9,9,9,9,,,,,,,4,0,4,0,0,44,44,27,,,,,,,,,,,,num_5,0.8521523999952478,num_5,0.35,0.8,0.35,0.5,13.37193,19.10275,return,5.247514400005457,,,,,,,,,,,,,,,,,718,22,female,left_right_width,2024-08-27_17h19.24.984,exp1,2023.1.0,59.99692815658768,
,,,,,,,,,,,,,,,,3,8.525,10,11.475,0,0,1.475,1.225,0.25,3.2,10,match,36.05,307,361,414,0,0,9,9,9,0,0,,,,,,,4,0,4,0,0,45,45,45,,,,,,,,,,,,num_3,5.85668959999748,num_3,0.45,0.6,0.45,0.6,17.19248,22.9233,return,0.6391424000030383,,,,,,,,,,,,,,,,,718,22,female,left_right_width,2024-08-27_17h19.24.984,exp1,2023.1.0,59.99692815658768,
,,,,,,,,,,,,,,,,4,8.35,9.45,10.55,11.65,0,1.1,0.8500000000000001,0.25,3.5500000000000003,10,initial,36.05,301,341,380,420,0,9,9,9,9,0,,,,,,,4,0,4,0,0,46,46,19,,,,,,,,,,,,num_4,0.9086638000007952,num_4,0.2,1.3,0.2,0.8,7.6411,30.5644,return,2.469122900001821,,,,,,,,,,,,,,,,,718,22,female,left_right_width,2024-08-27_17h19.24.984,exp1,2023.1.0,59.99692815658768,
,,,,,,,,,,,,,,,,5,8.2,9.1,10,10.9,11.8,0.9,0.5,0.4,4,10,initial,36.05,296,328,361,393,425,9,9,9,9,9,,,,,,,4,0,4,0,0,47,47,50,,,,,,,,,,,,num_5,0.805952900002012,num_5,0.45,1.3,0.20000000000000007,0.7,7.6411,26.74385,return,4.434891800003243,,,,,,,,,,,,,,,,,718,22,female,left_right_width,2024-08-27_17h19.24.984,exp1,2023.1.0,59.99692815658768,
,,,,,,,,,,,,,,,,3,8.6,10,11.4,0,0,1.4,1.15,0.25,3.05,10,match,36.05,310,361,411,0,0,9,9,9,0,0,,,,,,,4,0,4,0,0,48,48,43,,,,,,,,,,,,num_3,0.7581333999987692,num_3,0.4,1.1,0.15000000000000008,1.0,5.73083,38.2055,return,1.9222188999992795,,,,,,,,,,,,,,,,,718,22,female,left_right_width,2024-08-27_17h19.24.984,exp1,2023.1.0,59.99692815658768,
,,,,,,,,,,,,,,,,4,8.95,9.65,10.35,11.05,0,0.7,0.44999999999999996,0.25,2.3499999999999996,10,initial,36.05,323,348,373,398,0,9,9,9,9,0,,,,,,,4,0,4,0,0,49,49,24,,,,,,,,,,,,num_3,0.922733999992488,num_3,0.45,0.6,0.20000000000000007,0.6,7.6411,22.9233,return,2.097413700001198,,,,,,,,,,,,,,,,,718,22,female,left_right_width,2024-08-27_17h19.24.984,exp1,2023.1.0,59.99692815658768,
,,,,,,,,,,,,,,,,3,9.3,10,10.7,0,0,0.7,0.44999999999999996,0.25,1.65,10,initial,36.05,335,361,386,0,0,9,9,9,0,0,,,,,,,4,0,4,0,0,50,50,7,,,,,,,,,,,,num_3,0.7537160000065342,num_3,0.45,0.5,0.20000000000000007,0.45,7.6411,17.19248,return,2.2395155999984127,,,,,,,,,,,,,,,,,718,22,female,left_right_width,2024-08-27_17h19.24.984,exp1,2023.1.0,59.99692815658768,
,,,,,,,,,,,,,,,,3,9.3,10,10.7,0,0,0.7,0.1499999999999999,0.55,1.95,10,initial,36.05,335,361,386,0,0,9,9,9,0,0,,,,,,,4,0,4,0,0,51,51,6,,,,,,,,,,,,num_3,0.9340498999954434,num_3,0.4,1.1,0.45,0.7,17.19248,26.74385,return,3.3118209000094794,,,,,,,,,,,,,,,,,718,22,female,left_right_width,2024-08-27_17h19.24.984,exp1,2023.1.0,59.99692815658768,
,,,,,,,,,,,,,,,,,,,,,,,,,,,,,,,,,,,,,,,,,,,,,4,0,4,0,,,,,,,,,,,,,,,,,,,,,,,,,,,,,1954.58242169999,1954.58242169999,1954.58242169999,,,,,,,,,,,,718,22,female,left_right_width,2024-08-27_17h19.24.984,exp1,2023.1.0,59.99692815658768,
,,,,,,,,,,,,,,,,5,8.65,9.325,10,10.675,11.35,0.675,0.275,0.4,3.1,10,match,36.05,312,336,361,385,409,9,9,9,9,9,,,,,,,5,0,5,0,0,0,0,33,,,,,,,,,,,,num_4,0.8410797999968054,num_4,0.25,0.3,0.3,0.7,11.46165,26.74385,return,2.2098467000032542,,,,,,,,,,,,,,,,,718,22,female,left_right_width,2024-08-27_17h19.24.984,exp1,2023.1.0,59.99692815658768,
,,,,,,,,,,,,,,,,5,8.95,9.475,10,10.525,11.05,0.525,0.125,0.4,2.5,10,match,36.05,323,342,361,379,398,9,9,9,9,9,,,,,,,5,0,5,0,0,1,1,27,,,,,,,,,,,,num_4,0.8489513999957126,num_4,0.35,1.3,0.35,0.6,13.37193,22.9233,return,1.9782074999966426,,,,,,,,,,,,,,,,,718,22,female,left_right_width,2024-08-27_17h19.24.984,exp1,2023.1.0,59.99692815658768,
,,,,,,,,,,,,,,,,3,9.1,10,10.9,0,0,0.9,0.65,0.25,2.05,10,initial,36.05,328,361,393,0,0,9,9,9,0,0,,,,,,,5,0,5,0,0,2,2,13,,,,,,,,,,,,num_3,0.5468451000051573,num_3,0.55,1.1,0.25000000000000006,1.05,9.55138,40.11578,return,2.2841316999983974,,,,,,,,,,,,,,,,,718,22,female,left_right_width,2024-08-27_17h19.24.984,exp1,2023.1.0,59.99692815658768,
,,,,,,,,,,,,,,,,4,8.65,9.55,10.45,11.35,0,0.9,0.35,0.55,3.25,10,initial,36.05,312,344,377,409,0,9,9,9,9,0,,,,,,,5,0,5,0,0,3,3,28,,,,,,,,,,,,num_4,0.7444696000020485,num_4,0.55,1.3,0.30000000000000004,0.9,11.46165,34.38495,return,2.5168047999904957,,,,,,,,,,,,,,,,,718,22,female,left_right_width,2024-08-27_17h19.24.984,exp1,2023.1.0,59.99692815658768,
,,,,,,,,,,,,,,,,4,8.95,9.65,10.35,11.05,0,0.7,0.1499999999999999,0.55,2.65,10,initial,36.05,323,348,373,398,0,9,9,9,9,0,,,,,,,5,0,5,0,0,4,4,23,,,,,,,,,,,,num_4,0.6825954999949317,num_4,0.45,0.6,0.45,0.6,17.19248,22.9233,return,0.9721104000054765,,,,,,,,,,,,,,,,,718,22,female,left_right_width,2024-08-27_17h19.24.984,exp1,2023.1.0,59.99692815658768,
,,,,,,,,,,,,,,,,4,8.35,9.45,10.55,11.65,0,1.1,0.8500000000000001,0.25,3.5500000000000003,10,initial,36.05,301,341,380,420,0,9,9,9,9,0,,,,,,,5,0,5,0,0,5,5,19,,,,,,,,,,,,num_4,0.6831550000060815,num_4,0.4,0.6,0.25000000000000006,1.0,9.55138,38.2055,return,5.9682882000051904,,,,,,,,,,,,,,,,,718,22,female,left_right_width,2024-08-27_17h19.24.984,exp1,2023.1.0,59.99692815658768,
,,,,,,,,,,,,,,,,4,8.95,9.65,10.35,11.05,0,0.7,0.44999999999999996,0.25,2.3499999999999996,10,initial,36.05,323,348,373,398,0,9,9,9,9,0,,,,,,,5,0,5,0,0,6,6,24,,,,,,,,,,,,num_4,0.8346370000072056,num_4,0.5,1.0,0.25000000000000006,0.7,9.55138,26.74385,return,3.8025284000032116,,,,,,,,,,,,,,,,,718,22,female,left_right_width,2024-08-27_17h19.24.984,exp1,2023.1.0,59.99692815658768,
