amount_p,posx1_p,posx2_p,posx3_p,posx4_p,posx5_p,center_to_center_p,edge_to_edge_p,w_p,stim_lengt_p,eccentricity_p,line1_p,line2_p,line3_p,line4_p,line5_p,amount,posx1,posx2,posx3,posx4,posx5,center_to_center,edge_to_edge,w,stim_length,eccentricity,trial_type,deg_to_pix_index,posx1_in_pix,posx2_in_pix,posx3_in_pix,posx4_in_pix,posx5_in_pix,line1,line2,line3,line4,line5,posx,setsize_cobdi,trials.thisRepN,trials.thisTrialN,trials.thisN,trials.thisIndex,blocks.thisRepN,blocks.thisTrialN,blocks.thisN,blocks.thisIndex,loop.thisRepN,loop.thisTrialN,loop.thisN,loop.thisIndex,first.thisRepN,first.thisTrialN,first.thisN,first.thisIndex,second.thisRepN,second.thisTrialN,second.thisN,second.thisIndex,key_resp_3.started,key_resp_3.keys,key_resp_3.rt,key_resp.keys,key_resp.rt,response,starting_width_deg,starting_space_deg,response_width_degree,response_spacing_degree,response_width_pixel,response_spacing_pixel,next_5.keys,next_5.rt,key_resp_4.keys,key_resp_4.rt,text_3.started,text_4.started,key_resp_2.started,text_2.started,key_resp_2.keys,key_resp_2.rt,adjusting.started,next.keys,next.rt,text_control2.started,key_resp.started,key_resp.corr,text_bye.started,text_bye.stopped,participant,age,gender,resp_group,date,expName,psychopyVersion,frameRate,
,,,,,,,,,,,,,,,,,,,,,,,,,,,,,,,,,,,,,,,,,,,,,,,,,,,,,,,,,,,,,374.51619409999694,c,118.00678900000639,,,,,,,,,,,,,,,,,,,,,,,,,,,,719,24,female,left_right_width,2024-08-29_09h03.21.715,exp1,2023.1.0,60.07131667171488,
4,9.25,9.75,10.25,10.75,0,0.5,0.25,0.25,1.75,10,9,9,9,9,0,,,,,,,,,,,,,,,,,,,,,,,,,,0,0,0,4,,,,,,,,,,,,,,,,,,,,num_3,1.5096847000240814,num_3,0.25,0.3,0.15000000000000002,0.5,5.73083,19.10275,return,19.6636131000123,,,,,,,,,,,,,,,,,719,24,female,left_right_width,2024-08-29_09h03.21.715,exp1,2023.1.0,60.07131667171488,
5,8.6,9.3,10,10.7,11.4,0.7,0.29999999999999993,0.4,3.1999999999999997,10,9,9,9,9,9,,,,,,,,,,,,,,,,,,,,,,,,,,0,1,1,7,,,,,,,,,,,,,,,,,,,,num_4,1.6493501999939326,num_4,0.45,1.3,0.35000000000000003,1.4,13.37193,53.48771,return,7.318656199990073,,,,,,,,,,,,,,,,,719,24,female,left_right_width,2024-08-29_09h03.21.715,exp1,2023.1.0,60.07131667171488,
3,9,10,11,0,0,1,0.9,0.1,2.1,10,9,9,9,0,0,,,,,,,,,,,,,,,,,,,,,,,,,,0,2,2,1,,,,,,,,,,,,,,,,,,,,num_3,1.6590679999790154,num_3,0.4,1,0.15000000000000008,1,5.73083,38.2055,return,5.107148399983998,,,,,,,,,,,,,,,,,719,24,female,left_right_width,2024-08-29_09h03.21.715,exp1,2023.1.0,60.07131667171488,
3,8.2,10,11.8,0,0,1.7999999999999998,1.4,0.4,4,10,9,9,9,0,0,,,,,,,,,,,,,,,,,,,,,,,,,,0,3,3,2,,,,,,,,,,,,,,,,,,,,num_4,1.6341164000041317,num_4,0.45,0.7,0.30000000000000004,0.7,11.46165,26.74385,return,3.5937872999929823,,,,,,,,,,,,,,,,,719,24,female,left_right_width,2024-08-29_09h03.21.715,exp1,2023.1.0,60.07131667171488,
4,8.65,9.55,10.45,11.35,0,0.9,0.5,0.4,3.1,10,9,9,9,9,0,,,,,,,,,,,,,,,,,,,,,,,,,,0,4,4,5,,,,,,,,,,,,,,,,,,,,num_4,2.0816484999959357,num_4,0.45,0.9,0.35000000000000003,0.9,13.37193,34.38495,return,2.935943699994823,,,,,,,,,,,,,,,,,719,24,female,left_right_width,2024-08-29_09h03.21.715,exp1,2023.1.0,60.07131667171488,
5,9.25,9.625,10,10.375,10.75,0.375,0.125,0.25,1.75,10,9,9,9,9,9,,,,,,,,,,,,,,,,,,,,,,,,,,0,5,5,6,,,,,,,,,,,,,,,,,,,,num_4,1.816245499998331,num_4,0.4,1.2,0.25000000000000006,0.8,9.55138,30.5644,return,6.739350999996532,,,,,,,,,,,,,,,,,719,24,female,left_right_width,2024-08-29_09h03.21.715,exp1,2023.1.0,60.07131667171488,
4,9.5,9.833333333333334,10.166666666666666,10.5,0,0.33333333333333337,0.23333333333333336,0.1,1.1,10,9,9,9,9,0,,,,,,,,,,,,,,,,,,,,,,,,,,0,6,6,3,,,,,,,,,,,,,,,,,,,,num_4,2.7881827000237536,num_4,0.4,1.1,0.10000000000000007,0.6,3.82055,22.9233,return,5.716394699993543,,,,,,,,,,,,,,,,,719,24,female,left_right_width,2024-08-29_09h03.21.715,exp1,2023.1.0,60.07131667171488,
3,9.5,10,10.5,0,0,0.5,0.4,0.1,1.1,10,9,9,9,0,0,,,,,,,,,,,,,,,,,,,,,,,,,,0,7,7,0,,,,,,,,,,,,,,,,,,,,num_4,2.310509800008731,num_4,0.35,0.7,0.10000000000000002,0.6,3.82055,22.9233,return,6.282117399998242,,,,,,,,,,,,,,,,,719,24,female,left_right_width,2024-08-29_09h03.21.715,exp1,2023.1.0,60.07131667171488,
5,9,9.5,10,10.5,11,0.5,0.09999999999999998,0.4,2.4,10,9,9,9,9,9,,,,,,,,,,,,,,,,,,,,,,,,,,0,8,8,8,,,,,,,,,,,,,,,,,,,,num_4,1.4550343999871984,num_4,0.5,1.2,0.30000000000000004,0.9,11.46165,34.38495,return,5.406101600005059,,,,,,,,,,,,,,,,,719,24,female,left_right_width,2024-08-29_09h03.21.715,exp1,2023.1.0,60.07131667171488,
,,,,,,,,,,,,,,,,,,,,,,,,,,,,,,,,,,,,,,,,,,,,,,,,,,,,,,,,,,,,,,,,,,,,,,,,,,,c,102.66499080002541,,,,,,,,,,,,,,,719,24,female,left_right_width,2024-08-29_09h03.21.715,exp1,2023.1.0,60.07131667171488,
,,,,,,,,,,,,,,,,4,8.35,9.45,10.55,11.65,0,1.1,0.55,0.55,3.8500000000000005,10,initial,36.05,301,341,380,420,0,9,9,9,9,0,,,,,,,0,0,0,0,0,0,0,17,,,,,,,,,,,,num_4,1.791666199977044,num_4,0.25,0.7,0.35,0.8,13.37193,30.5644,return,3.8538527000055183,,,,,,,,,,,,,,,,,719,24,female,left_right_width,2024-08-29_09h03.21.715,exp1,2023.1.0,60.07131667171488,
,,,,,,,,,,,,,,,,4,9.1,9.7,10.3,10.9,0,0.6,0.04999999999999997,0.55,2.35,10,match,36.05,328,350,371,393,0,9,9,9,9,0,,,,,,,0,0,0,0,0,1,1,12,,,,,,,,,,,,num_4,1.1663364999985788,num_4,0.5,1.3,0.6500000000000001,1.0,24.83358,38.2055,return,4.75111559999641,,,,,,,,,,,,,,,,,719,24,female,left_right_width,2024-08-29_09h03.21.715,exp1,2023.1.0,60.07131667171488,
,,,,,,,,,,,,,,,,4,8.95,9.65,10.35,11.05,0,0.7,0.29999999999999993,0.4,2.5,10,initial,36.05,323,348,373,398,0,9,9,9,9,0,,,,,,,0,0,0,0,0,2,2,26,,,,,,,,,,,,num_4,1.4179242000100203,num_4,0.25,1.3,0.35,1.0,13.37193,38.2055,return,4.010981700004777,,,,,,,,,,,,,,,,,719,24,female,left_right_width,2024-08-29_09h03.21.715,exp1,2023.1.0,60.07131667171488,
,,,,,,,,,,,,,,,,5,8.275,9.1375,10,10.8625,11.725,0.8625,0.6125,0.25,3.7,10,match,36.05,298,329,361,392,423,9,9,9,9,9,,,,,,,0,0,0,0,0,3,3,22,,,,,,,,,,,,num_4,1.1998099999909755,num_4,0.25,1.1,0.25,0.8,9.55138,30.5644,return,3.038620599982096,,,,,,,,,,,,,,,,,719,24,female,left_right_width,2024-08-29_09h03.21.715,exp1,2023.1.0,60.07131667171488,
,,,,,,,,,,,,,,,,5,8.95,9.475,10,10.525,11.05,0.525,0.125,0.4,2.5,10,match,36.05,323,342,361,379,398,9,9,9,9,9,,,,,,,0,0,0,0,0,4,4,27,,,,,,,,,,,,num_4,1.1933630999992602,num_4,0.35,0.6,0.3,0.6,11.46165,22.9233,return,3.4735649000213016,,,,,,,,,,,,,,,,,719,24,female,left_right_width,2024-08-29_09h03.21.715,exp1,2023.1.0,60.07131667171488,
,,,,,,,,,,,,,,,,5,8.65,9.325,10,10.675,11.35,0.675,0.125,0.55,3.25,10,match,36.05,312,336,361,385,409,9,9,9,9,9,,,,,,,0,0,0,0,0,5,5,29,,,,,,,,,,,,num_4,1.1661656999785919,num_4,0.4,1.3,0.5,0.9,19.10275,34.38495,return,3.3831541999825276,,,,,,,,,,,,,,,,,719,24,female,left_right_width,2024-08-29_09h03.21.715,exp1,2023.1.0,60.07131667171488,
,,,,,,,,,,,,,,,,5,8.6,9.3,10,10.7,11.4,0.7,0.44999999999999996,0.25,3.05,10,initial,36.05,310,335,361,386,411,9,9,9,9,9,,,,,,,0,0,0,0,0,6,6,42,,,,,,,,,,,,num_4,1.2680610999814235,num_4,0.35,1.3,0.35,1.0,13.37193,38.2055,return,3.754687600012403,,,,,,,,,,,,,,,,,719,24,female,left_right_width,2024-08-29_09h03.21.715,exp1,2023.1.0,60.07131667171488,
,,,,,,,,,,,,,,,,4,8.95,9.65,10.35,11.05,0,0.7,0.44999999999999996,0.25,2.3499999999999996,10,initial,36.05,323,348,373,398,0,9,9,9,9,0,,,,,,,0,0,0,0,0,7,7,24,,,,,,,,,,,,num_4,1.3090816999902017,num_4,0.5,1.2,0.25000000000000006,0.9,9.55138,34.38495,return,3.1381500999850687,,,,,,,,,,,,,,,,,719,24,female,left_right_width,2024-08-29_09h03.21.715,exp1,2023.1.0,60.07131667171488,
,,,,,,,,,,,,,,,,5,8.65,9.325,10,10.675,11.35,0.675,0.42500000000000004,0.25,2.95,10,match,36.05,312,336,361,385,409,9,9,9,9,9,,,,,,,0,0,0,0,0,8,8,31,,,,,,,,,,,,num_4,1.145738999999594,num_4,0.4,0.6,0.25000000000000006,0.8,9.55138,30.5644,return,5.779720400023507,,,,,,,,,,,,,,,,,719,24,female,left_right_width,2024-08-29_09h03.21.715,exp1,2023.1.0,60.07131667171488,
,,,,,,,,,,,,,,,,3,9.1,10,10.9,0,0,0.9,0.65,0.25,2.05,10,initial,36.05,328,361,393,0,0,9,9,9,0,0,,,,,,,0,0,0,0,0,9,9,13,,,,,,,,,,,,num_4,1.068689900013851,num_4,0.2,0.8,0.25,0.8,9.55138,30.5644,return,1.613240600010613,,,,,,,,,,,,,,,,,719,24,female,left_right_width,2024-08-29_09h03.21.715,exp1,2023.1.0,60.07131667171488,
,,,,,,,,,,,,,,,,4,8.65,9.55,10.45,11.35,0,0.9,0.65,0.25,2.95,10,initial,36.05,312,344,377,409,0,9,9,9,9,0,,,,,,,0,0,0,0,0,10,10,30,,,,,,,,,,,,num_4,1.0281720999919344,num_4,0.4,1.3,0.20000000000000007,0.8,7.6411,30.5644,return,2.80362459999742,,,,,,,,,,,,,,,,,719,24,female,left_right_width,2024-08-29_09h03.21.715,exp1,2023.1.0,60.07131667171488,
,,,,,,,,,,,,,,,,5,8.65,9.325,10,10.675,11.35,0.675,0.275,0.4,3.1,10,match,36.05,312,336,361,385,409,9,9,9,9,9,,,,,,,0,0,0,0,0,11,11,33,,,,,,,,,,,,num_4,1.2016094000136945,num_4,0.25,0.5,0.3,0.7,11.46165,26.74385,return,6.360752600012347,,,,,,,,,,,,,,,,,719,24,female,left_right_width,2024-08-29_09h03.21.715,exp1,2023.1.0,60.07131667171488,
,,,,,,,,,,,,,,,,3,8.2,10,11.8,0,0,1.8,1.55,0.25,3.85,10,match,36.05,296,361,425,0,0,9,9,9,0,0,,,,,,,0,0,0,0,0,12,12,49,,,,,,,,,,,,num_3,3.085061100020539,num_3,0.2,0.5,0.2,1.0,7.6411,38.2055,return,5.3444313000072725,,,,,,,,,,,,,,,,,719,24,female,left_right_width,2024-08-29_09h03.21.715,exp1,2023.1.0,60.07131667171488,
,,,,,,,,,,,,,,,,4,9.3,9.766666666666667,10.233333333333333,10.7,0,0.4666666666666667,0.21666666666666665,0.25,1.65,10,match,36.05,335,352,369,386,0,9,9,9,9,0,,,,,,,0,0,0,0,0,13,13,8,,,,,,,,,,,,num_4,1.26253910001833,num_4,0.5,1.2,0.20000000000000007,0.5,7.6411,19.10275,return,4.315911799989408,,,,,,,,,,,,,,,,,719,24,female,left_right_width,2024-08-29_09h03.21.715,exp1,2023.1.0,60.07131667171488,
,,,,,,,,,,,,,,,,3,7.8,10,12.2,0,0,2.2,1.65,0.55,4.95,10,match,36.05,281,361,440,0,0,9,9,9,0,0,,,,,,,0,0,0,0,0,14,14,35,,,,,,,,,,,,num_4,1.7012836000067182,num_4,0.3,1.3,0.3,1.4,11.46165,53.48771,return,3.660509400011506,,,,,,,,,,,,,,,,,719,24,female,left_right_width,2024-08-29_09h03.21.715,exp1,2023.1.0,60.07131667171488,
,,,,,,,,,,,,,,,,3,8.525,10,11.475,0,0,1.475,1.225,0.25,3.2,10,match,36.05,307,361,414,0,0,9,9,9,0,0,,,,,,,0,0,0,0,0,15,15,45,,,,,,,,,,,,num_4,2.1327272999915294,num_4,0.25,0.4,0.25,1.0,9.55138,38.2055,return,2.7603184999898076,,,,,,,,,,,,,,,,,719,24,female,left_right_width,2024-08-29_09h03.21.715,exp1,2023.1.0,60.07131667171488,
,,,,,,,,,,,,,,,,4,8.35,9.45,10.55,11.65,0,1.1,0.7000000000000001,0.4,3.7,10,initial,36.05,301,341,380,420,0,9,9,9,9,0,,,,,,,0,0,0,0,0,16,16,21,,,,,,,,,,,,num_4,1.29438810001011,num_4,0.3,0.6,0.3,1.1,11.46165,42.02605,return,3.637585799995577,,,,,,,,,,,,,,,,,719,24,female,left_right_width,2024-08-29_09h03.21.715,exp1,2023.1.0,60.07131667171488,
,,,,,,,,,,,,,,,,5,8.95,9.475,10,10.525,11.05,0.525,0.275,0.25,2.35,10,match,36.05,323,342,361,379,398,9,9,9,9,9,,,,,,,0,0,0,0,0,17,17,25,,,,,,,,,,,,num_4,1.1199048999988008,num_4,0.2,0.9,0.35,0.8,13.37193,30.5644,return,4.290820499998517,,,,,,,,,,,,,,,,,719,24,female,left_right_width,2024-08-29_09h03.21.715,exp1,2023.1.0,60.07131667171488,
,,,,,,,,,,,,,,,,3,9.1,10,10.9,0,0,0.9,0.5,0.4,2.2,10,initial,36.05,328,361,393,0,0,9,9,9,0,0,,,,,,,0,0,0,0,0,18,18,15,,,,,,,,,,,,num_4,1.0177056000102311,num_4,0.2,0.8,0.25,1.2,9.55138,45.8466,return,2.7639066000119783,,,,,,,,,,,,,,,,,719,24,female,left_right_width,2024-08-29_09h03.21.715,exp1,2023.1.0,60.07131667171488,
,,,,,,,,,,,,,,,,4,8.95,9.65,10.35,11.05,0,0.7,0.1499999999999999,0.55,2.65,10,initial,36.05,323,348,373,398,0,9,9,9,9,0,,,,,,,0,0,0,0,0,19,19,23,,,,,,,,,,,,num_4,0.9549771000165492,num_4,0.35,0.7,0.39999999999999997,0.6,15.2822,22.9233,return,5.35865300000296,,,,,,,,,,,,,,,,,719,24,female,left_right_width,2024-08-29_09h03.21.715,exp1,2023.1.0,60.07131667171488,
,,,,,,,,,,,,,,,,5,7.8,8.9,10,11.1,12.2,1.1,0.7000000000000001,0.4,4.800000000000001,10,initial,36.05,281,321,361,400,440,9,9,9,9,9,,,,,,,0,0,0,0,0,20,20,38,,,,,,,,,,,,num_4,0.9929363999981433,num_4,0.35,0.7,0.6,1.4,22.9233,53.48771,return,4.695855900004972,,,,,,,,,,,,,,,,,719,24,female,left_right_width,2024-08-29_09h03.21.715,exp1,2023.1.0,60.07131667171488,
,,,,,,,,,,,,,,,,3,9.3,10,10.7,0,0,0.7,0.29999999999999993,0.4,1.8,10,initial,36.05,335,361,386,0,0,9,9,9,0,0,,,,,,,0,0,0,0,0,21,21,9,,,,,,,,,,,,num_3,1.3310899000207428,num_3,0.5,0.7,0.5,0.85,19.10275,32.47468,return,2.098325600003591,,,,,,,,,,,,,,,,,719,24,female,left_right_width,2024-08-29_09h03.21.715,exp1,2023.1.0,60.07131667171488,
,,,,,,,,,,,,,,,,3,8.9,10,11.1,0,0,1.1,0.8500000000000001,0.25,2.45,10,initial,36.05,321,361,400,0,0,9,9,9,0,0,,,,,,,0,0,0,0,0,22,22,2,,,,,,,,,,,,num_3,1.182711500005098,num_3,0.35,0.9,0.2,1.1,7.6411,42.02605,return,3.9475850999879185,,,,,,,,,,,,,,,,,719,24,female,left_right_width,2024-08-29_09h03.21.715,exp1,2023.1.0,60.07131667171488,
,,,,,,,,,,,,,,,,3,8.6,10,11.4,0,0,1.4,1.15,0.25,3.05,10,match,36.05,310,361,411,0,0,9,9,9,0,0,,,,,,,0,0,0,0,0,23,23,43,,,,,,,,,,,,num_3,1.342471400013892,num_3,0.35,1.2,0.2,1.2,7.6411,45.8466,return,2.307458499999484,,,,,,,,,,,,,,,,,719,24,female,left_right_width,2024-08-29_09h03.21.715,exp1,2023.1.0,60.07131667171488,
,,,,,,,,,,,,,,,,4,8.35,9.45,10.55,11.65,0,1.1,0.8500000000000001,0.25,3.5500000000000003,10,initial,36.05,301,341,380,420,0,9,9,9,9,0,,,,,,,0,0,0,0,0,24,24,19,,,,,,,,,,,,num_4,2.893011900014244,num_4,0.2,0.9,0.15000000000000002,0.9,5.73083,34.38495,return,1.2701603000168689,,,,,,,,,,,,,,,,,719,24,female,left_right_width,2024-08-29_09h03.21.715,exp1,2023.1.0,60.07131667171488,
,,,,,,,,,,,,,,,,3,8.9,10,11.1,0,0,1.1,0.55,0.55,2.75,10,initial,36.05,321,361,400,0,0,9,9,9,0,0,,,,,,,0,0,0,0,0,25,25,0,,,,,,,,,,,,num_3,1.4738706999924034,num_3,0.55,0.8,0.35000000000000003,1.0,13.37193,38.2055,return,4.193789900018601,,,,,,,,,,,,,,,,,719,24,female,left_right_width,2024-08-29_09h03.21.715,exp1,2023.1.0,60.07131667171488,
,,,,,,,,,,,,,,,,5,8.6,9.3,10,10.7,11.4,0.7,0.1499999999999999,0.55,3.3499999999999996,10,initial,36.05,310,335,361,386,411,9,9,9,9,9,,,,,,,0,0,0,0,0,26,26,40,,,,,,,,,,,,num_3,1.6954854000068735,num_3,0.25,1.1,0.5499999999999999,1.1,21.01303,42.02605,return,2.0704882999998517,,,,,,,,,,,,,,,,,719,24,female,left_right_width,2024-08-29_09h03.21.715,exp1,2023.1.0,60.07131667171488,
,,,,,,,,,,,,,,,,5,8.2,9.1,10,10.9,11.8,0.9,0.35,0.55,4.15,10,initial,36.05,296,328,361,393,425,9,9,9,9,9,,,,,,,0,0,0,0,0,27,27,46,,,,,,,,,,,,num_4,1.0247937999956775,num_4,0.45,0.8,0.6000000000000001,0.8,22.9233,30.5644,return,2.113875100010773,,,,,,,,,,,,,,,,,719,24,female,left_right_width,2024-08-29_09h03.21.715,exp1,2023.1.0,60.07131667171488,
,,,,,,,,,,,,,,,,3,7.8,10,12.2,0,0,2.2,1.9500000000000002,0.25,4.65,10,match,36.05,281,361,440,0,0,9,9,9,0,0,,,,,,,0,0,0,0,0,28,28,37,,,,,,,,,,,,num_3,0.9865185999951791,num_3,0.5,0.8,0.15000000000000008,1.35,5.73083,51.57743,return,5.133408199995756,,,,,,,,,,,,,,,,,719,24,female,left_right_width,2024-08-29_09h03.21.715,exp1,2023.1.0,60.07131667171488,
,,,,,,,,,,,,,,,,4,8.825,9.608333333333333,10.391666666666667,11.175,0,0.7833333333333333,0.5333333333333333,0.25,2.6,10,match,36.05,318,346,375,403,0,9,9,9,9,0,,,,,,,0,0,0,0,0,29,29,5,,,,,,,,,,,,num_3,0.898188500024844,num_3,0.4,0.7,0.05000000000000007,1.35,1.91028,51.57743,return,5.70609950000653,,,,,,,,,,,,,,,,,719,24,female,left_right_width,2024-08-29_09h03.21.715,exp1,2023.1.0,60.07131667171488,
,,,,,,,,,,,,,,,,5,8.2,9.1,10,10.9,11.8,0.9,0.65,0.25,3.85,10,initial,36.05,296,328,361,393,425,9,9,9,9,9,,,,,,,0,0,0,0,0,30,30,48,,,,,,,,,,,,num_4,1.2100164000003133,num_4,0.35,1.2,0.25,1.2,9.55138,45.8466,return,1.5122183999919798,,,,,,,,,,,,,,,,,719,24,female,left_right_width,2024-08-29_09h03.21.715,exp1,2023.1.0,60.07131667171488,
,,,,,,,,,,,,,,,,4,8.65,9.55,10.45,11.35,0,0.9,0.35,0.55,3.25,10,initial,36.05,312,344,377,409,0,9,9,9,9,0,,,,,,,0,0,0,0,0,31,31,28,,,,,,,,,,,,num_4,1.1612960000056773,num_4,0.5,0.6,0.30000000000000004,1.1,11.46165,42.02605,return,3.1210823000001255,,,,,,,,,,,,,,,,,719,24,female,left_right_width,2024-08-29_09h03.21.715,exp1,2023.1.0,60.07131667171488,
,,,,,,,,,,,,,,,,3,8.2,10,11.8,0,0,1.7999999999999998,1.4,0.4,4,10,match,36.05,296,361,425,0,0,9,9,9,0,0,,,,,,,0,0,0,0,0,32,32,51,,,,,,,,,,,,num_3,1.1551785999909043,num_3,0.45,1,0.20000000000000007,1.3,7.6411,49.66716,return,3.117561699997168,,,,,,,,,,,,,,,,,719,24,female,left_right_width,2024-08-29_09h03.21.715,exp1,2023.1.0,60.07131667171488,
,,,,,,,,,,,,,,,,3,8.9,10,11.1,0,0,1.1,0.7000000000000001,0.4,2.6000000000000005,10,initial,36.05,321,361,400,0,0,9,9,9,0,0,,,,,,,0,0,0,0,0,33,33,4,,,,,,,,,,,,num_3,0.9862777000234928,num_3,0.25,1.2,0.39999999999999997,1.25,15.2822,47.75688,return,1.7555844000016805,,,,,,,,,,,,,,,,,719,24,female,left_right_width,2024-08-29_09h03.21.715,exp1,2023.1.0,60.07131667171488,
,,,,,,,,,,,,,,,,4,9.3,9.766666666666667,10.233333333333333,10.7,0,0.4666666666666667,0.06666666666666665,0.4,1.8,10,match,36.05,335,352,369,386,0,9,9,9,9,0,,,,,,,0,0,0,0,0,34,34,10,,,,,,,,,,,,num_3,0.8464229999808595,num_3,0.55,1.2,0.30000000000000004,0.95,11.46165,36.29523,return,5.2561197000031825,,,,,,,,,,,,,,,,,719,24,female,left_right_width,2024-08-29_09h03.21.715,exp1,2023.1.0,60.07131667171488,
,,,,,,,,,,,,,,,,5,8.35,9.175,10,10.825,11.65,0.825,0.575,0.25,3.55,10,match,36.05,301,331,361,390,420,9,9,9,9,9,,,,,,,0,0,0,0,0,35,35,20,,,,,,,,,,,,num_4,1.0776665000012144,num_4,0.2,0.5,0.2,0.5,7.6411,19.10275,return,1.0780260000028647,,,,,,,,,,,,,,,,,719,24,female,left_right_width,2024-08-29_09h03.21.715,exp1,2023.1.0,60.07131667171488,
,,,,,,,,,,,,,,,,3,7.800000000000001,10,12.2,0,0,2.1999999999999997,1.7999999999999998,0.4,4.8,10,match,36.05,281,361,440,0,0,9,9,9,0,0,,,,,,,0,0,0,0,0,36,36,39,,,,,,,,,,,,num_3,0.9404384999943431,num_3,0.55,1.2,0.20000000000000007,1.2,7.6411,45.8466,return,2.992237300029956,,,,,,,,,,,,,,,,,719,24,female,left_right_width,2024-08-29_09h03.21.715,exp1,2023.1.0,60.07131667171488,
,,,,,,,,,,,,,,,,4,9.1,9.7,10.3,10.9,0,0.6000000000000001,0.20000000000000004,0.4,2.2,10,match,36.05,328,350,371,393,0,9,9,9,9,0,,,,,,,0,0,0,0,0,37,37,16,,,,,,,,,,,,num_4,1.0397226000204682,num_4,0.45,0.6,0.25000000000000006,0.8,9.55138,30.5644,return,5.23262560000876,,,,,,,,,,,,,,,,,719,24,female,left_right_width,2024-08-29_09h03.21.715,exp1,2023.1.0,60.07131667171488,
,,,,,,,,,,,,,,,,3,9.1,10,10.9,0,0,0.9,0.35,0.55,2.35,10,initial,36.05,328,361,393,0,0,9,9,9,0,0,,,,,,,0,0,0,0,0,38,38,11,,,,,,,,,,,,num_3,0.890740700007882,num_3,0.45,0.6,0.30000000000000004,1.15,11.46165,43.93633,return,4.230805300001521,,,,,,,,,,,,,,,,,719,24,female,left_right_width,2024-08-29_09h03.21.715,exp1,2023.1.0,60.07131667171488,
,,,,,,,,,,,,,,,,5,7.8,8.9,10,11.1,12.2,1.1,0.55,0.55,4.95,10,initial,36.05,281,321,361,400,440,9,9,9,9,9,,,,,,,0,0,0,0,0,39,39,34,,,,,,,,,,,,num_4,0.9649573999922723,num_4,0.35,0.7,0.44999999999999996,1.1,17.19248,42.02605,return,3.880479399987962,,,,,,,,,,,,,,,,,719,24,female,left_right_width,2024-08-29_09h03.21.715,exp1,2023.1.0,60.07131667171488,
,,,,,,,,,,,,,,,,4,8.65,9.55,10.45,11.35,0,0.9,0.5,0.4,3.1,10,initial,36.05,312,344,377,409,0,9,9,9,9,0,,,,,,,0,0,0,0,0,40,40,32,,,,,,,,,,,,num_4,0.9679367000062484,num_4,0.5,1.1,0.35000000000000003,1.5,13.37193,57.30826,return,3.1317810000036843,,,,,,,,,,,,,,,,,719,24,female,left_right_width,2024-08-29_09h03.21.715,exp1,2023.1.0,60.07131667171488,
,,,,,,,,,,,,,,,,3,8.2,10,11.8,0,0,1.8,1.25,0.55,4.15,10,match,36.05,296,361,425,0,0,9,9,9,0,0,,,,,,,0,0,0,0,0,41,41,47,,,,,,,,,,,,num_4,1.5405122000083793,num_4,0.2,0.6,0.3,1.1,11.46165,42.02605,return,3.9986160000262316,,,,,,,,,,,,,,,,,719,24,female,left_right_width,2024-08-29_09h03.21.715,exp1,2023.1.0,60.07131667171488,
,,,,,,,,,,,,,,,,3,9.3,10,10.7,0,0,0.7,0.1499999999999999,0.55,1.95,10,initial,36.05,335,361,386,0,0,9,9,9,0,0,,,,,,,0,0,0,0,0,42,42,6,,,,,,,,,,,,num_3,1.0270116000028793,num_3,0.5,1.3,0.30000000000000004,1.2,11.46165,45.8466,return,5.929104400012875,,,,,,,,,,,,,,,,,719,24,female,left_right_width,2024-08-29_09h03.21.715,exp1,2023.1.0,60.07131667171488,
,,,,,,,,,,,,,,,,3,9.3,10,10.7,0,0,0.7,0.44999999999999996,0.25,1.65,10,initial,36.05,335,361,386,0,0,9,9,9,0,0,,,,,,,0,0,0,0,0,43,43,7,,,,,,,,,,,,num_3,1.0911989999876823,num_3,0.4,0.5,0.25000000000000006,0.75,9.55138,28.65413,return,3.620740399986971,,,,,,,,,,,,,,,,,719,24,female,left_right_width,2024-08-29_09h03.21.715,exp1,2023.1.0,60.07131667171488,
,,,,,,,,,,,,,,,,4,8.9,9.633333333333333,10.366666666666667,11.1,0,0.7333333333333334,0.4833333333333334,0.25,2.45,10,match,36.05,321,347,374,400,0,9,9,9,9,0,,,,,,,0,0,0,0,0,44,44,3,,,,,,,,,,,,num_3,1.208202000008896,num_3,0.25,0.9,0.25,1.0,9.55138,38.2055,return,3.1849034000188112,,,,,,,,,,,,,,,,,719,24,female,left_right_width,2024-08-29_09h03.21.715,exp1,2023.1.0,60.07131667171488,
,,,,,,,,,,,,,,,,5,7.8,8.9,10,11.1,12.2,1.1,0.8500000000000001,0.25,4.65,10,initial,36.05,281,321,361,400,440,9,9,9,9,9,,,,,,,0,0,0,0,0,45,45,36,,,,,,,,,,,,num_4,0.984417100000428,num_4,0.25,1.0,0.2,1.0,7.6411,38.2055,return,1.2321418000210542,,,,,,,,,,,,,,,,,719,24,female,left_right_width,2024-08-29_09h03.21.715,exp1,2023.1.0,60.07131667171488,
,,,,,,,,,,,,,,,,5,8.6,9.3,10,10.7,11.4,0.7,0.29999999999999993,0.4,3.1999999999999997,10,initial,36.05,310,335,361,386,411,9,9,9,9,9,,,,,,,0,0,0,0,0,46,46,44,,,,,,,,,,,,num_4,0.9240620999771636,num_4,0.4,0.6,0.15000000000000008,1.0,5.73083,38.2055,return,3.1799498999898788,,,,,,,,,,,,,,,,,719,24,female,left_right_width,2024-08-29_09h03.21.715,exp1,2023.1.0,60.07131667171488,
,,,,,,,,,,,,,,,,5,8.35,9.175,10,10.825,11.65,0.8250000000000001,0.275,0.55,3.85,10,match,36.05,301,331,361,390,420,9,9,9,9,9,,,,,,,0,0,0,0,0,47,47,18,,,,,,,,,,,,num_4,0.985292199999094,num_4,0.4,1.2,0.30000000000000004,1.0,11.46165,38.2055,return,3.306345099990722,,,,,,,,,,,,,,,,,719,24,female,left_right_width,2024-08-29_09h03.21.715,exp1,2023.1.0,60.07131667171488,
,,,,,,,,,,,,,,,,5,8.2,9.1,10,10.9,11.8,0.9,0.5,0.4,4,10,initial,36.05,296,328,361,393,425,9,9,9,9,9,,,,,,,0,0,0,0,0,48,48,50,,,,,,,,,,,,num_4,0.9638314000039827,num_4,0.35,0.4,0.3,1.2,11.46165,45.8466,return,4.780600099998992,,,,,,,,,,,,,,,,,719,24,female,left_right_width,2024-08-29_09h03.21.715,exp1,2023.1.0,60.07131667171488,
,,,,,,,,,,,,,,,,4,8.9,9.633333333333333,10.366666666666667,11.1,0,0.7333333333333333,0.18333333333333326,0.55,2.75,10,match,36.05,321,347,374,400,0,9,9,9,9,0,,,,,,,0,0,0,0,0,49,49,1,,,,,,,,,,,,num_3,1.2803921999875456,num_3,0.55,0.7,0.30000000000000004,0.95,11.46165,36.29523,return,4.141132699995069,,,,,,,,,,,,,,,,,719,24,female,left_right_width,2024-08-29_09h03.21.715,exp1,2023.1.0,60.07131667171488,
,,,,,,,,,,,,,,,,4,9.1,9.7,10.3,10.9,0,0.5999999999999999,0.3499999999999999,0.25,2.05,10,match,36.05,328,350,371,393,0,9,9,9,9,0,,,,,,,0,0,0,0,0,50,50,14,,,,,,,,,,,,num_3,1.408295699977316,num_3,0.5,1,0.15000000000000008,0.8,5.73083,30.5644,return,3.3265749999845866,,,,,,,,,,,,,,,,,719,24,female,left_right_width,2024-08-29_09h03.21.715,exp1,2023.1.0,60.07131667171488,
,,,,,,,,,,,,,,,,3,8.6,10,11.4,0,0,1.4,0.85,0.55,3.35,10,match,36.05,310,361,411,0,0,9,9,9,0,0,,,,,,,0,0,0,0,0,51,51,41,,,,,,,,,,,,num_3,1.859243000013521,num_3,0.5,1.2,0.30000000000000004,1.1,11.46165,42.02605,return,4.135782900004415,,,,,,,,,,,,,,,,,719,24,female,left_right_width,2024-08-29_09h03.21.715,exp1,2023.1.0,60.07131667171488,
,,,,,,,,,,,,,,,,,,,,,,,,,,,,,,,,,,,,,,,,,,,,,0,0,0,0,,,,,,,,,,,,,,,,,,,,,,,,,,,,,1028.7421514999878,1028.7421514999878,1028.7421514999878,,,,,,,,,,,,719,24,female,left_right_width,2024-08-29_09h03.21.715,exp1,2023.1.0,60.07131667171488,
,,,,,,,,,,,,,,,,4,8.95,9.65,10.35,11.05,0,0.7,0.29999999999999993,0.4,2.5,10,initial,36.05,323,348,373,398,0,9,9,9,9,0,,,,,,,1,0,1,0,0,0,0,26,,,,,,,,,,,,num_4,1.0840855999849737,num_4,0.4,1.3,0.30000000000000004,1.0,11.46165,38.2055,return,1.8462724999990314,,,,,,,,,,,,,,,,,719,24,female,left_right_width,2024-08-29_09h03.21.715,exp1,2023.1.0,60.07131667171488,
,,,,,,,,,,,,,,,,4,9.1,9.7,10.3,10.9,0,0.6000000000000001,0.20000000000000004,0.4,2.2,10,match,36.05,328,350,371,393,0,9,9,9,9,0,,,,,,,1,0,1,0,0,1,1,16,,,,,,,,,,,,num_3,0.9879769000108354,num_3,0.2,0.7,0.39999999999999997,0.7,15.2822,26.74385,return,2.1247928999946453,,,,,,,,,,,,,,,,,719,24,female,left_right_width,2024-08-29_09h03.21.715,exp1,2023.1.0,60.07131667171488,
,,,,,,,,,,,,,,,,4,8.825,9.608333333333333,10.391666666666667,11.175,0,0.7833333333333333,0.5333333333333333,0.25,2.6,10,match,36.05,318,346,375,403,0,9,9,9,9,0,,,,,,,1,0,1,0,0,2,2,5,,,,,,,,,,,,num_4,0.9507306000159588,num_4,0.35,0.8,0.2,0.8,7.6411,30.5644,return,1.2284589000046253,,,,,,,,,,,,,,,,,719,24,female,left_right_width,2024-08-29_09h03.21.715,exp1,2023.1.0,60.07131667171488,
,,,,,,,,,,,,,,,,4,8.35,9.45,10.55,11.65,0,1.1,0.7000000000000001,0.4,3.7,10,initial,36.05,301,341,380,420,0,9,9,9,9,0,,,,,,,1,0,1,0,0,3,3,21,,,,,,,,,,,,num_4,1.2061630000243895,num_4,0.2,0.3,0.3,1.0,11.46165,38.2055,return,4.176528599986341,,,,,,,,,,,,,,,,,719,24,female,left_right_width,2024-08-29_09h03.21.715,exp1,2023.1.0,60.07131667171488,
,,,,,,,,,,,,,,,,5,8.6,9.3,10,10.7,11.4,0.7,0.44999999999999996,0.25,3.05,10,initial,36.05,310,335,361,386,411,9,9,9,9,9,,,,,,,1,0,1,0,0,4,4,42,,,,,,,,,,,,num_4,1.6705453000031412,num_4,0.2,0.4,0.3,0.9,11.46165,34.38495,return,2.850832400028594,,,,,,,,,,,,,,,,,719,24,female,left_right_width,2024-08-29_09h03.21.715,exp1,2023.1.0,60.07131667171488,
,,,,,,,,,,,,,,,,4,9.1,9.7,10.3,10.9,0,0.5999999999999999,0.3499999999999999,0.25,2.05,10,match,36.05,328,350,371,393,0,9,9,9,9,0,,,,,,,1,0,1,0,0,5,5,14,,,,,,,,,,,,num_4,0.9742839999962598,num_4,0.2,0.9,0.25,0.9,9.55138,34.38495,return,1.3769610000017565,,,,,,,,,,,,,,,,,719,24,female,left_right_width,2024-08-29_09h03.21.715,exp1,2023.1.0,60.07131667171488,
,,,,,,,,,,,,,,,,4,8.65,9.55,10.45,11.35,0,0.9,0.35,0.55,3.25,10,initial,36.05,312,344,377,409,0,9,9,9,9,0,,,,,,,1,0,1,0,0,6,6,28,,,,,,,,,,,,num_4,1.0637705000117421,num_4,0.55,1.3,0.5,1.3,19.10275,49.66716,return,1.3965345000033267,,,,,,,,,,,,,,,,,719,24,female,left_right_width,2024-08-29_09h03.21.715,exp1,2023.1.0,60.07131667171488,
,,,,,,,,,,,,,,,,5,8.2,9.1,10,10.9,11.8,0.9,0.65,0.25,3.85,10,initial,36.05,296,328,361,393,425,9,9,9,9,9,,,,,,,1,0,1,0,0,7,7,48,,,,,,,,,,,,num_4,1.1663782999967225,num_4,0.25,1.0,0.25,1.0,9.55138,38.2055,return,1.453568600001745,,,,,,,,,,,,,,,,,719,24,female,left_right_width,2024-08-29_09h03.21.715,exp1,2023.1.0,60.07131667171488,
,,,,,,,,,,,,,,,,3,9.1,10,10.9,0,0,0.9,0.35,0.55,2.35,10,initial,36.05,328,361,393,0,0,9,9,9,0,0,,,,,,,1,0,1,0,0,8,8,11,,,,,,,,,,,,num_3,1.050736400007736,num_3,0.5,1.1,0.5,1.1,19.10275,42.02605,return,0.7649568000051659,,,,,,,,,,,,,,,,,719,24,female,left_right_width,2024-08-29_09h03.21.715,exp1,2023.1.0,60.07131667171488,
,,,,,,,,,,,,,,,,3,7.8,10,12.2,0,0,2.2,1.65,0.55,4.95,10,match,36.05,281,361,440,0,0,9,9,9,0,0,,,,,,,1,0,1,0,0,9,9,35,,,,,,,,,,,,num_3,1.4766015999775846,num_3,0.25,1.1,0.5499999999999999,1.1,21.01303,42.02605,return,2.243043900001794,,,,,,,,,,,,,,,,,719,24,female,left_right_width,2024-08-29_09h03.21.715,exp1,2023.1.0,60.07131667171488,
,,,,,,,,,,,,,,,,3,8.2,10,11.8,0,0,1.8,1.25,0.55,4.15,10,match,36.05,296,361,425,0,0,9,9,9,0,0,,,,,,,1,0,1,0,0,10,10,47,,,,,,,,,,,,num_3,1.3876847999927122,num_3,0.35,0.9,0.49999999999999994,1.1,19.10275,42.02605,return,2.666102299990598,,,,,,,,,,,,,,,,,719,24,female,left_right_width,2024-08-29_09h03.21.715,exp1,2023.1.0,60.07131667171488,
,,,,,,,,,,,,,,,,5,8.6,9.3,10,10.7,11.4,0.7,0.1499999999999999,0.55,3.3499999999999996,10,initial,36.05,310,335,361,386,411,9,9,9,9,9,,,,,,,1,0,1,0,0,11,11,40,,,,,,,,,,,,num_4,0.9874545000202488,num_4,0.45,0.6,0.45,1.0,17.19248,38.2055,return,2.3822242000023834,,,,,,,,,,,,,,,,,719,24,female,left_right_width,2024-08-29_09h03.21.715,exp1,2023.1.0,60.07131667171488,
,,,,,,,,,,,,,,,,4,9.3,9.766666666666667,10.233333333333333,10.7,0,0.4666666666666667,0.06666666666666665,0.4,1.8,10,match,36.05,335,352,369,386,0,9,9,9,9,0,,,,,,,1,0,1,0,0,12,12,10,,,,,,,,,,,,num_3,1.0598951000138186,num_3,0.55,1.1,0.45,1.15,17.19248,43.93633,return,2.6660716000187676,,,,,,,,,,,,,,,,,719,24,female,left_right_width,2024-08-29_09h03.21.715,exp1,2023.1.0,60.07131667171488,
,,,,,,,,,,,,,,,,3,9.3,10,10.7,0,0,0.7,0.29999999999999993,0.4,1.8,10,initial,36.05,335,361,386,0,0,9,9,9,0,0,,,,,,,1,0,1,0,0,13,13,9,,,,,,,,,,,,num_3,0.9445309000147972,num_3,0.55,1.3,0.55,0.95,21.01303,36.29523,return,3.5393484000233,,,,,,,,,,,,,,,,,719,24,female,left_right_width,2024-08-29_09h03.21.715,exp1,2023.1.0,60.07131667171488,
,,,,,,,,,,,,,,,,5,8.95,9.475,10,10.525,11.05,0.525,0.125,0.4,2.5,10,match,36.05,323,342,361,379,398,9,9,9,9,9,,,,,,,1,0,1,0,0,14,14,27,,,,,,,,,,,,num_4,0.9808798000158276,num_4,0.2,1.1,0.3,0.7,11.46165,26.74385,return,3.5590621999872383,,,,,,,,,,,,,,,,,719,24,female,left_right_width,2024-08-29_09h03.21.715,exp1,2023.1.0,60.07131667171488,
,,,,,,,,,,,,,,,,3,8.9,10,11.1,0,0,1.1,0.7000000000000001,0.4,2.6000000000000005,10,initial,36.05,321,361,400,0,0,9,9,9,0,0,,,,,,,1,0,1,0,0,15,15,4,,,,,,,,,,,,num_3,0.9658917000051588,num_3,0.35,1.1,0.44999999999999996,1.1,17.19248,42.02605,return,1.6395259000128135,,,,,,,,,,,,,,,,,719,24,female,left_right_width,2024-08-29_09h03.21.715,exp1,2023.1.0,60.07131667171488,
,,,,,,,,,,,,,,,,5,8.2,9.1,10,10.9,11.8,0.9,0.35,0.55,4.15,10,initial,36.05,296,328,361,393,425,9,9,9,9,9,,,,,,,1,0,1,0,0,16,16,46,,,,,,,,,,,,num_4,1.101176200027112,num_4,0.3,0.3,0.35,0.9,13.37193,34.38495,return,8.432820700021693,,,,,,,,,,,,,,,,,719,24,female,left_right_width,2024-08-29_09h03.21.715,exp1,2023.1.0,60.07131667171488,
,,,,,,,,,,,,,,,,5,8.2,9.1,10,10.9,11.8,0.9,0.5,0.4,4,10,initial,36.05,296,328,361,393,425,9,9,9,9,9,,,,,,,1,0,1,0,0,17,17,50,,,,,,,,,,,,num_4,1.0939115000073798,num_4,0.55,1.1,0.4,1.1,15.2822,42.02605,return,1.4489545999967959,,,,,,,,,,,,,,,,,719,24,female,left_right_width,2024-08-29_09h03.21.715,exp1,2023.1.0,60.07131667171488,
,,,,,,,,,,,,,,,,5,8.275,9.1375,10,10.8625,11.725,0.8625,0.6125,0.25,3.7,10,match,36.05,298,329,361,392,423,9,9,9,9,9,,,,,,,1,0,1,0,0,18,18,22,,,,,,,,,,,,num_4,1.2342184000008274,num_4,0.35,1.3,0.25,1.1,9.55138,42.02605,return,1.8880868999985978,,,,,,,,,,,,,,,,,719,24,female,left_right_width,2024-08-29_09h03.21.715,exp1,2023.1.0,60.07131667171488,
,,,,,,,,,,,,,,,,3,8.6,10,11.4,0,0,1.4,0.85,0.55,3.35,10,match,36.05,310,361,411,0,0,9,9,9,0,0,,,,,,,1,0,1,0,0,19,19,41,,,,,,,,,,,,num_3,1.0156410000054166,num_3,0.3,0.9,0.39999999999999997,0.9,15.2822,34.38495,return,1.5658090000215452,,,,,,,,,,,,,,,,,719,24,female,left_right_width,2024-08-29_09h03.21.715,exp1,2023.1.0,60.07131667171488,
,,,,,,,,,,,,,,,,4,8.35,9.45,10.55,11.65,0,1.1,0.55,0.55,3.8500000000000005,10,initial,36.05,301,341,380,420,0,9,9,9,9,0,,,,,,,1,0,1,0,0,20,20,17,,,,,,,,,,,,num_4,1.1132464000256732,num_4,0.3,0.3,0.3,0.7,11.46165,26.74385,return,4.251754600001732,,,,,,,,,,,,,,,,,719,24,female,left_right_width,2024-08-29_09h03.21.715,exp1,2023.1.0,60.07131667171488,
,,,,,,,,,,,,,,,,5,8.95,9.475,10,10.525,11.05,0.525,0.275,0.25,2.35,10,match,36.05,323,342,361,379,398,9,9,9,9,9,,,,,,,1,0,1,0,0,21,21,25,,,,,,,,,,,,num_4,1.0133204000012483,num_4,0.55,1.2,0.20000000000000007,0.8,7.6411,30.5644,return,3.413701499986928,,,,,,,,,,,,,,,,,719,24,female,left_right_width,2024-08-29_09h03.21.715,exp1,2023.1.0,60.07131667171488,
,,,,,,,,,,,,,,,,4,8.95,9.65,10.35,11.05,0,0.7,0.1499999999999999,0.55,2.65,10,initial,36.05,323,348,373,398,0,9,9,9,9,0,,,,,,,1,0,1,0,0,22,22,23,,,,,,,,,,,,num_4,0.8121668000239879,num_4,0.3,0.9,0.39999999999999997,0.6,15.2822,22.9233,return,2.758550800004741,,,,,,,,,,,,,,,,,719,24,female,left_right_width,2024-08-29_09h03.21.715,exp1,2023.1.0,60.07131667171488,
,,,,,,,,,,,,,,,,4,8.9,9.633333333333333,10.366666666666667,11.1,0,0.7333333333333333,0.18333333333333326,0.55,2.75,10,match,36.05,321,347,374,400,0,9,9,9,9,0,,,,,,,1,0,1,0,0,23,23,1,,,,,,,,,,,,num_4,0.9684338000079151,num_4,0.5,0.6,0.5,0.6,19.10275,22.9233,return,1.1644068000023253,,,,,,,,,,,,,,,,,719,24,female,left_right_width,2024-08-29_09h03.21.715,exp1,2023.1.0,60.07131667171488,
,,,,,,,,,,,,,,,,4,8.95,9.65,10.35,11.05,0,0.7,0.44999999999999996,0.25,2.3499999999999996,10,initial,36.05,323,348,373,398,0,9,9,9,9,0,,,,,,,1,0,1,0,0,24,24,24,,,,,,,,,,,,num_4,0.8924910000059754,num_4,0.3,0.7,0.25,0.7,9.55138,26.74385,return,1.3781696000078227,,,,,,,,,,,,,,,,,719,24,female,left_right_width,2024-08-29_09h03.21.715,exp1,2023.1.0,60.07131667171488,
,,,,,,,,,,,,,,,,5,7.8,8.9,10,11.1,12.2,1.1,0.7000000000000001,0.4,4.800000000000001,10,initial,36.05,281,321,361,400,440,9,9,9,9,9,,,,,,,1,0,1,0,0,25,25,38,,,,,,,,,,,,num_4,1.305981100013014,num_4,0.45,0.8,0.45,0.8,17.19248,30.5644,return,1.1870656000101008,,,,,,,,,,,,,,,,,719,24,female,left_right_width,2024-08-29_09h03.21.715,exp1,2023.1.0,60.07131667171488,
,,,,,,,,,,,,,,,,4,8.65,9.55,10.45,11.35,0,0.9,0.65,0.25,2.95,10,initial,36.05,312,344,377,409,0,9,9,9,9,0,,,,,,,1,0,1,0,0,26,26,30,,,,,,,,,,,,num_4,1.026741799985757,num_4,0.35,0.7,0.10000000000000002,0.7,3.82055,26.74385,return,1.5706267000059597,,,,,,,,,,,,,,,,,719,24,female,left_right_width,2024-08-29_09h03.21.715,exp1,2023.1.0,60.07131667171488,
,,,,,,,,,,,,,,,,5,7.8,8.9,10,11.1,12.2,1.1,0.55,0.55,4.95,10,initial,36.05,281,321,361,400,440,9,9,9,9,9,,,,,,,1,0,1,0,0,27,27,34,,,,,,,,,,,,num_4,0.9552098999847658,num_4,0.5,1.3,0.45,1.1,17.19248,42.02605,return,2.143822400015779,,,,,,,,,,,,,,,,,719,24,female,left_right_width,2024-08-29_09h03.21.715,exp1,2023.1.0,60.07131667171488,
,,,,,,,,,,,,,,,,4,8.35,9.45,10.55,11.65,0,1.1,0.8500000000000001,0.25,3.5500000000000003,10,initial,36.05,301,341,380,420,0,9,9,9,9,0,,,,,,,1,0,1,0,0,28,28,19,,,,,,,,,,,,num_4,0.8606992999848444,num_4,0.45,1.2,0.15000000000000008,1.2,5.73083,45.8466,return,1.6365489999880083,,,,,,,,,,,,,,,,,719,24,female,left_right_width,2024-08-29_09h03.21.715,exp1,2023.1.0,60.07131667171488,
,,,,,,,,,,,,,,,,5,7.8,8.9,10,11.1,12.2,1.1,0.8500000000000001,0.25,4.65,10,initial,36.05,281,321,361,400,440,9,9,9,9,9,,,,,,,1,0,1,0,0,29,29,36,,,,,,,,,,,,num_4,0.8518355000123847,num_4,0.35,1.3,0.15000000000000002,1.3,5.73083,49.66716,return,1.5997031000151765,,,,,,,,,,,,,,,,,719,24,female,left_right_width,2024-08-29_09h03.21.715,exp1,2023.1.0,60.07131667171488,
,,,,,,,,,,,,,,,,3,7.8,10,12.2,0,0,2.2,1.9500000000000002,0.25,4.65,10,match,36.05,281,361,440,0,0,9,9,9,0,0,,,,,,,1,0,1,0,0,30,30,37,,,,,,,,,,,,num_4,1.049317199998768,num_4,0.25,0.4,0.10000000000000002,1.1,3.82055,42.02605,return,6.985882200009655,,,,,,,,,,,,,,,,,719,24,female,left_right_width,2024-08-29_09h03.21.715,exp1,2023.1.0,60.07131667171488,
,,,,,,,,,,,,,,,,3,7.800000000000001,10,12.2,0,0,2.1999999999999997,1.7999999999999998,0.4,4.8,10,match,36.05,281,361,440,0,0,9,9,9,0,0,,,,,,,1,0,1,0,0,31,31,39,,,,,,,,,,,,num_3,1.0346900000004098,num_3,0.25,0.8,0.15000000000000002,1.25,5.73083,47.75688,return,3.7720562999893446,,,,,,,,,,,,,,,,,719,24,female,left_right_width,2024-08-29_09h03.21.715,exp1,2023.1.0,60.07131667171488,
,,,,,,,,,,,,,,,,5,8.65,9.325,10,10.675,11.35,0.675,0.42500000000000004,0.25,2.95,10,match,36.05,312,336,361,385,409,9,9,9,9,9,,,,,,,1,0,1,0,0,32,32,31,,,,,,,,,,,,num_4,1.003769300004933,num_4,0.25,0.6,0.10000000000000002,0.9,3.82055,34.38495,return,3.3884890000044834,,,,,,,,,,,,,,,,,719,24,female,left_right_width,2024-08-29_09h03.21.715,exp1,2023.1.0,60.07131667171488,
,,,,,,,,,,,,,,,,3,8.9,10,11.1,0,0,1.1,0.8500000000000001,0.25,2.45,10,initial,36.05,321,361,400,0,0,9,9,9,0,0,,,,,,,1,0,1,0,0,33,33,2,,,,,,,,,,,,num_3,0.8017675000010058,num_3,0.3,0.5,0.10000000000000002,0.8,3.82055,30.5644,return,2.6656643000023905,,,,,,,,,,,,,,,,,719,24,female,left_right_width,2024-08-29_09h03.21.715,exp1,2023.1.0,60.07131667171488,
,,,,,,,,,,,,,,,,4,8.65,9.55,10.45,11.35,0,0.9,0.5,0.4,3.1,10,initial,36.05,312,344,377,409,0,9,9,9,9,0,,,,,,,1,0,1,0,0,34,34,32,,,,,,,,,,,,num_4,0.9361837999895215,num_4,0.35,1.2,0.2,1.2,7.6411,45.8466,return,3.375626099994406,,,,,,,,,,,,,,,,,719,24,female,left_right_width,2024-08-29_09h03.21.715,exp1,2023.1.0,60.07131667171488,
,,,,,,,,,,,,,,,,3,9.3,10,10.7,0,0,0.7,0.44999999999999996,0.25,1.65,10,initial,36.05,335,361,386,0,0,9,9,9,0,0,,,,,,,1,0,1,0,0,35,35,7,,,,,,,,,,,,num_3,1.260290400008671,num_3,0.55,0.6,0.25000000000000006,1.05,9.55138,40.11578,return,5.1541982000053395,,,,,,,,,,,,,,,,,719,24,female,left_right_width,2024-08-29_09h03.21.715,exp1,2023.1.0,60.07131667171488,
,,,,,,,,,,,,,,,,5,8.35,9.175,10,10.825,11.65,0.825,0.575,0.25,3.55,10,match,36.05,301,331,361,390,420,9,9,9,9,9,,,,,,,1,0,1,0,0,36,36,20,,,,,,,,,,,,num_4,0.897166400012793,num_4,0.25,0.8,0.2,0.9,7.6411,34.38495,return,2.1477286999870557,,,,,,,,,,,,,,,,,719,24,female,left_right_width,2024-08-29_09h03.21.715,exp1,2023.1.0,60.07131667171488,
,,,,,,,,,,,,,,,,3,8.2,10,11.8,0,0,1.8,1.55,0.25,3.85,10,match,36.05,296,361,425,0,0,9,9,9,0,0,,,,,,,1,0,1,0,0,37,37,49,,,,,,,,,,,,num_3,1.0637521999888122,num_3,0.4,1.1,0.25000000000000006,1.05,9.55138,40.11578,return,5.163368100009393,,,,,,,,,,,,,,,,,719,24,female,left_right_width,2024-08-29_09h03.21.715,exp1,2023.1.0,60.07131667171488,
,,,,,,,,,,,,,,,,4,9.1,9.7,10.3,10.9,0,0.6,0.04999999999999997,0.55,2.35,10,match,36.05,328,350,371,393,0,9,9,9,9,0,,,,,,,1,0,1,0,0,38,38,12,,,,,,,,,,,,num_3,0.8846757000137586,num_3,0.35,0.6,0.6,0.7,22.9233,26.74385,return,5.3442462000239175,,,,,,,,,,,,,,,,,719,24,female,left_right_width,2024-08-29_09h03.21.715,exp1,2023.1.0,60.07131667171488,
,,,,,,,,,,,,,,,,5,8.6,9.3,10,10.7,11.4,0.7,0.29999999999999993,0.4,3.1999999999999997,10,initial,36.05,310,335,361,386,411,9,9,9,9,9,,,,,,,1,0,1,0,0,39,39,44,,,,,,,,,,,,num_4,0.8346909999963827,num_4,0.5,1.0,0.35000000000000003,1.0,13.37193,38.2055,return,1.67701240000315,,,,,,,,,,,,,,,,,719,24,female,left_right_width,2024-08-29_09h03.21.715,exp1,2023.1.0,60.07131667171488,
,,,,,,,,,,,,,,,,4,8.9,9.633333333333333,10.366666666666667,11.1,0,0.7333333333333334,0.4833333333333334,0.25,2.45,10,match,36.05,321,347,374,400,0,9,9,9,9,0,,,,,,,1,0,1,0,0,40,40,3,,,,,,,,,,,,num_4,0.8943998000177089,num_4,0.45,1.2,0.25000000000000006,1.2,9.55138,45.8466,return,1.3474799999967217,,,,,,,,,,,,,,,,,719,24,female,left_right_width,2024-08-29_09h03.21.715,exp1,2023.1.0,60.07131667171488,
,,,,,,,,,,,,,,,,3,8.6,10,11.4,0,0,1.4,1.15,0.25,3.05,10,match,36.05,310,361,411,0,0,9,9,9,0,0,,,,,,,1,0,1,0,0,41,41,43,,,,,,,,,,,,num_3,0.9459487000131048,num_3,0.3,0.9,0.2,1.1,7.6411,42.02605,return,1.8629278999869712,,,,,,,,,,,,,,,,,719,24,female,left_right_width,2024-08-29_09h03.21.715,exp1,2023.1.0,60.07131667171488,
,,,,,,,,,,,,,,,,4,9.3,9.766666666666667,10.233333333333333,10.7,0,0.4666666666666667,0.21666666666666665,0.25,1.65,10,match,36.05,335,352,369,386,0,9,9,9,9,0,,,,,,,1,0,1,0,0,42,42,8,,,,,,,,,,,,num_4,0.9190247000078671,num_4,0.4,0.7,0.25000000000000006,0.7,9.55138,26.74385,return,1.4567479000252206,,,,,,,,,,,,,,,,,719,24,female,left_right_width,2024-08-29_09h03.21.715,exp1,2023.1.0,60.07131667171488,
,,,,,,,,,,,,,,,,3,8.525,10,11.475,0,0,1.475,1.225,0.25,3.2,10,match,36.05,307,361,414,0,0,9,9,9,0,0,,,,,,,1,0,1,0,0,43,43,45,,,,,,,,,,,,num_3,0.8993231000204105,num_3,0.45,1.3,0.25000000000000006,1.3,9.55138,49.66716,return,2.0258032999990974,,,,,,,,,,,,,,,,,719,24,female,left_right_width,2024-08-29_09h03.21.715,exp1,2023.1.0,60.07131667171488,
,,,,,,,,,,,,,,,,3,9.1,10,10.9,0,0,0.9,0.5,0.4,2.2,10,initial,36.05,328,361,393,0,0,9,9,9,0,0,,,,,,,1,0,1,0,0,44,44,15,,,,,,,,,,,,num_3,1.2278286000073422,num_3,0.4,0.8,0.30000000000000004,0.85,11.46165,32.47468,return,1.7534111999848392,,,,,,,,,,,,,,,,,719,24,female,left_right_width,2024-08-29_09h03.21.715,exp1,2023.1.0,60.07131667171488,
,,,,,,,,,,,,,,,,3,9.3,10,10.7,0,0,0.7,0.1499999999999999,0.55,1.95,10,initial,36.05,335,361,386,0,0,9,9,9,0,0,,,,,,,1,0,1,0,0,45,45,6,,,,,,,,,,,,num_3,0.7248249999829568,num_3,0.2,1,0.44999999999999996,0.85,17.19248,32.47468,return,2.751454700017348,,,,,,,,,,,,,,,,,719,24,female,left_right_width,2024-08-29_09h03.21.715,exp1,2023.1.0,60.07131667171488,
,,,,,,,,,,,,,,,,3,8.2,10,11.8,0,0,1.7999999999999998,1.4,0.4,4,10,match,36.05,296,361,425,0,0,9,9,9,0,0,,,,,,,1,0,1,0,0,46,46,51,,,,,,,,,,,,num_2,0.8473872000176925,num_2,0.3,1.0,0.3,1.0,11.46165,38.2055,return,3.8791873999871314,,,,,,,,,,,,,,,,,719,24,female,left_right_width,2024-08-29_09h03.21.715,exp1,2023.1.0,60.07131667171488,
,,,,,,,,,,,,,,,,5,8.65,9.325,10,10.675,11.35,0.675,0.125,0.55,3.25,10,match,36.05,312,336,361,385,409,9,9,9,9,9,,,,,,,1,0,1,0,0,47,47,29,,,,,,,,,,,,num_3,0.906731299997773,num_3,0.25,0.3,0.49999999999999994,0.65,19.10275,24.83358,return,4.209455399977742,,,,,,,,,,,,,,,,,719,24,female,left_right_width,2024-08-29_09h03.21.715,exp1,2023.1.0,60.07131667171488,
,,,,,,,,,,,,,,,,3,9.1,10,10.9,0,0,0.9,0.65,0.25,2.05,10,initial,36.05,328,361,393,0,0,9,9,9,0,0,,,,,,,1,0,1,0,0,48,48,13,,,,,,,,,,,,num_3,1.7586446999921463,num_3,0.25,1.2,0.25,1.05,9.55138,40.11578,return,2.8334682999993674,,,,,,,,,,,,,,,,,719,24,female,left_right_width,2024-08-29_09h03.21.715,exp1,2023.1.0,60.07131667171488,
,,,,,,,,,,,,,,,,5,8.35,9.175,10,10.825,11.65,0.8250000000000001,0.275,0.55,3.85,10,match,36.05,301,331,361,390,420,9,9,9,9,9,,,,,,,1,0,1,0,0,49,49,18,,,,,,,,,,,,num_4,1.1279483999824151,num_4,0.2,1.0,0.49999999999999994,1.0,19.10275,38.2055,return,1.656843900011154,,,,,,,,,,,,,,,,,719,24,female,left_right_width,2024-08-29_09h03.21.715,exp1,2023.1.0,60.07131667171488,
,,,,,,,,,,,,,,,,3,8.9,10,11.1,0,0,1.1,0.55,0.55,2.75,10,initial,36.05,321,361,400,0,0,9,9,9,0,0,,,,,,,1,0,1,0,0,50,50,0,,,,,,,,,,,,num_3,0.9493001000082586,num_3,0.5,0.6,0.55,1.0,21.01303,38.2055,return,2.56725260001258,,,,,,,,,,,,,,,,,719,24,female,left_right_width,2024-08-29_09h03.21.715,exp1,2023.1.0,60.07131667171488,
,,,,,,,,,,,,,,,,5,8.65,9.325,10,10.675,11.35,0.675,0.275,0.4,3.1,10,match,36.05,312,336,361,385,409,9,9,9,9,9,,,,,,,1,0,1,0,0,51,51,33,,,,,,,,,,,,num_4,0.8516509000037331,num_4,0.2,0.4,0.3,0.7,11.46165,26.74385,return,2.001144400011981,,,,,,,,,,,,,,,,,719,24,female,left_right_width,2024-08-29_09h03.21.715,exp1,2023.1.0,60.07131667171488,
,,,,,,,,,,,,,,,,,,,,,,,,,,,,,,,,,,,,,,,,,,,,,1,0,1,0,,,,,,,,,,,,,,,,,,,,,,,,,,,,,1350.3913516999746,1350.3913516999746,1350.3913516999746,,,,,,,,,,,,719,24,female,left_right_width,2024-08-29_09h03.21.715,exp1,2023.1.0,60.07131667171488,
,,,,,,,,,,,,,,,,5,8.6,9.3,10,10.7,11.4,0.7,0.44999999999999996,0.25,3.05,10,initial,36.05,310,335,361,386,411,9,9,9,9,9,,,,,,,2,0,2,0,0,0,0,42,,,,,,,,,,,,num_4,0.9345121000078507,num_4,0.4,1.0,0.25000000000000006,1.3,9.55138,49.66716,return,2.8487363000167534,,,,,,,,,,,,,,,,,719,24,female,left_right_width,2024-08-29_09h03.21.715,exp1,2023.1.0,60.07131667171488,
,,,,,,,,,,,,,,,,3,9.3,10,10.7,0,0,0.7,0.1499999999999999,0.55,1.95,10,initial,36.05,335,361,386,0,0,9,9,9,0,0,,,,,,,2,0,2,0,0,1,1,6,,,,,,,,,,,,num_3,1.0479210000194144,num_3,0.55,0.9,0.45,0.9,17.19248,34.38495,return,2.952776200021617,,,,,,,,,,,,,,,,,719,24,female,left_right_width,2024-08-29_09h03.21.715,exp1,2023.1.0,60.07131667171488,
,,,,,,,,,,,,,,,,5,7.8,8.9,10,11.1,12.2,1.1,0.55,0.55,4.95,10,initial,36.05,281,321,361,400,440,9,9,9,9,9,,,,,,,2,0,2,0,0,2,2,34,,,,,,,,,,,,num_4,0.9970895000151359,num_4,0.5,0.8,0.35000000000000003,0.8,13.37193,30.5644,return,1.365970599988941,,,,,,,,,,,,,,,,,719,24,female,left_right_width,2024-08-29_09h03.21.715,exp1,2023.1.0,60.07131667171488,
,,,,,,,,,,,,,,,,5,8.2,9.1,10,10.9,11.8,0.9,0.65,0.25,3.85,10,initial,36.05,296,328,361,393,425,9,9,9,9,9,,,,,,,2,0,2,0,0,3,3,48,,,,,,,,,,,,num_4,1.0957053000165615,num_4,0.3,0.6,0.25,0.8,9.55138,30.5644,return,3.8344904000114184,,,,,,,,,,,,,,,,,719,24,female,left_right_width,2024-08-29_09h03.21.715,exp1,2023.1.0,60.07131667171488,
,,,,,,,,,,,,,,,,3,8.2,10,11.8,0,0,1.8,1.25,0.55,4.15,10,match,36.05,296,361,425,0,0,9,9,9,0,0,,,,,,,2,0,2,0,0,4,4,47,,,,,,,,,,,,num_3,0.8109900000272319,num_3,0.5,0.7,0.45,1.0,17.19248,38.2055,return,4.670925600017654,,,,,,,,,,,,,,,,,719,24,female,left_right_width,2024-08-29_09h03.21.715,exp1,2023.1.0,60.07131667171488,
,,,,,,,,,,,,,,,,5,7.8,8.9,10,11.1,12.2,1.1,0.7000000000000001,0.4,4.800000000000001,10,initial,36.05,281,321,361,400,440,9,9,9,9,9,,,,,,,2,0,2,0,0,5,5,38,,,,,,,,,,,,num_4,0.9299527000111993,num_4,0.3,1.2,0.44999999999999996,1.2,17.19248,45.8466,return,2.090873199980706,,,,,,,,,,,,,,,,,719,24,female,left_right_width,2024-08-29_09h03.21.715,exp1,2023.1.0,60.07131667171488,
,,,,,,,,,,,,,,,,5,8.65,9.325,10,10.675,11.35,0.675,0.275,0.4,3.1,10,match,36.05,312,336,361,385,409,9,9,9,9,9,,,,,,,2,0,2,0,0,6,6,33,,,,,,,,,,,,num_4,1.179291899985401,num_4,0.2,0.3,0.25,0.7,9.55138,26.74385,return,2.490332599991234,,,,,,,,,,,,,,,,,719,24,female,left_right_width,2024-08-29_09h03.21.715,exp1,2023.1.0,60.07131667171488,
,,,,,,,,,,,,,,,,4,9.1,9.7,10.3,10.9,0,0.6,0.04999999999999997,0.55,2.35,10,match,36.05,328,350,371,393,0,9,9,9,9,0,,,,,,,2,0,2,0,0,7,7,12,,,,,,,,,,,,num_3,0.9479729000013322,num_3,0.45,0.6,0.55,0.65,21.01303,24.83358,return,2.972692500014091,,,,,,,,,,,,,,,,,719,24,female,left_right_width,2024-08-29_09h03.21.715,exp1,2023.1.0,60.07131667171488,
,,,,,,,,,,,,,,,,4,8.9,9.633333333333333,10.366666666666667,11.1,0,0.7333333333333334,0.4833333333333334,0.25,2.45,10,match,36.05,321,347,374,400,0,9,9,9,9,0,,,,,,,2,0,2,0,0,8,8,3,,,,,,,,,,,,num_4,0.9988249999878462,num_4,0.4,0.7,0.35000000000000003,0.9,13.37193,34.38495,return,3.882662199990591,,,,,,,,,,,,,,,,,719,24,female,left_right_width,2024-08-29_09h03.21.715,exp1,2023.1.0,60.07131667171488,
,,,,,,,,,,,,,,,,5,8.35,9.175,10,10.825,11.65,0.825,0.575,0.25,3.55,10,match,36.05,301,331,361,390,420,9,9,9,9,9,,,,,,,2,0,2,0,0,9,9,20,,,,,,,,,,,,num_4,0.8770386999822222,num_4,0.25,0.7,0.25,0.8,9.55138,30.5644,return,1.856903300009435,,,,,,,,,,,,,,,,,719,24,female,left_right_width,2024-08-29_09h03.21.715,exp1,2023.1.0,60.07131667171488,
,,,,,,,,,,,,,,,,3,8.6,10,11.4,0,0,1.4,1.15,0.25,3.05,10,match,36.05,310,361,411,0,0,9,9,9,0,0,,,,,,,2,0,2,0,0,10,10,43,,,,,,,,,,,,num_3,0.8534307000227273,num_3,0.35,0.9,0.25,1.25,9.55138,47.75688,return,3.9698819000041112,,,,,,,,,,,,,,,,,719,24,female,left_right_width,2024-08-29_09h03.21.715,exp1,2023.1.0,60.07131667171488,
,,,,,,,,,,,,,,,,3,9.1,10,10.9,0,0,0.9,0.65,0.25,2.05,10,initial,36.05,328,361,393,0,0,9,9,9,0,0,,,,,,,2,0,2,0,0,11,11,13,,,,,,,,,,,,num_3,0.9648876000137534,num_3,0.4,1.1,0.20000000000000007,1.15,7.6411,43.93633,return,1.897413400001824,,,,,,,,,,,,,,,,,719,24,female,left_right_width,2024-08-29_09h03.21.715,exp1,2023.1.0,60.07131667171488,
,,,,,,,,,,,,,,,,4,9.1,9.7,10.3,10.9,0,0.6000000000000001,0.20000000000000004,0.4,2.2,10,match,36.05,328,350,371,393,0,9,9,9,9,0,,,,,,,2,0,2,0,0,12,12,16,,,,,,,,,,,,num_3,1.5090407000097912,num_3,0.4,1.2,0.25000000000000006,1.0,9.55138,38.2055,return,4.595264800009318,,,,,,,,,,,,,,,,,719,24,female,left_right_width,2024-08-29_09h03.21.715,exp1,2023.1.0,60.07131667171488,
,,,,,,,,,,,,,,,,4,9.1,9.7,10.3,10.9,0,0.5999999999999999,0.3499999999999999,0.25,2.05,10,match,36.05,328,350,371,393,0,9,9,9,9,0,,,,,,,2,0,2,0,0,13,13,14,,,,,,,,,,,,num_3,1.081176300009247,num_3,0.25,0.6,0.3,0.75,11.46165,28.65413,return,2.7250181999988854,,,,,,,,,,,,,,,,,719,24,female,left_right_width,2024-08-29_09h03.21.715,exp1,2023.1.0,60.07131667171488,
,,,,,,,,,,,,,,,,5,8.6,9.3,10,10.7,11.4,0.7,0.1499999999999999,0.55,3.3499999999999996,10,initial,36.05,310,335,361,386,411,9,9,9,9,9,,,,,,,2,0,2,0,0,14,14,40,,,,,,,,,,,,num_3,1.7659044000029098,num_3,0.2,0.4,0.44999999999999996,0.65,17.19248,24.83358,return,4.104063299979316,,,,,,,,,,,,,,,,,719,24,female,left_right_width,2024-08-29_09h03.21.715,exp1,2023.1.0,60.07131667171488,
,,,,,,,,,,,,,,,,3,9.3,10,10.7,0,0,0.7,0.44999999999999996,0.25,1.65,10,initial,36.05,335,361,386,0,0,9,9,9,0,0,,,,,,,2,0,2,0,0,15,15,7,,,,,,,,,,,,num_3,0.9560699000139721,num_3,0.25,0.3,0.35,0.7,13.37193,26.74385,return,4.43207809998421,,,,,,,,,,,,,,,,,719,24,female,left_right_width,2024-08-29_09h03.21.715,exp1,2023.1.0,60.07131667171488,
,,,,,,,,,,,,,,,,4,8.35,9.45,10.55,11.65,0,1.1,0.55,0.55,3.8500000000000005,10,initial,36.05,301,341,380,420,0,9,9,9,9,0,,,,,,,2,0,2,0,0,16,16,17,,,,,,,,,,,,num_4,1.2130477000027895,num_4,0.4,0.9,0.35000000000000003,0.9,13.37193,34.38495,return,1.305749899998773,,,,,,,,,,,,,,,,,719,24,female,left_right_width,2024-08-29_09h03.21.715,exp1,2023.1.0,60.07131667171488,
,,,,,,,,,,,,,,,,3,8.9,10,11.1,0,0,1.1,0.55,0.55,2.75,10,initial,36.05,321,361,400,0,0,9,9,9,0,0,,,,,,,2,0,2,0,0,17,17,0,,,,,,,,,,,,num_3,0.9118483999918681,num_3,0.2,0.5,0.5499999999999999,0.8,21.01303,30.5644,return,4.393875300011132,,,,,,,,,,,,,,,,,719,24,female,left_right_width,2024-08-29_09h03.21.715,exp1,2023.1.0,60.07131667171488,
,,,,,,,,,,,,,,,,4,8.65,9.55,10.45,11.35,0,0.9,0.65,0.25,2.95,10,initial,36.05,312,344,377,409,0,9,9,9,9,0,,,,,,,2,0,2,0,0,18,18,30,,,,,,,,,,,,num_4,1.3784516000014264,num_4,0.35,1.1,0.15000000000000002,0.8,5.73083,30.5644,return,2.4099614000006113,,,,,,,,,,,,,,,,,719,24,female,left_right_width,2024-08-29_09h03.21.715,exp1,2023.1.0,60.07131667171488,
,,,,,,,,,,,,,,,,3,7.8,10,12.2,0,0,2.2,1.9500000000000002,0.25,4.65,10,match,36.05,281,361,440,0,0,9,9,9,0,0,,,,,,,2,0,2,0,0,19,19,37,,,,,,,,,,,,num_3,0.9570253000129014,num_3,0.45,0.6,0.20000000000000007,1.5,7.6411,57.30826,return,5.662324900011299,,,,,,,,,,,,,,,,,719,24,female,left_right_width,2024-08-29_09h03.21.715,exp1,2023.1.0,60.07131667171488,
,,,,,,,,,,,,,,,,3,8.9,10,11.1,0,0,1.1,0.7000000000000001,0.4,2.6000000000000005,10,initial,36.05,321,361,400,0,0,9,9,9,0,0,,,,,,,2,0,2,0,0,20,20,4,,,,,,,,,,,,num_3,0.8992678000067826,num_3,0.45,0.5,0.25000000000000006,1.3,9.55138,49.66716,return,4.587052999995649,,,,,,,,,,,,,,,,,719,24,female,left_right_width,2024-08-29_09h03.21.715,exp1,2023.1.0,60.07131667171488,
,,,,,,,,,,,,,,,,4,8.9,9.633333333333333,10.366666666666667,11.1,0,0.7333333333333333,0.18333333333333326,0.55,2.75,10,match,36.05,321,347,374,400,0,9,9,9,9,0,,,,,,,2,0,2,0,0,21,21,1,,,,,,,,,,,,num_3,0.9934372999996413,num_3,0.4,1,0.45,0.8,17.19248,30.5644,return,2.917257499997504,,,,,,,,,,,,,,,,,719,24,female,left_right_width,2024-08-29_09h03.21.715,exp1,2023.1.0,60.07131667171488,
,,,,,,,,,,,,,,,,4,8.35,9.45,10.55,11.65,0,1.1,0.8500000000000001,0.25,3.5500000000000003,10,initial,36.05,301,341,380,420,0,9,9,9,9,0,,,,,,,2,0,2,0,0,22,22,19,,,,,,,,,,,,num_3,0.8372774999879766,num_3,0.25,0.5,0.44999999999999996,0.9,17.19248,34.38495,return,4.142155000008643,,,,,,,,,,,,,,,,,719,24,female,left_right_width,2024-08-29_09h03.21.715,exp1,2023.1.0,60.07131667171488,
,,,,,,,,,,,,,,,,4,8.35,9.45,10.55,11.65,0,1.1,0.7000000000000001,0.4,3.7,10,initial,36.05,301,341,380,420,0,9,9,9,9,0,,,,,,,2,0,2,0,0,23,23,21,,,,,,,,,,,,num_3,1.1350885999854654,num_3,0.5,1.1,0.35000000000000003,1.3,13.37193,49.66716,return,4.38110259998939,,,,,,,,,,,,,,,,,719,24,female,left_right_width,2024-08-29_09h03.21.715,exp1,2023.1.0,60.07131667171488,
,,,,,,,,,,,,,,,,5,7.8,8.9,10,11.1,12.2,1.1,0.8500000000000001,0.25,4.65,10,initial,36.05,281,321,361,400,440,9,9,9,9,9,,,,,,,2,0,2,0,0,24,24,36,,,,,,,,,,,,num_7,1.19942250000895,num_7,0.25,0.6,0.25,0.6,9.55138,22.9233,return,3.0318269999988843,,,,,,,,,,,,,,,,,719,24,female,left_right_width,2024-08-29_09h03.21.715,exp1,2023.1.0,60.07131667171488,
,,,,,,,,,,,,,,,,5,8.275,9.1375,10,10.8625,11.725,0.8625,0.6125,0.25,3.7,10,match,36.05,298,329,361,392,423,9,9,9,9,9,,,,,,,2,0,2,0,0,25,25,22,,,,,,,,,,,,num_4,0.9615321999881417,num_4,0.5,1.2,0.20000000000000007,0.9,7.6411,34.38495,return,4.001738300023135,,,,,,,,,,,,,,,,,719,24,female,left_right_width,2024-08-29_09h03.21.715,exp1,2023.1.0,60.07131667171488,
,,,,,,,,,,,,,,,,5,8.6,9.3,10,10.7,11.4,0.7,0.29999999999999993,0.4,3.1999999999999997,10,initial,36.05,310,335,361,386,411,9,9,9,9,9,,,,,,,2,0,2,0,0,26,26,44,,,,,,,,,,,,num_4,0.9247347000055015,num_4,0.4,0.5,0.4,1.4,15.2822,53.48771,return,6.611239499994554,,,,,,,,,,,,,,,,,719,24,female,left_right_width,2024-08-29_09h03.21.715,exp1,2023.1.0,60.07131667171488,
,,,,,,,,,,,,,,,,4,9.3,9.766666666666667,10.233333333333333,10.7,0,0.4666666666666667,0.21666666666666665,0.25,1.65,10,match,36.05,335,352,369,386,0,9,9,9,9,0,,,,,,,2,0,2,0,0,27,27,8,,,,,,,,,,,,num_3,1.0545475000108127,num_3,0.4,1.3,0.20000000000000007,0.6,7.6411,22.9233,return,7.516573800006881,,,,,,,,,,,,,,,,,719,24,female,left_right_width,2024-08-29_09h03.21.715,exp1,2023.1.0,60.07131667171488,
,,,,,,,,,,,,,,,,5,8.35,9.175,10,10.825,11.65,0.8250000000000001,0.275,0.55,3.85,10,match,36.05,301,331,361,390,420,9,9,9,9,9,,,,,,,2,0,2,0,0,28,28,18,,,,,,,,,,,,num_4,1.0539598000177648,num_4,0.5,1.0,0.5,1.0,19.10275,38.2055,return,2.6863727000018116,,,,,,,,,,,,,,,,,719,24,female,left_right_width,2024-08-29_09h03.21.715,exp1,2023.1.0,60.07131667171488,
,,,,,,,,,,,,,,,,3,7.800000000000001,10,12.2,0,0,2.1999999999999997,1.7999999999999998,0.4,4.8,10,match,36.05,281,361,440,0,0,9,9,9,0,0,,,,,,,2,0,2,0,0,29,29,39,,,,,,,,,,,,num_4,1.1825930000049993,num_4,0.5,1.2,0.5,1.2,19.10275,45.8466,return,1.1452605999947991,,,,,,,,,,,,,,,,,719,24,female,left_right_width,2024-08-29_09h03.21.715,exp1,2023.1.0,60.07131667171488,
,,,,,,,,,,,,,,,,4,8.65,9.55,10.45,11.35,0,0.9,0.5,0.4,3.1,10,initial,36.05,312,344,377,409,0,9,9,9,9,0,,,,,,,2,0,2,0,0,30,30,32,,,,,,,,,,,,num_4,1.0116766999999527,num_4,0.25,1.0,0.44999999999999996,1.0,17.19248,38.2055,return,1.6091147000261117,,,,,,,,,,,,,,,,,719,24,female,left_right_width,2024-08-29_09h03.21.715,exp1,2023.1.0,60.07131667171488,
,,,,,,,,,,,,,,,,5,8.2,9.1,10,10.9,11.8,0.9,0.5,0.4,4,10,initial,36.05,296,328,361,393,425,9,9,9,9,9,,,,,,,2,0,2,0,0,31,31,50,,,,,,,,,,,,num_5,1.0586121000233106,num_5,0.5,0.9,0.4,0.9,15.2822,34.38495,return,1.1878600000054576,,,,,,,,,,,,,,,,,719,24,female,left_right_width,2024-08-29_09h03.21.715,exp1,2023.1.0,60.07131667171488,
,,,,,,,,,,,,,,,,3,9.3,10,10.7,0,0,0.7,0.29999999999999993,0.4,1.8,10,initial,36.05,335,361,386,0,0,9,9,9,0,0,,,,,,,2,0,2,0,0,32,32,9,,,,,,,,,,,,num_3,0.9707199000113178,num_3,0.5,0.8,0.4,0.8,15.2822,30.5644,return,2.2866625000024214,,,,,,,,,,,,,,,,,719,24,female,left_right_width,2024-08-29_09h03.21.715,exp1,2023.1.0,60.07131667171488,
,,,,,,,,,,,,,,,,3,9.1,10,10.9,0,0,0.9,0.35,0.55,2.35,10,initial,36.05,328,361,393,0,0,9,9,9,0,0,,,,,,,2,0,2,0,0,33,33,11,,,,,,,,,,,,num_3,1.0283471000147983,num_3,0.25,1.3,0.49999999999999994,1.1,19.10275,42.02605,return,2.8343633000040427,,,,,,,,,,,,,,,,,719,24,female,left_right_width,2024-08-29_09h03.21.715,exp1,2023.1.0,60.07131667171488,
,,,,,,,,,,,,,,,,4,9.3,9.766666666666667,10.233333333333333,10.7,0,0.4666666666666667,0.06666666666666665,0.4,1.8,10,match,36.05,335,352,369,386,0,9,9,9,9,0,,,,,,,2,0,2,0,0,34,34,10,,,,,,,,,,,,num_3,1.0178083000064362,num_3,0.45,1.2,0.35000000000000003,0.65,13.37193,24.83358,return,4.447871300013503,,,,,,,,,,,,,,,,,719,24,female,left_right_width,2024-08-29_09h03.21.715,exp1,2023.1.0,60.07131667171488,
,,,,,,,,,,,,,,,,3,8.525,10,11.475,0,0,1.475,1.225,0.25,3.2,10,match,36.05,307,361,414,0,0,9,9,9,0,0,,,,,,,2,0,2,0,0,35,35,45,,,,,,,,,,,,num_3,1.0516350000107195,num_3,0.5,1,0.30000000000000004,1.25,11.46165,47.75688,return,5.903555500000948,,,,,,,,,,,,,,,,,719,24,female,left_right_width,2024-08-29_09h03.21.715,exp1,2023.1.0,60.07131667171488,
,,,,,,,,,,,,,,,,4,8.95,9.65,10.35,11.05,0,0.7,0.44999999999999996,0.25,2.3499999999999996,10,initial,36.05,323,348,373,398,0,9,9,9,9,0,,,,,,,2,0,2,0,0,36,36,24,,,,,,,,,,,,num_3,1.1797494000056759,num_3,0.2,0.7,0.2,0.75,7.6411,28.65413,return,1.5310501999920234,,,,,,,,,,,,,,,,,719,24,female,left_right_width,2024-08-29_09h03.21.715,exp1,2023.1.0,60.07131667171488,
,,,,,,,,,,,,,,,,5,8.65,9.325,10,10.675,11.35,0.675,0.125,0.55,3.25,10,match,36.05,312,336,361,385,409,9,9,9,9,9,,,,,,,2,0,2,0,0,37,37,29,,,,,,,,,,,,num_3,0.915918699989561,num_3,0.4,0.8,0.7500000000000002,0.95,28.65413,36.29523,return,4.28114999999525,,,,,,,,,,,,,,,,,719,24,female,left_right_width,2024-08-29_09h03.21.715,exp1,2023.1.0,60.07131667171488,
,,,,,,,,,,,,,,,,4,8.95,9.65,10.35,11.05,0,0.7,0.29999999999999993,0.4,2.5,10,initial,36.05,323,348,373,398,0,9,9,9,9,0,,,,,,,2,0,2,0,0,38,38,26,,,,,,,,,,,,num_3,0.8964902000152506,num_3,0.45,1.2,0.5,1.05,19.10275,40.11578,return,2.472039800020866,,,,,,,,,,,,,,,,,719,24,female,left_right_width,2024-08-29_09h03.21.715,exp1,2023.1.0,60.07131667171488,
,,,,,,,,,,,,,,,,5,8.65,9.325,10,10.675,11.35,0.675,0.42500000000000004,0.25,2.95,10,match,36.05,312,336,361,385,409,9,9,9,9,9,,,,,,,2,0,2,0,0,39,39,31,,,,,,,,,,,,num_4,0.8432592999888584,num_4,0.2,0.7,0.3,0.7,11.46165,26.74385,return,1.032396599999629,,,,,,,,,,,,,,,,,719,24,female,left_right_width,2024-08-29_09h03.21.715,exp1,2023.1.0,60.07131667171488,
,,,,,,,,,,,,,,,,4,8.95,9.65,10.35,11.05,0,0.7,0.1499999999999999,0.55,2.65,10,initial,36.05,323,348,373,398,0,9,9,9,9,0,,,,,,,2,0,2,0,0,40,40,23,,,,,,,,,,,,num_3,1.2963241999968886,num_3,0.25,1.1,0.39999999999999997,1.1,15.2822,42.02605,return,2.357179199985694,,,,,,,,,,,,,,,,,719,24,female,left_right_width,2024-08-29_09h03.21.715,exp1,2023.1.0,60.07131667171488,
,,,,,,,,,,,,,,,,3,8.6,10,11.4,0,0,1.4,0.85,0.55,3.35,10,match,36.05,310,361,411,0,0,9,9,9,0,0,,,,,,,2,0,2,0,0,41,41,41,,,,,,,,,,,,num_3,0.869484900002135,num_3,0.4,1.1,0.55,1.1,21.01303,42.02605,return,1.6611671000136994,,,,,,,,,,,,,,,,,719,24,female,left_right_width,2024-08-29_09h03.21.715,exp1,2023.1.0,60.07131667171488,
,,,,,,,,,,,,,,,,4,8.65,9.55,10.45,11.35,0,0.9,0.35,0.55,3.25,10,initial,36.05,312,344,377,409,0,9,9,9,9,0,,,,,,,2,0,2,0,0,42,42,28,,,,,,,,,,,,num_3,0.9308016000140924,num_3,0.3,0.6,0.49999999999999994,0.75,19.10275,28.65413,return,2.6633828000049107,,,,,,,,,,,,,,,,,719,24,female,left_right_width,2024-08-29_09h03.21.715,exp1,2023.1.0,60.07131667171488,
,,,,,,,,,,,,,,,,5,8.95,9.475,10,10.525,11.05,0.525,0.125,0.4,2.5,10,match,36.05,323,342,361,379,398,9,9,9,9,9,,,,,,,2,0,2,0,0,43,43,27,,,,,,,,,,,,num_4,0.9332769000029657,num_4,0.4,1.0,0.55,1.0,21.01303,38.2055,return,1.8864843999908771,,,,,,,,,,,,,,,,,719,24,female,left_right_width,2024-08-29_09h03.21.715,exp1,2023.1.0,60.07131667171488,
,,,,,,,,,,,,,,,,5,8.95,9.475,10,10.525,11.05,0.525,0.275,0.25,2.35,10,match,36.05,323,342,361,379,398,9,9,9,9,9,,,,,,,2,0,2,0,0,44,44,25,,,,,,,,,,,,num_4,0.9620523999910802,num_4,0.4,0.9,0.4,0.9,15.2822,34.38495,return,1.2859327000041958,,,,,,,,,,,,,,,,,719,24,female,left_right_width,2024-08-29_09h03.21.715,exp1,2023.1.0,60.07131667171488,
,,,,,,,,,,,,,,,,5,8.2,9.1,10,10.9,11.8,0.9,0.35,0.55,4.15,10,initial,36.05,296,328,361,393,425,9,9,9,9,9,,,,,,,2,0,2,0,0,45,45,46,,,,,,,,,,,,num_4,0.8350964999990538,num_4,0.4,1.1,0.5,1.1,19.10275,42.02605,return,0.9124623000097927,,,,,,,,,,,,,,,,,719,24,female,left_right_width,2024-08-29_09h03.21.715,exp1,2023.1.0,60.07131667171488,
,,,,,,,,,,,,,,,,3,8.9,10,11.1,0,0,1.1,0.8500000000000001,0.25,2.45,10,initial,36.05,321,361,400,0,0,9,9,9,0,0,,,,,,,2,0,2,0,0,46,46,2,,,,,,,,,,,,num_3,0.8635364999936428,num_3,0.2,0.7,0.3,0.7,11.46165,26.74385,return,1.0675998000078835,,,,,,,,,,,,,,,,,719,24,female,left_right_width,2024-08-29_09h03.21.715,exp1,2023.1.0,60.07131667171488,
,,,,,,,,,,,,,,,,3,7.8,10,12.2,0,0,2.2,1.65,0.55,4.95,10,match,36.05,281,361,440,0,0,9,9,9,0,0,,,,,,,2,0,2,0,0,47,47,35,,,,,,,,,,,,num_3,0.6905975000117905,num_3,0.45,0.5,0.55,0.9,21.01303,34.38495,return,4.048447600012878,,,,,,,,,,,,,,,,,719,24,female,left_right_width,2024-08-29_09h03.21.715,exp1,2023.1.0,60.07131667171488,
,,,,,,,,,,,,,,,,3,8.2,10,11.8,0,0,1.8,1.55,0.25,3.85,10,match,36.05,296,361,425,0,0,9,9,9,0,0,,,,,,,2,0,2,0,0,48,48,49,,,,,,,,,,,,num_3,0.7330434000177775,num_3,0.5,1.2,0.20000000000000007,1.15,7.6411,43.93633,return,3.4636819000006653,,,,,,,,,,,,,,,,,719,24,female,left_right_width,2024-08-29_09h03.21.715,exp1,2023.1.0,60.07131667171488,
,,,,,,,,,,,,,,,,4,8.825,9.608333333333333,10.391666666666667,11.175,0,0.7833333333333333,0.5333333333333333,0.25,2.6,10,match,36.05,318,346,375,403,0,9,9,9,9,0,,,,,,,2,0,2,0,0,49,49,5,,,,,,,,,,,,num_3,0.8559850000019651,num_3,0.2,0.3,0.2,1.1,7.6411,42.02605,return,4.8842489999951795,,,,,,,,,,,,,,,,,719,24,female,left_right_width,2024-08-29_09h03.21.715,exp1,2023.1.0,60.07131667171488,
,,,,,,,,,,,,,,,,3,9.1,10,10.9,0,0,0.9,0.5,0.4,2.2,10,initial,36.05,328,361,393,0,0,9,9,9,0,0,,,,,,,2,0,2,0,0,50,50,15,,,,,,,,,,,,num_3,1.1981659999873955,num_3,0.2,0.5,0.3,1.45,11.46165,55.39798,return,9.86163050000323,,,,,,,,,,,,,,,,,719,24,female,left_right_width,2024-08-29_09h03.21.715,exp1,2023.1.0,60.07131667171488,
,,,,,,,,,,,,,,,,3,8.2,10,11.8,0,0,1.7999999999999998,1.4,0.4,4,10,match,36.05,296,361,425,0,0,9,9,9,0,0,,,,,,,2,0,2,0,0,51,51,51,,,,,,,,,,,,num_3,3.1162922000221442,num_3,0.4,1.3,0.4,1.3,15.2822,49.66716,return,1.4165448999847285,,,,,,,,,,,,,,,,,719,24,female,left_right_width,2024-08-29_09h03.21.715,exp1,2023.1.0,60.07131667171488,
,,,,,,,,,,,,,,,,,,,,,,,,,,,,,,,,,,,,,,,,,,,,,2,0,2,0,,,,,,,,,,,,,,,,,,,,,,,,,,,,,1666.6745609999925,1666.6745609999925,1666.6745609999925,,,,,,,,,,,,719,24,female,left_right_width,2024-08-29_09h03.21.715,exp1,2023.1.0,60.07131667171488,
,,,,,,,,,,,,,,,,3,9.3,10,10.7,0,0,0.7,0.44999999999999996,0.25,1.65,10,initial,36.05,335,361,386,0,0,9,9,9,0,0,,,,,,,3,0,3,0,0,0,0,7,,,,,,,,,,,,num_3,2.9563259000133257,num_3,0.25,0.8,0.15000000000000002,0.8,5.73083,30.5644,return,2.7354148000013083,,,,,,,,,,,,,,,,,719,24,female,left_right_width,2024-08-29_09h03.21.715,exp1,2023.1.0,60.07131667171488,
,,,,,,,,,,,,,,,,5,8.275,9.1375,10,10.8625,11.725,0.8625,0.6125,0.25,3.7,10,match,36.05,298,329,361,392,423,9,9,9,9,9,,,,,,,3,0,3,0,0,1,1,22,,,,,,,,,,,,num_4,1.3696338000008836,num_4,0.3,0.3,0.3,0.7,11.46165,26.74385,return,3.245032500009984,,,,,,,,,,,,,,,,,719,24,female,left_right_width,2024-08-29_09h03.21.715,exp1,2023.1.0,60.07131667171488,
,,,,,,,,,,,,,,,,3,8.6,10,11.4,0,0,1.4,0.85,0.55,3.35,10,match,36.05,310,361,411,0,0,9,9,9,0,0,,,,,,,3,0,3,0,0,2,2,41,,,,,,,,,,,,num_4,3.9750389000109863,num_4,0.4,0.5,0.20000000000000007,0.7,7.6411,26.74385,return,2.62168159999419,,,,,,,,,,,,,,,,,719,24,female,left_right_width,2024-08-29_09h03.21.715,exp1,2023.1.0,60.07131667171488,
,,,,,,,,,,,,,,,,3,9.1,10,10.9,0,0,0.9,0.65,0.25,2.05,10,initial,36.05,328,361,393,0,0,9,9,9,0,0,,,,,,,3,0,3,0,0,3,3,13,,,,,,,,,,,,num_3,1.4871940000157338,num_3,0.3,1,0.25,1.1,9.55138,42.02605,return,2.002500400005374,,,,,,,,,,,,,,,,,719,24,female,left_right_width,2024-08-29_09h03.21.715,exp1,2023.1.0,60.07131667171488,
,,,,,,,,,,,,,,,,3,7.8,10,12.2,0,0,2.2,1.9500000000000002,0.25,4.65,10,match,36.05,281,361,440,0,0,9,9,9,0,0,,,,,,,3,0,3,0,0,4,4,37,,,,,,,,,,,,num_3,1.3244281000224873,num_3,0.25,0.4,0.25,1.2,9.55138,45.8466,return,5.6851409999944735,,,,,,,,,,,,,,,,,719,24,female,left_right_width,2024-08-29_09h03.21.715,exp1,2023.1.0,60.07131667171488,
,,,,,,,,,,,,,,,,4,9.3,9.766666666666667,10.233333333333333,10.7,0,0.4666666666666667,0.21666666666666665,0.25,1.65,10,match,36.05,335,352,369,386,0,9,9,9,9,0,,,,,,,3,0,3,0,0,5,5,8,,,,,,,,,,,,num_3,1.0887212999805342,num_3,0.55,0.6,0.30000000000000004,0.75,11.46165,28.65413,return,4.606660799996462,,,,,,,,,,,,,,,,,719,24,female,left_right_width,2024-08-29_09h03.21.715,exp1,2023.1.0,60.07131667171488,
,,,,,,,,,,,,,,,,4,9.3,9.766666666666667,10.233333333333333,10.7,0,0.4666666666666667,0.06666666666666665,0.4,1.8,10,match,36.05,335,352,369,386,0,9,9,9,9,0,,,,,,,3,0,3,0,0,6,6,10,,,,,,,,,,,,num_3,0.8519779999915045,num_3,0.2,0.6,0.3,0.5,11.46165,19.10275,return,2.5193669000000227,,,,,,,,,,,,,,,,,719,24,female,left_right_width,2024-08-29_09h03.21.715,exp1,2023.1.0,60.07131667171488,
,,,,,,,,,,,,,,,,5,8.65,9.325,10,10.675,11.35,0.675,0.42500000000000004,0.25,2.95,10,match,36.05,312,336,361,385,409,9,9,9,9,9,,,,,,,3,0,3,0,0,7,7,31,,,,,,,,,,,,num_4,0.8675096999795642,num_4,0.2,0.8,0.2,0.5,7.6411,19.10275,return,2.121968300023582,,,,,,,,,,,,,,,,,719,24,female,left_right_width,2024-08-29_09h03.21.715,exp1,2023.1.0,60.07131667171488,
,,,,,,,,,,,,,,,,4,8.35,9.45,10.55,11.65,0,1.1,0.8500000000000001,0.25,3.5500000000000003,10,initial,36.05,301,341,380,420,0,9,9,9,9,0,,,,,,,3,0,3,0,0,8,8,19,,,,,,,,,,,,num_4,0.8992945000063628,num_4,0.45,0.5,0.5,0.9,19.10275,34.38495,return,13.59379290000652,,,,,,,,,,,,,,,,,719,24,female,left_right_width,2024-08-29_09h03.21.715,exp1,2023.1.0,60.07131667171488,
,,,,,,,,,,,,,,,,4,9.1,9.7,10.3,10.9,0,0.6,0.04999999999999997,0.55,2.35,10,match,36.05,328,350,371,393,0,9,9,9,9,0,,,,,,,3,0,3,0,0,9,9,12,,,,,,,,,,,,num_4,0.8815107000118587,num_4,0.5,0.8,0.55,0.6,21.01303,22.9233,return,1.9449441999895498,,,,,,,,,,,,,,,,,719,24,female,left_right_width,2024-08-29_09h03.21.715,exp1,2023.1.0,60.07131667171488,
,,,,,,,,,,,,,,,,4,8.825,9.608333333333333,10.391666666666667,11.175,0,0.7833333333333333,0.5333333333333333,0.25,2.6,10,match,36.05,318,346,375,403,0,9,9,9,9,0,,,,,,,3,0,3,0,0,10,10,5,,,,,,,,,,,,num_4,0.936505700025009,num_4,0.55,0.9,0.25000000000000006,0.9,9.55138,34.38495,return,1.689922600024147,,,,,,,,,,,,,,,,,719,24,female,left_right_width,2024-08-29_09h03.21.715,exp1,2023.1.0,60.07131667171488,
,,,,,,,,,,,,,,,,5,7.8,8.9,10,11.1,12.2,1.1,0.55,0.55,4.95,10,initial,36.05,281,321,361,400,440,9,9,9,9,9,,,,,,,3,0,3,0,0,11,11,34,,,,,,,,,,,,num_5,1.0941344999882858,num_5,0.2,1.0,0.39999999999999997,1.0,15.2822,38.2055,return,1.7675615000189282,,,,,,,,,,,,,,,,,719,24,female,left_right_width,2024-08-29_09h03.21.715,exp1,2023.1.0,60.07131667171488,
,,,,,,,,,,,,,,,,4,8.9,9.633333333333333,10.366666666666667,11.1,0,0.7333333333333333,0.18333333333333326,0.55,2.75,10,match,36.05,321,347,374,400,0,9,9,9,9,0,,,,,,,3,0,3,0,0,12,12,1,,,,,,,,,,,,num_3,0.9182598000043072,num_3,0.25,1.2,0.44999999999999996,0.8,17.19248,30.5644,return,3.2155168000026606,,,,,,,,,,,,,,,,,719,24,female,left_right_width,2024-08-29_09h03.21.715,exp1,2023.1.0,60.07131667171488,
,,,,,,,,,,,,,,,,5,7.8,8.9,10,11.1,12.2,1.1,0.8500000000000001,0.25,4.65,10,initial,36.05,281,321,361,400,440,9,9,9,9,9,,,,,,,3,0,3,0,0,13,13,36,,,,,,,,,,,,num_4,0.7924151999759488,num_4,0.45,1.0,0.20000000000000007,1.0,7.6411,38.2055,return,1.896262199996272,,,,,,,,,,,,,,,,,719,24,female,left_right_width,2024-08-29_09h03.21.715,exp1,2023.1.0,60.07131667171488,
,,,,,,,,,,,,,,,,5,8.35,9.175,10,10.825,11.65,0.825,0.575,0.25,3.55,10,match,36.05,301,331,361,390,420,9,9,9,9,9,,,,,,,3,0,3,0,0,14,14,20,,,,,,,,,,,,num_4,1.0219211999792606,num_4,0.2,0.9,0.3,1.1,11.46165,42.02605,return,2.1894934000156354,,,,,,,,,,,,,,,,,719,24,female,left_right_width,2024-08-29_09h03.21.715,exp1,2023.1.0,60.07131667171488,
,,,,,,,,,,,,,,,,4,9.1,9.7,10.3,10.9,0,0.5999999999999999,0.3499999999999999,0.25,2.05,10,match,36.05,328,350,371,393,0,9,9,9,9,0,,,,,,,3,0,3,0,0,15,15,14,,,,,,,,,,,,num_3,0.9900342999899294,num_3,0.3,0.9,0.15000000000000002,0.9,5.73083,34.38495,return,1.6205464999948163,,,,,,,,,,,,,,,,,719,24,female,left_right_width,2024-08-29_09h03.21.715,exp1,2023.1.0,60.07131667171488,
,,,,,,,,,,,,,,,,5,8.6,9.3,10,10.7,11.4,0.7,0.44999999999999996,0.25,3.05,10,initial,36.05,310,335,361,386,411,9,9,9,9,9,,,,,,,3,0,3,0,0,16,16,42,,,,,,,,,,,,num_4,0.8079800000123214,num_4,0.5,1.3,0.20000000000000007,0.8,7.6411,30.5644,return,2.933691499987617,,,,,,,,,,,,,,,,,719,24,female,left_right_width,2024-08-29_09h03.21.715,exp1,2023.1.0,60.07131667171488,
,,,,,,,,,,,,,,,,4,8.95,9.65,10.35,11.05,0,0.7,0.1499999999999999,0.55,2.65,10,initial,36.05,323,348,373,398,0,9,9,9,9,0,,,,,,,3,0,3,0,0,17,17,23,,,,,,,,,,,,num_3,0.8101065999944694,num_3,0.5,0.7,0.5,0.75,19.10275,28.65413,return,2.594757800019579,,,,,,,,,,,,,,,,,719,24,female,left_right_width,2024-08-29_09h03.21.715,exp1,2023.1.0,60.07131667171488,
,,,,,,,,,,,,,,,,3,8.9,10,11.1,0,0,1.1,0.7000000000000001,0.4,2.6000000000000005,10,initial,36.05,321,361,400,0,0,9,9,9,0,0,,,,,,,3,0,3,0,0,18,18,4,,,,,,,,,,,,num_3,0.9159273999975994,num_3,0.25,0.8,0.39999999999999997,0.9,15.2822,34.38495,return,1.8018674000049941,,,,,,,,,,,,,,,,,719,24,female,left_right_width,2024-08-29_09h03.21.715,exp1,2023.1.0,60.07131667171488,
,,,,,,,,,,,,,,,,5,8.2,9.1,10,10.9,11.8,0.9,0.35,0.55,4.15,10,initial,36.05,296,328,361,393,425,9,9,9,9,9,,,,,,,3,0,3,0,0,19,19,46,,,,,,,,,,,,num_4,0.8393887999991421,num_4,0.45,0.9,0.45,0.9,17.19248,34.38495,return,1.0099958000064362,,,,,,,,,,,,,,,,,719,24,female,left_right_width,2024-08-29_09h03.21.715,exp1,2023.1.0,60.07131667171488,
,,,,,,,,,,,,,,,,5,8.2,9.1,10,10.9,11.8,0.9,0.65,0.25,3.85,10,initial,36.05,296,328,361,393,425,9,9,9,9,9,,,,,,,3,0,3,0,0,20,20,48,,,,,,,,,,,,num_4,0.8323635999986436,num_4,0.3,1.1,0.35,1.1,13.37193,42.02605,return,1.2926892999967095,,,,,,,,,,,,,,,,,719,24,female,left_right_width,2024-08-29_09h03.21.715,exp1,2023.1.0,60.07131667171488,
,,,,,,,,,,,,,,,,3,9.1,10,10.9,0,0,0.9,0.5,0.4,2.2,10,initial,36.05,328,361,393,0,0,9,9,9,0,0,,,,,,,3,0,3,0,0,21,21,15,,,,,,,,,,,,num_3,0.8007651999942027,num_3,0.5,0.9,0.35000000000000003,0.9,13.37193,34.38495,return,1.6483227999997325,,,,,,,,,,,,,,,,,719,24,female,left_right_width,2024-08-29_09h03.21.715,exp1,2023.1.0,60.07131667171488,
,,,,,,,,,,,,,,,,5,8.65,9.325,10,10.675,11.35,0.675,0.275,0.4,3.1,10,match,36.05,312,336,361,385,409,9,9,9,9,9,,,,,,,3,0,3,0,0,22,22,33,,,,,,,,,,,,num_4,0.8494189000048209,num_4,0.3,0.9,0.3,0.9,11.46165,34.38495,return,1.2598763000278268,,,,,,,,,,,,,,,,,719,24,female,left_right_width,2024-08-29_09h03.21.715,exp1,2023.1.0,60.07131667171488,
,,,,,,,,,,,,,,,,3,7.8,10,12.2,0,0,2.2,1.65,0.55,4.95,10,match,36.05,281,361,440,0,0,9,9,9,0,0,,,,,,,3,0,3,0,0,23,23,35,,,,,,,,,,,,num_3,0.9727418000111356,num_3,0.55,0.9,0.35000000000000003,1.6,13.37193,61.12881,return,6.445745999983046,,,,,,,,,,,,,,,,,719,24,female,left_right_width,2024-08-29_09h03.21.715,exp1,2023.1.0,60.07131667171488,
,,,,,,,,,,,,,,,,3,8.6,10,11.4,0,0,1.4,1.15,0.25,3.05,10,match,36.05,310,361,411,0,0,9,9,9,0,0,,,,,,,3,0,3,0,0,24,24,43,,,,,,,,,,,,num_3,0.9439699000213295,num_3,0.45,1.1,0.15000000000000008,1.1,5.73083,42.02605,return,2.24303549999604,,,,,,,,,,,,,,,,,719,24,female,left_right_width,2024-08-29_09h03.21.715,exp1,2023.1.0,60.07131667171488,
,,,,,,,,,,,,,,,,3,8.2,10,11.8,0,0,1.8,1.25,0.55,4.15,10,match,36.05,296,361,425,0,0,9,9,9,0,0,,,,,,,3,0,3,0,0,25,25,47,,,,,,,,,,,,num_2,0.8805489000224043,num_2,0.25,1.0,0.25,1.0,9.55138,38.2055,return,1.7376343000214547,,,,,,,,,,,,,,,,,719,24,female,left_right_width,2024-08-29_09h03.21.715,exp1,2023.1.0,60.07131667171488,
,,,,,,,,,,,,,,,,5,8.95,9.475,10,10.525,11.05,0.525,0.275,0.25,2.35,10,match,36.05,323,342,361,379,398,9,9,9,9,9,,,,,,,3,0,3,0,0,26,26,25,,,,,,,,,,,,num_4,0.8408696999831591,num_4,0.25,0.3,0.25,0.7,9.55138,26.74385,return,3.2277784000034444,,,,,,,,,,,,,,,,,719,24,female,left_right_width,2024-08-29_09h03.21.715,exp1,2023.1.0,60.07131667171488,
,,,,,,,,,,,,,,,,3,8.9,10,11.1,0,0,1.1,0.55,0.55,2.75,10,initial,36.05,321,361,400,0,0,9,9,9,0,0,,,,,,,3,0,3,0,0,27,27,0,,,,,,,,,,,,num_2,1.9268270999891683,num_2,0.2,1.6,0.65,1.1,24.83358,42.02605,return,4.130761099979281,,,,,,,,,,,,,,,,,719,24,female,left_right_width,2024-08-29_09h03.21.715,exp1,2023.1.0,60.07131667171488,
,,,,,,,,,,,,,,,,4,8.35,9.45,10.55,11.65,0,1.1,0.55,0.55,3.8500000000000005,10,initial,36.05,301,341,380,420,0,9,9,9,9,0,,,,,,,3,0,3,0,0,28,28,17,,,,,,,,,,,,num_4,1.0728568999911658,num_4,0.3,0.8,0.39999999999999997,0.8,15.2822,30.5644,return,1.199281399982283,,,,,,,,,,,,,,,,,719,24,female,left_right_width,2024-08-29_09h03.21.715,exp1,2023.1.0,60.07131667171488,
,,,,,,,,,,,,,,,,3,8.2,10,11.8,0,0,1.8,1.55,0.25,3.85,10,match,36.05,296,361,425,0,0,9,9,9,0,0,,,,,,,3,0,3,0,0,29,29,49,,,,,,,,,,,,num_3,0.961308400001144,num_3,0.5,0.6,0.30000000000000004,0.7,11.46165,26.74385,return,3.5716070999915246,,,,,,,,,,,,,,,,,719,24,female,left_right_width,2024-08-29_09h03.21.715,exp1,2023.1.0,60.07131667171488,
,,,,,,,,,,,,,,,,3,9.3,10,10.7,0,0,0.7,0.29999999999999993,0.4,1.8,10,initial,36.05,335,361,386,0,0,9,9,9,0,0,,,,,,,3,0,3,0,0,30,30,9,,,,,,,,,,,,num_3,0.8442304000200238,num_3,0.3,0.7,0.25,0.7,9.55138,26.74385,return,0.9329835000098683,,,,,,,,,,,,,,,,,719,24,female,left_right_width,2024-08-29_09h03.21.715,exp1,2023.1.0,60.07131667171488,
,,,,,,,,,,,,,,,,4,8.95,9.65,10.35,11.05,0,0.7,0.29999999999999993,0.4,2.5,10,initial,36.05,323,348,373,398,0,9,9,9,9,0,,,,,,,3,0,3,0,0,31,31,26,,,,,,,,,,,,num_3,0.8455895000079181,num_3,0.4,0.9,0.25000000000000006,0.75,9.55138,28.65413,return,1.8831626000173856,,,,,,,,,,,,,,,,,719,24,female,left_right_width,2024-08-29_09h03.21.715,exp1,2023.1.0,60.07131667171488,
,,,,,,,,,,,,,,,,5,8.95,9.475,10,10.525,11.05,0.525,0.125,0.4,2.5,10,match,36.05,323,342,361,379,398,9,9,9,9,9,,,,,,,3,0,3,0,0,32,32,27,,,,,,,,,,,,num_3,0.9130655000044499,num_3,0.5,1.2,0.25000000000000006,0.9,9.55138,34.38495,return,3.38787009997759,,,,,,,,,,,,,,,,,719,24,female,left_right_width,2024-08-29_09h03.21.715,exp1,2023.1.0,60.07131667171488,
,,,,,,,,,,,,,,,,3,9.1,10,10.9,0,0,0.9,0.35,0.55,2.35,10,initial,36.05,328,361,393,0,0,9,9,9,0,0,,,,,,,3,0,3,0,0,33,33,11,,,,,,,,,,,,num_3,0.9613697000022512,num_3,0.3,1.3,0.39999999999999997,0.8,15.2822,30.5644,return,3.764104599977145,,,,,,,,,,,,,,,,,719,24,female,left_right_width,2024-08-29_09h03.21.715,exp1,2023.1.0,60.07131667171488,
,,,,,,,,,,,,,,,,3,8.525,10,11.475,0,0,1.475,1.225,0.25,3.2,10,match,36.05,307,361,414,0,0,9,9,9,0,0,,,,,,,3,0,3,0,0,34,34,45,,,,,,,,,,,,num_4,0.8856254999991506,num_4,0.2,1.0,0.2,1.1,7.6411,42.02605,return,1.8057703000085894,,,,,,,,,,,,,,,,,719,24,female,left_right_width,2024-08-29_09h03.21.715,exp1,2023.1.0,60.07131667171488,
,,,,,,,,,,,,,,,,3,8.9,10,11.1,0,0,1.1,0.8500000000000001,0.25,2.45,10,initial,36.05,321,361,400,0,0,9,9,9,0,0,,,,,,,3,0,3,0,0,35,35,2,,,,,,,,,,,,num_3,0.8385892999940552,num_3,0.55,1.2,0.30000000000000004,1.05,11.46165,40.11578,return,1.8722291000012774,,,,,,,,,,,,,,,,,719,24,female,left_right_width,2024-08-29_09h03.21.715,exp1,2023.1.0,60.07131667171488,
,,,,,,,,,,,,,,,,4,8.65,9.55,10.45,11.35,0,0.9,0.35,0.55,3.25,10,initial,36.05,312,344,377,409,0,9,9,9,9,0,,,,,,,3,0,3,0,0,36,36,28,,,,,,,,,,,,num_4,1.3274319000192918,num_4,0.55,0.8,0.35000000000000003,0.8,13.37193,30.5644,return,1.3845070000097621,,,,,,,,,,,,,,,,,719,24,female,left_right_width,2024-08-29_09h03.21.715,exp1,2023.1.0,60.07131667171488,
,,,,,,,,,,,,,,,,4,8.65,9.55,10.45,11.35,0,0.9,0.65,0.25,2.95,10,initial,36.05,312,344,377,409,0,9,9,9,9,0,,,,,,,3,0,3,0,0,37,37,30,,,,,,,,,,,,num_4,0.9492087000107858,num_4,0.2,1.2,0.3,0.9,11.46165,34.38495,return,1.9624080000212416,,,,,,,,,,,,,,,,,719,24,female,left_right_width,2024-08-29_09h03.21.715,exp1,2023.1.0,60.07131667171488,
,,,,,,,,,,,,,,,,3,9.3,10,10.7,0,0,0.7,0.1499999999999999,0.55,1.95,10,initial,36.05,335,361,386,0,0,9,9,9,0,0,,,,,,,3,0,3,0,0,38,38,6,,,,,,,,,,,,num_3,0.8896118999982718,num_3,0.45,1,0.30000000000000004,0.8,11.46165,30.5644,return,2.4169053000223357,,,,,,,,,,,,,,,,,719,24,female,left_right_width,2024-08-29_09h03.21.715,exp1,2023.1.0,60.07131667171488,
,,,,,,,,,,,,,,,,4,9.1,9.7,10.3,10.9,0,0.6000000000000001,0.20000000000000004,0.4,2.2,10,match,36.05,328,350,371,393,0,9,9,9,9,0,,,,,,,3,0,3,0,0,39,39,16,,,,,,,,,,,,num_4,0.9327913000015542,num_4,0.2,1.1,0.25,0.7,9.55138,26.74385,return,2.3763358000142034,,,,,,,,,,,,,,,,,719,24,female,left_right_width,2024-08-29_09h03.21.715,exp1,2023.1.0,60.07131667171488,
,,,,,,,,,,,,,,,,3,8.2,10,11.8,0,0,1.7999999999999998,1.4,0.4,4,10,match,36.05,296,361,425,0,0,9,9,9,0,0,,,,,,,3,0,3,0,0,40,40,51,,,,,,,,,,,,num_3,0.7849099999875762,num_3,0.5,0.9,0.35000000000000003,0.9,13.37193,34.38495,return,2.3512546000129078,,,,,,,,,,,,,,,,,719,24,female,left_right_width,2024-08-29_09h03.21.715,exp1,2023.1.0,60.07131667171488,
,,,,,,,,,,,,,,,,5,8.6,9.3,10,10.7,11.4,0.7,0.1499999999999999,0.55,3.3499999999999996,10,initial,36.05,310,335,361,386,411,9,9,9,9,9,,,,,,,3,0,3,0,0,41,41,40,,,,,,,,,,,,num_4,0.8512355999846477,num_4,0.25,0.5,0.35,0.7,13.37193,26.74385,return,1.8835911999922246,,,,,,,,,,,,,,,,,719,24,female,left_right_width,2024-08-29_09h03.21.715,exp1,2023.1.0,60.07131667171488,
,,,,,,,,,,,,,,,,5,8.65,9.325,10,10.675,11.35,0.675,0.125,0.55,3.25,10,match,36.05,312,336,361,385,409,9,9,9,9,9,,,,,,,3,0,3,0,0,42,42,29,,,,,,,,,,,,num_4,0.7975282999977935,num_4,0.4,0.6,0.45,0.6,17.19248,22.9233,return,1.0800777999975253,,,,,,,,,,,,,,,,,719,24,female,left_right_width,2024-08-29_09h03.21.715,exp1,2023.1.0,60.07131667171488,
,,,,,,,,,,,,,,,,4,8.35,9.45,10.55,11.65,0,1.1,0.7000000000000001,0.4,3.7,10,initial,36.05,301,341,380,420,0,9,9,9,9,0,,,,,,,3,0,3,0,0,43,43,21,,,,,,,,,,,,num_4,1.2111984000075608,num_4,0.3,0.3,0.3,0.7,11.46165,26.74385,return,2.4658498000062536,,,,,,,,,,,,,,,,,719,24,female,left_right_width,2024-08-29_09h03.21.715,exp1,2023.1.0,60.07131667171488,
,,,,,,,,,,,,,,,,5,8.6,9.3,10,10.7,11.4,0.7,0.29999999999999993,0.4,3.1999999999999997,10,initial,36.05,310,335,361,386,411,9,9,9,9,9,,,,,,,3,0,3,0,0,44,44,44,,,,,,,,,,,,num_4,0.8959898999892175,num_4,0.25,0.6,0.3,0.7,11.46165,26.74385,return,1.6738722999871243,,,,,,,,,,,,,,,,,719,24,female,left_right_width,2024-08-29_09h03.21.715,exp1,2023.1.0,60.07131667171488,
,,,,,,,,,,,,,,,,4,8.9,9.633333333333333,10.366666666666667,11.1,0,0.7333333333333334,0.4833333333333334,0.25,2.45,10,match,36.05,321,347,374,400,0,9,9,9,9,0,,,,,,,3,0,3,0,0,45,45,3,,,,,,,,,,,,num_4,0.8090714999998454,num_4,0.3,0.9,0.35,0.9,13.37193,34.38495,return,1.187424400006421,,,,,,,,,,,,,,,,,719,24,female,left_right_width,2024-08-29_09h03.21.715,exp1,2023.1.0,60.07131667171488,
,,,,,,,,,,,,,,,,5,8.35,9.175,10,10.825,11.65,0.8250000000000001,0.275,0.55,3.85,10,match,36.05,301,331,361,390,420,9,9,9,9,9,,,,,,,3,0,3,0,0,46,46,18,,,,,,,,,,,,num_4,0.9928752999985591,num_4,0.45,1.2,0.35000000000000003,1.2,13.37193,45.8466,return,1.3511684999975841,,,,,,,,,,,,,,,,,719,24,female,left_right_width,2024-08-29_09h03.21.715,exp1,2023.1.0,60.07131667171488,
,,,,,,,,,,,,,,,,3,7.800000000000001,10,12.2,0,0,2.1999999999999997,1.7999999999999998,0.4,4.8,10,match,36.05,281,361,440,0,0,9,9,9,0,0,,,,,,,3,0,3,0,0,47,47,39,,,,,,,,,,,,num_3,1.0236116999876685,num_3,0.2,0.7,0.3,0.7,11.46165,26.74385,return,1.3973761000088416,,,,,,,,,,,,,,,,,719,24,female,left_right_width,2024-08-29_09h03.21.715,exp1,2023.1.0,60.07131667171488,
,,,,,,,,,,,,,,,,5,8.2,9.1,10,10.9,11.8,0.9,0.5,0.4,4,10,initial,36.05,296,328,361,393,425,9,9,9,9,9,,,,,,,3,0,3,0,0,48,48,50,,,,,,,,,,,,num_4,0.8373657999909483,num_4,0.25,0.4,0.2,0.4,7.6411,15.2822,return,1.9014477000164334,,,,,,,,,,,,,,,,,719,24,female,left_right_width,2024-08-29_09h03.21.715,exp1,2023.1.0,60.07131667171488,
,,,,,,,,,,,,,,,,5,7.8,8.9,10,11.1,12.2,1.1,0.7000000000000001,0.4,4.800000000000001,10,initial,36.05,281,321,361,400,440,9,9,9,9,9,,,,,,,3,0,3,0,0,49,49,38,,,,,,,,,,,,num_4,1.3046953000011854,num_4,0.55,1.1,0.45,1.1,17.19248,42.02605,return,1.2294939999992494,,,,,,,,,,,,,,,,,719,24,female,left_right_width,2024-08-29_09h03.21.715,exp1,2023.1.0,60.07131667171488,
,,,,,,,,,,,,,,,,4,8.95,9.65,10.35,11.05,0,0.7,0.44999999999999996,0.25,2.3499999999999996,10,initial,36.05,323,348,373,398,0,9,9,9,9,0,,,,,,,3,0,3,0,0,50,50,24,,,,,,,,,,,,num_3,1.0777175000112038,num_3,0.25,0.9,0.3,0.9,11.46165,34.38495,return,1.0456664999946952,,,,,,,,,,,,,,,,,719,24,female,left_right_width,2024-08-29_09h03.21.715,exp1,2023.1.0,60.07131667171488,
,,,,,,,,,,,,,,,,4,8.65,9.55,10.45,11.35,0,0.9,0.5,0.4,3.1,10,initial,36.05,312,344,377,409,0,9,9,9,9,0,,,,,,,3,0,3,0,0,51,51,32,,,,,,,,,,,,num_4,0.9610659000172745,num_4,0.55,1.0,0.4,1.0,15.2822,38.2055,return,1.9109948000113945,,,,,,,,,,,,,,,,,719,24,female,left_right_width,2024-08-29_09h03.21.715,exp1,2023.1.0,60.07131667171488,
,,,,,,,,,,,,,,,,,,,,,,,,,,,,,,,,,,,,,,,,,,,,,3,0,3,0,,,,,,,,,,,,,,,,,,,,,,,,,,,,,2043.691509199998,2043.691509199998,2043.691509199998,,,,,,,,,,,,719,24,female,left_right_width,2024-08-29_09h03.21.715,exp1,2023.1.0,60.07131667171488,
,,,,,,,,,,,,,,,,3,8.525,10,11.475,0,0,1.475,1.225,0.25,3.2,10,match,36.05,307,361,414,0,0,9,9,9,0,0,,,,,,,4,0,4,0,0,0,0,45,,,,,,,,,,,,num_3,3.6363580000179354,num_3,0.55,0.9,0.25000000000000006,0.9,9.55138,34.38495,return,2.876754600001732,,,,,,,,,,,,,,,,,719,24,female,left_right_width,2024-08-29_09h03.21.715,exp1,2023.1.0,60.07131667171488,
,,,,,,,,,,,,,,,,5,7.8,8.9,10,11.1,12.2,1.1,0.8500000000000001,0.25,4.65,10,initial,36.05,281,321,361,400,440,9,9,9,9,9,,,,,,,4,0,4,0,0,1,1,36,,,,,,,,,,,,num_4,1.574662500002887,num_4,0.45,0.8,0.15000000000000008,0.8,5.73083,30.5644,return,2.177458799997112,,,,,,,,,,,,,,,,,719,24,female,left_right_width,2024-08-29_09h03.21.715,exp1,2023.1.0,60.07131667171488,
,,,,,,,,,,,,,,,,3,9.3,10,10.7,0,0,0.7,0.29999999999999993,0.4,1.8,10,initial,36.05,335,361,386,0,0,9,9,9,0,0,,,,,,,4,0,4,0,0,2,2,9,,,,,,,,,,,,num_3,1.73774029998458,num_3,0.4,1.1,0.30000000000000004,1.1,11.46165,42.02605,return,2.1855336999869905,,,,,,,,,,,,,,,,,719,24,female,left_right_width,2024-08-29_09h03.21.715,exp1,2023.1.0,60.07131667171488,
,,,,,,,,,,,,,,,,5,8.65,9.325,10,10.675,11.35,0.675,0.275,0.4,3.1,10,match,36.05,312,336,361,385,409,9,9,9,9,9,,,,,,,4,0,4,0,0,3,3,33,,,,,,,,,,,,num_4,1.2923758999968413,num_4,0.2,0.4,0.15000000000000002,0.7,5.73083,26.74385,return,1.399392400024226,,,,,,,,,,,,,,,,,719,24,female,left_right_width,2024-08-29_09h03.21.715,exp1,2023.1.0,60.07131667171488,
,,,,,,,,,,,,,,,,5,8.65,9.325,10,10.675,11.35,0.675,0.125,0.55,3.25,10,match,36.05,312,336,361,385,409,9,9,9,9,9,,,,,,,4,0,4,0,0,4,4,29,,,,,,,,,,,,num_4,1.0474133999960031,num_4,0.4,1.0,0.25000000000000006,1.0,9.55138,38.2055,return,1.0161938999954145,,,,,,,,,,,,,,,,,719,24,female,left_right_width,2024-08-29_09h03.21.715,exp1,2023.1.0,60.07131667171488,
,,,,,,,,,,,,,,,,5,8.65,9.325,10,10.675,11.35,0.675,0.42500000000000004,0.25,2.95,10,match,36.05,312,336,361,385,409,9,9,9,9,9,,,,,,,4,0,4,0,0,5,5,31,,,,,,,,,,,,num_4,0.8811845000018366,num_4,0.55,1.3,0.30000000000000004,1.0,11.46165,38.2055,return,1.901203000015812,,,,,,,,,,,,,,,,,719,24,female,left_right_width,2024-08-29_09h03.21.715,exp1,2023.1.0,60.07131667171488,
,,,,,,,,,,,,,,,,4,8.65,9.55,10.45,11.35,0,0.9,0.5,0.4,3.1,10,initial,36.05,312,344,377,409,0,9,9,9,9,0,,,,,,,4,0,4,0,0,6,6,32,,,,,,,,,,,,num_4,0.8584259000199381,num_4,0.45,0.5,0.25000000000000006,1.0,9.55138,38.2055,return,2.5737185000034515,,,,,,,,,,,,,,,,,719,24,female,left_right_width,2024-08-29_09h03.21.715,exp1,2023.1.0,60.07131667171488,
,,,,,,,,,,,,,,,,3,9.1,10,10.9,0,0,0.9,0.35,0.55,2.35,10,initial,36.05,328,361,393,0,0,9,9,9,0,0,,,,,,,4,0,4,0,0,7,7,11,,,,,,,,,,,,num_2,1.1319290000246838,num_2,0.35,1.6,0.39999999999999997,1.1,15.2822,42.02605,return,3.385856100008823,,,,,,,,,,,,,,,,,719,24,female,left_right_width,2024-08-29_09h03.21.715,exp1,2023.1.0,60.07131667171488,
,,,,,,,,,,,,,,,,3,7.800000000000001,10,12.2,0,0,2.1999999999999997,1.7999999999999998,0.4,4.8,10,match,36.05,281,361,440,0,0,9,9,9,0,0,,,,,,,4,0,4,0,0,8,8,39,,,,,,,,,,,,num_3,0.9426958000112791,num_3,0.25,0.4,0.39999999999999997,0.7,15.2822,26.74385,return,2.2282712000014726,,,,,,,,,,,,,,,,,719,24,female,left_right_width,2024-08-29_09h03.21.715,exp1,2023.1.0,60.07131667171488,
,,,,,,,,,,,,,,,,3,8.9,10,11.1,0,0,1.1,0.8500000000000001,0.25,2.45,10,initial,36.05,321,361,400,0,0,9,9,9,0,0,,,,,,,4,0,4,0,0,9,9,2,,,,,,,,,,,,num_3,0.9187072000058834,num_3,0.25,0.9,0.3,1.0,11.46165,38.2055,return,1.482687999989139,,,,,,,,,,,,,,,,,719,24,female,left_right_width,2024-08-29_09h03.21.715,exp1,2023.1.0,60.07131667171488,
,,,,,,,,,,,,,,,,3,9.3,10,10.7,0,0,0.7,0.1499999999999999,0.55,1.95,10,initial,36.05,335,361,386,0,0,9,9,9,0,0,,,,,,,4,0,4,0,0,10,10,6,,,,,,,,,,,,num_2,0.873427399987122,num_2,0.2,1.0,0.44999999999999996,0.8,17.19248,30.5644,return,3.313839200010989,,,,,,,,,,,,,,,,,719,24,female,left_right_width,2024-08-29_09h03.21.715,exp1,2023.1.0,60.07131667171488,
,,,,,,,,,,,,,,,,5,8.35,9.175,10,10.825,11.65,0.8250000000000001,0.275,0.55,3.85,10,match,36.05,301,331,361,390,420,9,9,9,9,9,,,,,,,4,0,4,0,0,11,11,18,,,,,,,,,,,,num_4,0.8258715000119992,num_4,0.35,0.7,0.49999999999999994,1.0,19.10275,38.2055,return,3.970198499999242,,,,,,,,,,,,,,,,,719,24,female,left_right_width,2024-08-29_09h03.21.715,exp1,2023.1.0,60.07131667171488,
,,,,,,,,,,,,,,,,5,8.95,9.475,10,10.525,11.05,0.525,0.275,0.25,2.35,10,match,36.05,323,342,361,379,398,9,9,9,9,9,,,,,,,4,0,4,0,0,12,12,25,,,,,,,,,,,,num_4,0.9659761000075378,num_4,0.45,1.0,0.30000000000000004,0.7,11.46165,26.74385,return,2.395562299992889,,,,,,,,,,,,,,,,,719,24,female,left_right_width,2024-08-29_09h03.21.715,exp1,2023.1.0,60.07131667171488,
,,,,,,,,,,,,,,,,3,9.1,10,10.9,0,0,0.9,0.65,0.25,2.05,10,initial,36.05,328,361,393,0,0,9,9,9,0,0,,,,,,,4,0,4,0,0,13,13,13,,,,,,,,,,,,num_2,1.8131338999955915,num_2,0.5,0.6,0.6500000000000001,0.9,24.83358,34.38495,return,3.0301956000039354,,,,,,,,,,,,,,,,,719,24,female,left_right_width,2024-08-29_09h03.21.715,exp1,2023.1.0,60.07131667171488,
,,,,,,,,,,,,,,,,3,8.6,10,11.4,0,0,1.4,1.15,0.25,3.05,10,match,36.05,310,361,411,0,0,9,9,9,0,0,,,,,,,4,0,4,0,0,14,14,43,,,,,,,,,,,,num_2,3.508230300009018,num_2,0.55,0.6,0.35000000000000003,0.9,13.37193,34.38495,return,3.9054080999922007,,,,,,,,,,,,,,,,,719,24,female,left_right_width,2024-08-29_09h03.21.715,exp1,2023.1.0,60.07131667171488,
,,,,,,,,,,,,,,,,3,8.2,10,11.8,0,0,1.8,1.55,0.25,3.85,10,match,36.05,296,361,425,0,0,9,9,9,0,0,,,,,,,4,0,4,0,0,15,15,49,,,,,,,,,,,,num_3,1.1596821999992244,num_3,0.45,0.8,0.30000000000000004,0.8,11.46165,30.5644,return,1.3197049000009429,,,,,,,,,,,,,,,,,719,24,female,left_right_width,2024-08-29_09h03.21.715,exp1,2023.1.0,60.07131667171488,
,,,,,,,,,,,,,,,,4,8.35,9.45,10.55,11.65,0,1.1,0.8500000000000001,0.25,3.5500000000000003,10,initial,36.05,301,341,380,420,0,9,9,9,9,0,,,,,,,4,0,4,0,0,16,16,19,,,,,,,,,,,,num_3,1.0659761000133585,num_3,0.35,0.4,0.39999999999999997,0.75,15.2822,28.65413,return,3.4860249000194017,,,,,,,,,,,,,,,,,719,24,female,left_right_width,2024-08-29_09h03.21.715,exp1,2023.1.0,60.07131667171488,
,,,,,,,,,,,,,,,,3,8.6,10,11.4,0,0,1.4,0.85,0.55,3.35,10,match,36.05,310,361,411,0,0,9,9,9,0,0,,,,,,,4,0,4,0,0,17,17,41,,,,,,,,,,,,num_3,0.8228386999981012,num_3,0.25,0.4,0.49999999999999994,0.6,19.10275,22.9233,return,2.4310053000226617,,,,,,,,,,,,,,,,,719,24,female,left_right_width,2024-08-29_09h03.21.715,exp1,2023.1.0,60.07131667171488,
,,,,,,,,,,,,,,,,4,8.95,9.65,10.35,11.05,0,0.7,0.44999999999999996,0.25,2.3499999999999996,10,initial,36.05,323,348,373,398,0,9,9,9,9,0,,,,,,,4,0,4,0,0,18,18,24,,,,,,,,,,,,num_3,0.8707278000074439,num_3,0.3,0.8,0.25,0.8,9.55138,30.5644,return,1.2026266000175383,,,,,,,,,,,,,,,,,719,24,female,left_right_width,2024-08-29_09h03.21.715,exp1,2023.1.0,60.07131667171488,
,,,,,,,,,,,,,,,,4,8.35,9.45,10.55,11.65,0,1.1,0.55,0.55,3.8500000000000005,10,initial,36.05,301,341,380,420,0,9,9,9,9,0,,,,,,,4,0,4,0,0,19,19,17,,,,,,,,,,,,num_4,0.8699083999963477,num_4,0.25,0.7,0.39999999999999997,0.7,15.2822,26.74385,return,1.3371883000072557,,,,,,,,,,,,,,,,,719,24,female,left_right_width,2024-08-29_09h03.21.715,exp1,2023.1.0,60.07131667171488,
,,,,,,,,,,,,,,,,3,7.8,10,12.2,0,0,2.2,1.65,0.55,4.95,10,match,36.05,281,361,440,0,0,9,9,9,0,0,,,,,,,4,0,4,0,0,20,20,35,,,,,,,,,,,,num_4,0.9474310000077821,num_4,0.55,1.1,0.4,1.6,15.2822,61.12881,return,2.6525082000007387,,,,,,,,,,,,,,,,,719,24,female,left_right_width,2024-08-29_09h03.21.715,exp1,2023.1.0,60.07131667171488,
,,,,,,,,,,,,,,,,4,8.95,9.65,10.35,11.05,0,0.7,0.29999999999999993,0.4,2.5,10,initial,36.05,323,348,373,398,0,9,9,9,9,0,,,,,,,4,0,4,0,0,21,21,26,,,,,,,,,,,,num_3,0.8352392999804579,num_3,0.45,1,0.6000000000000001,0.95,22.9233,36.29523,return,1.6966421999968588,,,,,,,,,,,,,,,,,719,24,female,left_right_width,2024-08-29_09h03.21.715,exp1,2023.1.0,60.07131667171488,
,,,,,,,,,,,,,,,,4,9.1,9.7,10.3,10.9,0,0.6000000000000001,0.20000000000000004,0.4,2.2,10,match,36.05,328,350,371,393,0,9,9,9,9,0,,,,,,,4,0,4,0,0,22,22,16,,,,,,,,,,,,num_4,0.997486200009007,num_4,0.55,1.3,0.4,0.9,15.2822,34.38495,return,1.9915056999889202,,,,,,,,,,,,,,,,,719,24,female,left_right_width,2024-08-29_09h03.21.715,exp1,2023.1.0,60.07131667171488,
,,,,,,,,,,,,,,,,5,7.8,8.9,10,11.1,12.2,1.1,0.55,0.55,4.95,10,initial,36.05,281,321,361,400,440,9,9,9,9,9,,,,,,,4,0,4,0,0,23,23,34,,,,,,,,,,,,num_4,0.804102399997646,num_4,0.2,1.2,0.39999999999999997,1.2,15.2822,45.8466,return,1.1952884000202175,,,,,,,,,,,,,,,,,719,24,female,left_right_width,2024-08-29_09h03.21.715,exp1,2023.1.0,60.07131667171488,
,,,,,,,,,,,,,,,,5,8.275,9.1375,10,10.8625,11.725,0.8625,0.6125,0.25,3.7,10,match,36.05,298,329,361,392,423,9,9,9,9,9,,,,,,,4,0,4,0,0,24,24,22,,,,,,,,,,,,num_4,1.1825577999989036,num_4,0.5,1.1,0.20000000000000007,1.1,7.6411,42.02605,return,2.3634679000242613,,,,,,,,,,,,,,,,,719,24,female,left_right_width,2024-08-29_09h03.21.715,exp1,2023.1.0,60.07131667171488,
,,,,,,,,,,,,,,,,5,8.95,9.475,10,10.525,11.05,0.525,0.125,0.4,2.5,10,match,36.05,323,342,361,379,398,9,9,9,9,9,,,,,,,4,0,4,0,0,25,25,27,,,,,,,,,,,,num_4,0.8678543999849353,num_4,0.5,1.3,0.30000000000000004,0.7,11.46165,26.74385,return,2.2508394999895245,,,,,,,,,,,,,,,,,719,24,female,left_right_width,2024-08-29_09h03.21.715,exp1,2023.1.0,60.07131667171488,
,,,,,,,,,,,,,,,,5,8.6,9.3,10,10.7,11.4,0.7,0.29999999999999993,0.4,3.1999999999999997,10,initial,36.05,310,335,361,386,411,9,9,9,9,9,,,,,,,4,0,4,0,0,26,26,44,,,,,,,,,,,,num_4,0.8470300000044517,num_4,0.35,0.4,0.39999999999999997,0.8,15.2822,30.5644,return,1.5304613999905996,,,,,,,,,,,,,,,,,719,24,female,left_right_width,2024-08-29_09h03.21.715,exp1,2023.1.0,60.07131667171488,
,,,,,,,,,,,,,,,,5,8.6,9.3,10,10.7,11.4,0.7,0.44999999999999996,0.25,3.05,10,initial,36.05,310,335,361,386,411,9,9,9,9,9,,,,,,,4,0,4,0,0,27,27,42,,,,,,,,,,,,num_4,0.9727988999802619,num_4,0.4,0.8,0.35000000000000003,1.0,13.37193,38.2055,return,1.9048712000076193,,,,,,,,,,,,,,,,,719,24,female,left_right_width,2024-08-29_09h03.21.715,exp1,2023.1.0,60.07131667171488,
,,,,,,,,,,,,,,,,5,8.35,9.175,10,10.825,11.65,0.825,0.575,0.25,3.55,10,match,36.05,301,331,361,390,420,9,9,9,9,9,,,,,,,4,0,4,0,0,28,28,20,,,,,,,,,,,,num_4,0.7506305999995675,num_4,0.35,1.3,0.25,0.9,9.55138,34.38495,return,2.25289370000246,,,,,,,,,,,,,,,,,719,24,female,left_right_width,2024-08-29_09h03.21.715,exp1,2023.1.0,60.07131667171488,
,,,,,,,,,,,,,,,,5,7.8,8.9,10,11.1,12.2,1.1,0.7000000000000001,0.4,4.800000000000001,10,initial,36.05,281,321,361,400,440,9,9,9,9,9,,,,,,,4,0,4,0,0,29,29,38,,,,,,,,,,,,num_4,0.8863270999863744,num_4,0.55,1.3,0.35000000000000003,1.0,13.37193,38.2055,return,2.8149667000107,,,,,,,,,,,,,,,,,719,24,female,left_right_width,2024-08-29_09h03.21.715,exp1,2023.1.0,60.07131667171488,
,,,,,,,,,,,,,,,,4,9.3,9.766666666666667,10.233333333333333,10.7,0,0.4666666666666667,0.21666666666666665,0.25,1.65,10,match,36.05,335,352,369,386,0,9,9,9,9,0,,,,,,,4,0,4,0,0,30,30,8,,,,,,,,,,,,num_3,1.2675921999907587,num_3,0.35,1.3,0.25,1.05,9.55138,40.11578,return,1.5996403000026476,,,,,,,,,,,,,,,,,719,24,female,left_right_width,2024-08-29_09h03.21.715,exp1,2023.1.0,60.07131667171488,
,,,,,,,,,,,,,,,,4,8.65,9.55,10.45,11.35,0,0.9,0.65,0.25,2.95,10,initial,36.05,312,344,377,409,0,9,9,9,9,0,,,,,,,4,0,4,0,0,31,31,30,,,,,,,,,,,,num_4,1.2009789999865461,num_4,0.2,1.0,0.2,1.0,7.6411,38.2055,return,0.7995845999976154,,,,,,,,,,,,,,,,,719,24,female,left_right_width,2024-08-29_09h03.21.715,exp1,2023.1.0,60.07131667171488,
,,,,,,,,,,,,,,,,5,8.6,9.3,10,10.7,11.4,0.7,0.1499999999999999,0.55,3.3499999999999996,10,initial,36.05,310,335,361,386,411,9,9,9,9,9,,,,,,,4,0,4,0,0,32,32,40,,,,,,,,,,,,num_4,0.8249412000295706,num_4,0.3,0.4,0.35,0.7,13.37193,26.74385,return,1.6321823000034783,,,,,,,,,,,,,,,,,719,24,female,left_right_width,2024-08-29_09h03.21.715,exp1,2023.1.0,60.07131667171488,
,,,,,,,,,,,,,,,,4,8.35,9.45,10.55,11.65,0,1.1,0.7000000000000001,0.4,3.7,10,initial,36.05,301,341,380,420,0,9,9,9,9,0,,,,,,,4,0,4,0,0,33,33,21,,,,,,,,,,,,num_3,0.9794073000084609,num_3,0.45,0.5,0.45,0.8,17.19248,30.5644,return,2.202405500021996,,,,,,,,,,,,,,,,,719,24,female,left_right_width,2024-08-29_09h03.21.715,exp1,2023.1.0,60.07131667171488,
,,,,,,,,,,,,,,,,4,8.65,9.55,10.45,11.35,0,0.9,0.35,0.55,3.25,10,initial,36.05,312,344,377,409,0,9,9,9,9,0,,,,,,,4,0,4,0,0,34,34,28,,,,,,,,,,,,num_3,1.0240079000068363,num_3,0.35,0.4,0.49999999999999994,0.75,19.10275,28.65413,return,3.2309013000049163,,,,,,,,,,,,,,,,,719,24,female,left_right_width,2024-08-29_09h03.21.715,exp1,2023.1.0,60.07131667171488,
,,,,,,,,,,,,,,,,4,8.9,9.633333333333333,10.366666666666667,11.1,0,0.7333333333333334,0.4833333333333334,0.25,2.45,10,match,36.05,321,347,374,400,0,9,9,9,9,0,,,,,,,4,0,4,0,0,35,35,3,,,,,,,,,,,,num_4,1.0642961999983527,num_4,0.4,1.3,0.20000000000000007,0.8,7.6411,30.5644,return,3.319187299988698,,,,,,,,,,,,,,,,,719,24,female,left_right_width,2024-08-29_09h03.21.715,exp1,2023.1.0,60.07131667171488,
,,,,,,,,,,,,,,,,5,8.2,9.1,10,10.9,11.8,0.9,0.5,0.4,4,10,initial,36.05,296,328,361,393,425,9,9,9,9,9,,,,,,,4,0,4,0,0,36,36,50,,,,,,,,,,,,num_4,0.9809058000100777,num_4,0.35,0.5,0.44999999999999996,0.9,17.19248,34.38495,return,2.924040900019463,,,,,,,,,,,,,,,,,719,24,female,left_right_width,2024-08-29_09h03.21.715,exp1,2023.1.0,60.07131667171488,
,,,,,,,,,,,,,,,,4,8.95,9.65,10.35,11.05,0,0.7,0.1499999999999999,0.55,2.65,10,initial,36.05,323,348,373,398,0,9,9,9,9,0,,,,,,,4,0,4,0,0,37,37,23,,,,,,,,,,,,num_3,1.0599607000185642,num_3,0.4,0.7,0.6000000000000001,0.85,22.9233,32.47468,return,3.043836900003953,,,,,,,,,,,,,,,,,719,24,female,left_right_width,2024-08-29_09h03.21.715,exp1,2023.1.0,60.07131667171488,
,,,,,,,,,,,,,,,,4,9.1,9.7,10.3,10.9,0,0.5999999999999999,0.3499999999999999,0.25,2.05,10,match,36.05,328,350,371,393,0,9,9,9,9,0,,,,,,,4,0,4,0,0,38,38,14,,,,,,,,,,,,num_3,0.7992264999775216,num_3,0.35,1.1,0.35,0.95,13.37193,36.29523,return,2.489047999988543,,,,,,,,,,,,,,,,,719,24,female,left_right_width,2024-08-29_09h03.21.715,exp1,2023.1.0,60.07131667171488,
,,,,,,,,,,,,,,,,5,8.2,9.1,10,10.9,11.8,0.9,0.65,0.25,3.85,10,initial,36.05,296,328,361,393,425,9,9,9,9,9,,,,,,,4,0,4,0,0,39,39,48,,,,,,,,,,,,num_4,1.2843232000013813,num_4,0.55,1.0,0.30000000000000004,1.1,11.46165,42.02605,return,3.3191202000016347,,,,,,,,,,,,,,,,,719,24,female,left_right_width,2024-08-29_09h03.21.715,exp1,2023.1.0,60.07131667171488,
,,,,,,,,,,,,,,,,4,8.825,9.608333333333333,10.391666666666667,11.175,0,0.7833333333333333,0.5333333333333333,0.25,2.6,10,match,36.05,318,346,375,403,0,9,9,9,9,0,,,,,,,4,0,4,0,0,40,40,5,,,,,,,,,,,,num_4,0.8684975999931339,num_4,0.45,0.9,0.25000000000000006,0.9,9.55138,34.38495,return,1.1789086000062525,,,,,,,,,,,,,,,,,719,24,female,left_right_width,2024-08-29_09h03.21.715,exp1,2023.1.0,60.07131667171488,
,,,,,,,,,,,,,,,,3,8.2,10,11.8,0,0,1.7999999999999998,1.4,0.4,4,10,match,36.05,296,361,425,0,0,9,9,9,0,0,,,,,,,4,0,4,0,0,41,41,51,,,,,,,,,,,,num_3,1.10791039999458,num_3,0.45,1,0.30000000000000004,1,11.46165,38.2055,return,1.9542080000101123,,,,,,,,,,,,,,,,,719,24,female,left_right_width,2024-08-29_09h03.21.715,exp1,2023.1.0,60.07131667171488,
,,,,,,,,,,,,,,,,3,8.9,10,11.1,0,0,1.1,0.55,0.55,2.75,10,initial,36.05,321,361,400,0,0,9,9,9,0,0,,,,,,,4,0,4,0,0,42,42,0,,,,,,,,,,,,num_3,0.7706763000169303,num_3,0.25,1,0.49999999999999994,1,19.10275,38.2055,return,1.7930900000210386,,,,,,,,,,,,,,,,,719,24,female,left_right_width,2024-08-29_09h03.21.715,exp1,2023.1.0,60.07131667171488,
,,,,,,,,,,,,,,,,4,9.1,9.7,10.3,10.9,0,0.6,0.04999999999999997,0.55,2.35,10,match,36.05,328,350,371,393,0,9,9,9,9,0,,,,,,,4,0,4,0,0,43,43,12,,,,,,,,,,,,num_3,0.9018729999952484,num_3,0.4,0.6,0.55,0.65,21.01303,24.83358,return,2.844648500002222,,,,,,,,,,,,,,,,,719,24,female,left_right_width,2024-08-29_09h03.21.715,exp1,2023.1.0,60.07131667171488,
,,,,,,,,,,,,,,,,3,9.3,10,10.7,0,0,0.7,0.44999999999999996,0.25,1.65,10,initial,36.05,335,361,386,0,0,9,9,9,0,0,,,,,,,4,0,4,0,0,44,44,7,,,,,,,,,,,,num_3,0.8321125000074971,num_3,0.55,0.8,0.20000000000000007,0.65,7.6411,24.83358,return,2.8591110999986995,,,,,,,,,,,,,,,,,719,24,female,left_right_width,2024-08-29_09h03.21.715,exp1,2023.1.0,60.07131667171488,
,,,,,,,,,,,,,,,,3,9.1,10,10.9,0,0,0.9,0.5,0.4,2.2,10,initial,36.05,328,361,393,0,0,9,9,9,0,0,,,,,,,4,0,4,0,0,45,45,15,,,,,,,,,,,,num_3,0.9690762000100221,num_3,0.2,1.3,0.49999999999999994,1.1,19.10275,42.02605,return,2.7855289000144694,,,,,,,,,,,,,,,,,719,24,female,left_right_width,2024-08-29_09h03.21.715,exp1,2023.1.0,60.07131667171488,
,,,,,,,,,,,,,,,,3,8.2,10,11.8,0,0,1.8,1.25,0.55,4.15,10,match,36.05,296,361,425,0,0,9,9,9,0,0,,,,,,,4,0,4,0,0,46,46,47,,,,,,,,,,,,num_3,1.0915915999794379,num_3,0.25,0.6,0.25,0.85,9.55138,32.47468,return,3.0139868000114802,,,,,,,,,,,,,,,,,719,24,female,left_right_width,2024-08-29_09h03.21.715,exp1,2023.1.0,60.07131667171488,
,,,,,,,,,,,,,,,,4,8.9,9.633333333333333,10.366666666666667,11.1,0,0.7333333333333333,0.18333333333333326,0.55,2.75,10,match,36.05,321,347,374,400,0,9,9,9,9,0,,,,,,,4,0,4,0,0,47,47,1,,,,,,,,,,,,num_3,0.887555000022985,num_3,0.5,0.9,0.55,1.05,21.01303,40.11578,return,3.820839599997271,,,,,,,,,,,,,,,,,719,24,female,left_right_width,2024-08-29_09h03.21.715,exp1,2023.1.0,60.07131667171488,
,,,,,,,,,,,,,,,,3,8.9,10,11.1,0,0,1.1,0.7000000000000001,0.4,2.6000000000000005,10,initial,36.05,321,361,400,0,0,9,9,9,0,0,,,,,,,4,0,4,0,0,48,48,4,,,,,,,,,,,,num_3,0.8746783999959007,num_3,0.5,1.2,0.35000000000000003,1.2,13.37193,45.8466,return,1.0077726999879815,,,,,,,,,,,,,,,,,719,24,female,left_right_width,2024-08-29_09h03.21.715,exp1,2023.1.0,60.07131667171488,
,,,,,,,,,,,,,,,,3,7.8,10,12.2,0,0,2.2,1.9500000000000002,0.25,4.65,10,match,36.05,281,361,440,0,0,9,9,9,0,0,,,,,,,4,0,4,0,0,49,49,37,,,,,,,,,,,,num_4,0.9619079999974929,num_4,0.3,1.3,0.2,1.3,7.6411,49.66716,return,1.2262630000186618,,,,,,,,,,,,,,,,,719,24,female,left_right_width,2024-08-29_09h03.21.715,exp1,2023.1.0,60.07131667171488,
,,,,,,,,,,,,,,,,4,9.3,9.766666666666667,10.233333333333333,10.7,0,0.4666666666666667,0.06666666666666665,0.4,1.8,10,match,36.05,335,352,369,386,0,9,9,9,9,0,,,,,,,4,0,4,0,0,50,50,10,,,,,,,,,,,,num_3,0.8267613000061829,num_3,0.4,1.1,0.35000000000000003,0.9,13.37193,34.38495,return,2.3085820999986026,,,,,,,,,,,,,,,,,719,24,female,left_right_width,2024-08-29_09h03.21.715,exp1,2023.1.0,60.07131667171488,
,,,,,,,,,,,,,,,,5,8.2,9.1,10,10.9,11.8,0.9,0.35,0.55,4.15,10,initial,36.05,296,328,361,393,425,9,9,9,9,9,,,,,,,4,0,4,0,0,51,51,46,,,,,,,,,,,,num_4,0.8361670000012964,num_4,0.45,0.9,0.6000000000000001,0.9,22.9233,34.38495,return,1.3675704000052065,,,,,,,,,,,,,,,,,719,24,female,left_right_width,2024-08-29_09h03.21.715,exp1,2023.1.0,60.07131667171488,
,,,,,,,,,,,,,,,,,,,,,,,,,,,,,,,,,,,,,,,,,,,,,4,0,4,0,,,,,,,,,,,,,,,,,,,,,,,,,,,,,2325.341407299973,2325.341407299973,2325.341407299973,,,,,,,,,,,,719,24,female,left_right_width,2024-08-29_09h03.21.715,exp1,2023.1.0,60.07131667171488,
,,,,,,,,,,,,,,,,3,8.2,10,11.8,0,0,1.8,1.55,0.25,3.85,10,match,36.05,296,361,425,0,0,9,9,9,0,0,,,,,,,5,0,5,0,0,0,0,49,,,,,,,,,,,,num_3,0.8454722999886144,num_3,0.35,1,0.2,1.25,7.6411,47.75688,return,2.0042335000180174,,,,,,,,,,,,,,,,,719,24,female,left_right_width,2024-08-29_09h03.21.715,exp1,2023.1.0,60.07131667171488,
,,,,,,,,,,,,,,,,4,8.9,9.633333333333333,10.366666666666667,11.1,0,0.7333333333333334,0.4833333333333334,0.25,2.45,10,match,36.05,321,347,374,400,0,9,9,9,9,0,,,,,,,5,0,5,0,0,1,1,3,,,,,,,,,,,,num_3,1.0729687999992166,num_3,0.45,0.5,0.20000000000000007,0.8,7.6411,30.5644,return,2.4314612000016496,,,,,,,,,,,,,,,,,719,24,female,left_right_width,2024-08-29_09h03.21.715,exp1,2023.1.0,60.07131667171488,
,,,,,,,,,,,,,,,,3,9.3,10,10.7,0,0,0.7,0.1499999999999999,0.55,1.95,10,initial,36.05,335,361,386,0,0,9,9,9,0,0,,,,,,,5,0,5,0,0,2,2,6,,,,,,,,,,,,num_3,0.9737722999998368,num_3,0.55,1.1,0.5,1.0,19.10275,38.2055,return,2.5119523000030313,,,,,,,,,,,,,,,,,719,24,female,left_right_width,2024-08-29_09h03.21.715,exp1,2023.1.0,60.07131667171488,
,,,,,,,,,,,,,,,,3,9.1,10,10.9,0,0,0.9,0.35,0.55,2.35,10,initial,36.05,328,361,393,0,0,9,9,9,0,0,,,,,,,5,0,5,0,0,3,3,11,,,,,,,,,,,,num_3,0.8660154000099283,num_3,0.45,1.1,0.4,0.95,15.2822,36.29523,return,2.0249640000110958,,,,,,,,,,,,,,,,,719,24,female,left_right_width,2024-08-29_09h03.21.715,exp1,2023.1.0,60.07131667171488,
,,,,,,,,,,,,,,,,5,8.6,9.3,10,10.7,11.4,0.7,0.44999999999999996,0.25,3.05,10,initial,36.05,310,335,361,386,411,9,9,9,9,9,,,,,,,5,0,5,0,0,4,4,42,,,,,,,,,,,,num_4,0.8467400000081398,num_4,0.2,0.4,0.3,0.8,11.46165,30.5644,return,1.5962662000092678,,,,,,,,,,,,,,,,,719,24,female,left_right_width,2024-08-29_09h03.21.715,exp1,2023.1.0,60.07131667171488,
,,,,,,,,,,,,,,,,3,9.1,10,10.9,0,0,0.9,0.65,0.25,2.05,10,initial,36.05,328,361,393,0,0,9,9,9,0,0,,,,,,,5,0,5,0,0,5,5,13,,,,,,,,,,,,num_3,0.8306931999977678,num_3,0.3,0.5,0.2,0.8,7.6411,30.5644,return,2.6935201000014786,,,,,,,,,,,,,,,,,719,24,female,left_right_width,2024-08-29_09h03.21.715,exp1,2023.1.0,60.07131667171488,
