amount_p,posx1_p,posx2_p,posx3_p,posx4_p,posx5_p,center_to_center_p,edge_to_edge_p,w_p,stim_lengt_p,eccentricity_p,line1_p,line2_p,line3_p,line4_p,line5_p,amount,posx1,posx2,posx3,posx4,posx5,center_to_center,edge_to_edge,w,stim_length,eccentricity,trial_type,deg_to_pix_index,posx1_in_pix,posx2_in_pix,posx3_in_pix,posx4_in_pix,posx5_in_pix,line1,line2,line3,line4,line5,posx,setsize_cobdi,trials.thisRepN,trials.thisTrialN,trials.thisN,trials.thisIndex,blocks.thisRepN,blocks.thisTrialN,blocks.thisN,blocks.thisIndex,loop.thisRepN,loop.thisTrialN,loop.thisN,loop.thisIndex,first.thisRepN,first.thisTrialN,first.thisN,first.thisIndex,second.thisRepN,second.thisTrialN,second.thisN,second.thisIndex,key_resp_3.started,key_resp_3.keys,key_resp_3.rt,key_resp.keys,key_resp.rt,response,starting_width_deg,starting_space_deg,response_width_degree,response_spacing_degree,response_width_pixel,response_spacing_pixel,next_5.keys,next_5.rt,key_resp_4.keys,key_resp_4.rt,text_3.started,text_4.started,key_resp_2.started,text_2.started,key_resp_2.keys,key_resp_2.rt,adjusting.started,next.keys,next.rt,text_control2.started,key_resp.started,key_resp.corr,text_bye.started,text_bye.stopped,participant,age,gender,resp_group,date,expName,psychopyVersion,frameRate
,,,,,,,,,,,,,,,,,,,,,,,,,,,,,,,,,,,,,,,,,,,,,,,,,,,,,,,,,,,,,316.5107522,c,129.003814,,,,,,,,,,,,,,,,,,,,,,,,,,,,720,25,male,up_down_width,2024-08-29_10h34.03.935,exp1,2023.1.0,60.1592777
5,9,9.5,10,10.5,11,0.5,0.1,0.4,2.4,10,9,9,9,9,9,,,,,,,,,,,,,,,,,,,,,,,,,,0,0,0,8,,,,,,,,,,,,,,,,,,,,num_3,3.7161642,num_3,0.35,1.2,0.35,0.6,13.37193,22.9233,return,11.6418195,,,,,,,,,,,,,,,,,720,25,male,up_down_width,2024-08-29_10h34.03.935,exp1,2023.1.0,60.1592777
3,8.2,10,11.8,0,0,1.8,1.4,0.4,4,10,9,9,9,0,0,,,,,,,,,,,,,,,,,,,,,,,,,,0,1,1,2,,,,,,,,,,,,,,,,,,,,num_3,2.6613964,num_3,0.4,1.2,0.2,1.3,7.6411,49.66716,return,6.0263169,,,,,,,,,,,,,,,,,720,25,male,up_down_width,2024-08-29_10h34.03.935,exp1,2023.1.0,60.1592777
3,9.5,10,10.5,0,0,0.5,0.4,0.1,1.1,10,9,9,9,0,0,,,,,,,,,,,,,,,,,,,,,,,,,,0,2,2,0,,,,,,,,,,,,,,,,,,,,num_3,2.1605925,num_3,0.35,1.1,0.1,0.95,3.82055,36.29523,return,8.8720808,,,,,,,,,,,,,,,,,720,25,male,up_down_width,2024-08-29_10h34.03.935,exp1,2023.1.0,60.1592777
5,9.25,9.625,10,10.375,10.75,0.375,0.125,0.25,1.75,10,9,9,9,9,9,,,,,,,,,,,,,,,,,,,,,,,,,,0,3,3,6,,,,,,,,,,,,,,,,,,,,num_3,1.5806497,num_3,0.55,0.8,0.2,0.5,7.6411,19.10275,return,8.2768619,,,,,,,,,,,,,,,,,720,25,male,up_down_width,2024-08-29_10h34.03.935,exp1,2023.1.0,60.1592777
3,9,10,11,0,0,1,0.9,0.1,2.1,10,9,9,9,0,0,,,,,,,,,,,,,,,,,,,,,,,,,,0,4,4,1,,,,,,,,,,,,,,,,,,,,num_3,1.650697,num_3,0.3,1.2,0.15,0.9,5.73083,34.38495,return,11.3411575,,,,,,,,,,,,,,,,,720,25,male,up_down_width,2024-08-29_10h34.03.935,exp1,2023.1.0,60.1592777
4,9.5,9.833333333,10.16666667,10.5,0,0.333333333,0.233333333,0.1,1.1,10,9,9,9,9,0,,,,,,,,,,,,,,,,,,,,,,,,,,0,5,5,3,,,,,,,,,,,,,,,,,,,,num_3,2.9576334,num_3,0.25,0.4,0.15,0.75,5.73083,28.65413,return,11.5198231,,,,,,,,,,,,,,,,,720,25,male,up_down_width,2024-08-29_10h34.03.935,exp1,2023.1.0,60.1592777
4,9.25,9.75,10.25,10.75,0,0.5,0.25,0.25,1.75,10,9,9,9,9,0,,,,,,,,,,,,,,,,,,,,,,,,,,0,6,6,4,,,,,,,,,,,,,,,,,,,,num_3,1.9580302,num_3,0.55,0.8,0.2,0.5,7.6411,19.10275,return,6.4824054,,,,,,,,,,,,,,,,,720,25,male,up_down_width,2024-08-29_10h34.03.935,exp1,2023.1.0,60.1592777
5,8.6,9.3,10,10.7,11.4,0.7,0.3,0.4,3.2,10,9,9,9,9,9,,,,,,,,,,,,,,,,,,,,,,,,,,0,7,7,7,,,,,,,,,,,,,,,,,,,,num_4,1.8880988,num_4,0.5,0.7,0.2,0.5,7.6411,19.10275,return,7.3305993,,,,,,,,,,,,,,,,,720,25,male,up_down_width,2024-08-29_10h34.03.935,exp1,2023.1.0,60.1592777
4,8.65,9.55,10.45,11.35,0,0.9,0.5,0.4,3.1,10,9,9,9,9,0,,,,,,,,,,,,,,,,,,,,,,,,,,0,8,8,5,,,,,,,,,,,,,,,,,,,,num_4,1.5535631,num_4,0.3,0.9,0.25,0.8,9.55138,30.5644,return,4.3014868,,,,,,,,,,,,,,,,,720,25,male,up_down_width,2024-08-29_10h34.03.935,exp1,2023.1.0,60.1592777
,,,,,,,,,,,,,,,,,,,,,,,,,,,,,,,,,,,,,,,,,,,,,,,,,,,,,,,,,,,,,,,,,,,,,,,,,,,c,85.1082448,,,,,,,,,,,,,,,720,25,male,up_down_width,2024-08-29_10h34.03.935,exp1,2023.1.0,60.1592777
,,,,,,,,,,,,,,,,3,8.6,10,11.4,0,0,1.4,0.85,0.55,3.35,10,match,36.05,310,361,411,0,0,9,9,9,0,0,,,,,,,0,0,0,0,0,0,0,41,,,,,,,,,,,,num_3,2.7685808,num_3,0.35,1.2,0.25,0.75,9.55138,28.65413,return,8.8983435,,,,,,,,,,,,,,,,,720,25,male,up_down_width,2024-08-29_10h34.03.935,exp1,2023.1.0,60.1592777
,,,,,,,,,,,,,,,,5,8.65,9.325,10,10.675,11.35,0.675,0.425,0.25,2.95,10,match,36.05,312,336,361,385,409,9,9,9,9,9,,,,,,,0,0,0,0,0,1,1,31,,,,,,,,,,,,num_4,1.7872,num_4,0.25,0.3,0.2,0.5,7.6411,19.10275,return,8.5289485,,,,,,,,,,,,,,,,,720,25,male,up_down_width,2024-08-29_10h34.03.935,exp1,2023.1.0,60.1592777
,,,,,,,,,,,,,,,,4,8.65,9.55,10.45,11.35,0,0.9,0.65,0.25,2.95,10,initial,36.05,312,344,377,409,0,9,9,9,9,0,,,,,,,0,0,0,0,0,2,2,30,,,,,,,,,,,,num_4,2.4160188,num_4,0.25,1.1,0.2,0.8,7.6411,30.5644,return,7.6881654,,,,,,,,,,,,,,,,,720,25,male,up_down_width,2024-08-29_10h34.03.935,exp1,2023.1.0,60.1592777
,,,,,,,,,,,,,,,,4,8.9,9.633333333,10.36666667,11.1,0,0.733333333,0.483333333,0.25,2.45,10,match,36.05,321,347,374,400,0,9,9,9,9,0,,,,,,,0,0,0,0,0,3,3,3,,,,,,,,,,,,num_4,3.9016164,num_4,0.2,0.7,0.2,0.7,7.6411,26.74385,return,1.1611934,,,,,,,,,,,,,,,,,720,25,male,up_down_width,2024-08-29_10h34.03.935,exp1,2023.1.0,60.1592777
,,,,,,,,,,,,,,,,4,8.65,9.55,10.45,11.35,0,0.9,0.35,0.55,3.25,10,initial,36.05,312,344,377,409,0,9,9,9,9,0,,,,,,,0,0,0,0,0,4,4,28,,,,,,,,,,,,num_4,1.1642756,num_4,0.4,1,0.4,1,15.2822,38.2055,return,1.5433382,,,,,,,,,,,,,,,,,720,25,male,up_down_width,2024-08-29_10h34.03.935,exp1,2023.1.0,60.1592777
,,,,,,,,,,,,,,,,3,8.9,10,11.1,0,0,1.1,0.55,0.55,2.75,10,initial,36.05,321,361,400,0,0,9,9,9,0,0,,,,,,,0,0,0,0,0,5,5,0,,,,,,,,,,,,num_3,1.2118876,num_3,0.2,0.3,0.3,0.55,11.46165,21.01303,return,7.6899719,,,,,,,,,,,,,,,,,720,25,male,up_down_width,2024-08-29_10h34.03.935,exp1,2023.1.0,60.1592777
,,,,,,,,,,,,,,,,4,8.35,9.45,10.55,11.65,0,1.1,0.55,0.55,3.85,10,initial,36.05,301,341,380,420,0,9,9,9,9,0,,,,,,,0,0,0,0,0,6,6,17,,,,,,,,,,,,num_4,1.1552493,num_4,0.3,1.2,0.3,1.1,11.46165,42.02605,return,2.2714886,,,,,,,,,,,,,,,,,720,25,male,up_down_width,2024-08-29_10h34.03.935,exp1,2023.1.0,60.1592777
,,,,,,,,,,,,,,,,4,8.65,9.55,10.45,11.35,0,0.9,0.5,0.4,3.1,10,initial,36.05,312,344,377,409,0,9,9,9,9,0,,,,,,,0,0,0,0,0,7,7,32,,,,,,,,,,,,num_4,1.1101908,num_4,0.3,1.3,0.3,0.8,11.46165,30.5644,return,2.5955062,,,,,,,,,,,,,,,,,720,25,male,up_down_width,2024-08-29_10h34.03.935,exp1,2023.1.0,60.1592777
,,,,,,,,,,,,,,,,3,7.8,10,12.2,0,0,2.2,1.95,0.25,4.65,10,match,36.05,281,361,440,0,0,9,9,9,0,0,,,,,,,0,0,0,0,0,8,8,37,,,,,,,,,,,,num_3,1.5389312,num_3,0.35,0.8,0.25,2.05,9.55138,78.32128,return,6.9785827,,,,,,,,,,,,,,,,,720,25,male,up_down_width,2024-08-29_10h34.03.935,exp1,2023.1.0,60.1592777
,,,,,,,,,,,,,,,,3,9.3,10,10.7,0,0,0.7,0.3,0.4,1.8,10,initial,36.05,335,361,386,0,0,9,9,9,0,0,,,,,,,0,0,0,0,0,9,9,9,,,,,,,,,,,,num_3,1.0973354,num_3,0.45,1.2,0.2,0.65,7.6411,24.83358,return,5.9767343,,,,,,,,,,,,,,,,,720,25,male,up_down_width,2024-08-29_10h34.03.935,exp1,2023.1.0,60.1592777
,,,,,,,,,,,,,,,,5,8.2,9.1,10,10.9,11.8,0.9,0.35,0.55,4.15,10,initial,36.05,296,328,361,393,425,9,9,9,9,9,,,,,,,0,0,0,0,0,10,10,46,,,,,,,,,,,,num_4,1.1216205,num_4,0.55,1.3,0.25,1,9.55138,38.2055,return,5.8237573,,,,,,,,,,,,,,,,,720,25,male,up_down_width,2024-08-29_10h34.03.935,exp1,2023.1.0,60.1592777
,,,,,,,,,,,,,,,,3,9.3,10,10.7,0,0,0.7,0.45,0.25,1.65,10,initial,36.05,335,361,386,0,0,9,9,9,0,0,,,,,,,0,0,0,0,0,11,11,7,,,,,,,,,,,,num_3,1.1554256,num_3,0.25,0.7,0.2,0.85,7.6411,32.47468,return,4.4188161,,,,,,,,,,,,,,,,,720,25,male,up_down_width,2024-08-29_10h34.03.935,exp1,2023.1.0,60.1592777
,,,,,,,,,,,,,,,,4,8.95,9.65,10.35,11.05,0,0.7,0.15,0.55,2.65,10,initial,36.05,323,348,373,398,0,9,9,9,9,0,,,,,,,0,0,0,0,0,12,12,23,,,,,,,,,,,,num_3,1.524771,num_3,0.35,0.6,0.3,0.9,11.46165,34.38495,return,6.3377099,,,,,,,,,,,,,,,,,720,25,male,up_down_width,2024-08-29_10h34.03.935,exp1,2023.1.0,60.1592777
,,,,,,,,,,,,,,,,5,8.35,9.175,10,10.825,11.65,0.825,0.575,0.25,3.55,10,match,36.05,301,331,361,390,420,9,9,9,9,9,,,,,,,0,0,0,0,0,13,13,20,,,,,,,,,,,,num_4,0.9176233,num_4,0.45,1.1,0.15,0.9,5.73083,34.38495,return,3.5283791,,,,,,,,,,,,,,,,,720,25,male,up_down_width,2024-08-29_10h34.03.935,exp1,2023.1.0,60.1592777
,,,,,,,,,,,,,,,,3,9.1,10,10.9,0,0,0.9,0.65,0.25,2.05,10,initial,36.05,328,361,393,0,0,9,9,9,0,0,,,,,,,0,0,0,0,0,14,14,13,,,,,,,,,,,,num_3,1.1708358,num_3,0.55,0.6,0.15,0.95,5.73083,36.29523,return,4.7156327,,,,,,,,,,,,,,,,,720,25,male,up_down_width,2024-08-29_10h34.03.935,exp1,2023.1.0,60.1592777
,,,,,,,,,,,,,,,,4,8.95,9.65,10.35,11.05,0,0.7,0.3,0.4,2.5,10,initial,36.05,323,348,373,398,0,9,9,9,9,0,,,,,,,0,0,0,0,0,15,15,26,,,,,,,,,,,,num_4,1.5459924,num_4,0.3,0.3,0.2,0.8,7.6411,30.5644,return,4.8548838,,,,,,,,,,,,,,,,,720,25,male,up_down_width,2024-08-29_10h34.03.935,exp1,2023.1.0,60.1592777
,,,,,,,,,,,,,,,,3,8.6,10,11.4,0,0,1.4,1.15,0.25,3.05,10,match,36.05,310,361,411,0,0,9,9,9,0,0,,,,,,,0,0,0,0,0,16,16,43,,,,,,,,,,,,num_3,4.8053617,num_3,0.45,1.3,0.2,1.2,7.6411,45.8466,return,2.8785953,,,,,,,,,,,,,,,,,720,25,male,up_down_width,2024-08-29_10h34.03.935,exp1,2023.1.0,60.1592777
,,,,,,,,,,,,,,,,5,8.6,9.3,10,10.7,11.4,0.7,0.15,0.55,3.35,10,initial,36.05,310,335,361,386,411,9,9,9,9,9,,,,,,,0,0,0,0,0,17,17,40,,,,,,,,,,,,num_4,1.2619404,num_4,0.2,1.1,0.3,0.5,11.46165,19.10275,return,4.3468843,,,,,,,,,,,,,,,,,720,25,male,up_down_width,2024-08-29_10h34.03.935,exp1,2023.1.0,60.1592777
,,,,,,,,,,,,,,,,3,9.1,10,10.9,0,0,0.9,0.35,0.55,2.35,10,initial,36.05,328,361,393,0,0,9,9,9,0,0,,,,,,,0,0,0,0,0,18,18,11,,,,,,,,,,,,num_3,0.9855039,num_3,0.4,0.8,0.4,0.8,15.2822,30.5644,return,1.1823824,,,,,,,,,,,,,,,,,720,25,male,up_down_width,2024-08-29_10h34.03.935,exp1,2023.1.0,60.1592777
,,,,,,,,,,,,,,,,4,9.1,9.7,10.3,10.9,0,0.6,0.35,0.25,2.05,10,match,36.05,328,350,371,393,0,9,9,9,9,0,,,,,,,0,0,0,0,0,19,19,14,,,,,,,,,,,,num_4,0.9918098,num_4,0.5,1.1,0.3,0.7,11.46165,26.74385,return,5.217815,,,,,,,,,,,,,,,,,720,25,male,up_down_width,2024-08-29_10h34.03.935,exp1,2023.1.0,60.1592777
,,,,,,,,,,,,,,,,4,9.1,9.7,10.3,10.9,0,0.6,0.2,0.4,2.2,10,match,36.05,328,350,371,393,0,9,9,9,9,0,,,,,,,0,0,0,0,0,20,20,16,,,,,,,,,,,,num_4,1.1133425,num_4,0.25,0.3,0.25,0.6,9.55138,22.9233,return,1.6513226,,,,,,,,,,,,,,,,,720,25,male,up_down_width,2024-08-29_10h34.03.935,exp1,2023.1.0,60.1592777
,,,,,,,,,,,,,,,,5,7.8,8.9,10,11.1,12.2,1.1,0.85,0.25,4.65,10,initial,36.05,281,321,361,400,440,9,9,9,9,9,,,,,,,0,0,0,0,0,21,21,36,,,,,,,,,,,,num_4,1.4844064,num_4,0.5,0.6,0.25,1.1,9.55138,42.02605,return,6.857905,,,,,,,,,,,,,,,,,720,25,male,up_down_width,2024-08-29_10h34.03.935,exp1,2023.1.0,60.1592777
,,,,,,,,,,,,,,,,4,8.35,9.45,10.55,11.65,0,1.1,0.85,0.25,3.55,10,initial,36.05,301,341,380,420,0,9,9,9,9,0,,,,,,,0,0,0,0,0,22,22,19,,,,,,,,,,,,num_4,1.5521179,num_4,0.55,0.9,0.25,1.1,9.55138,42.02605,return,5.8979136,,,,,,,,,,,,,,,,,720,25,male,up_down_width,2024-08-29_10h34.03.935,exp1,2023.1.0,60.1592777
,,,,,,,,,,,,,,,,4,9.1,9.7,10.3,10.9,0,0.6,0.05,0.55,2.35,10,match,36.05,328,350,371,393,0,9,9,9,9,0,,,,,,,0,0,0,0,0,23,23,12,,,,,,,,,,,,num_4,1.7974823,num_4,0.4,1.3,0.4,0.5,15.2822,19.10275,return,4.2040722,,,,,,,,,,,,,,,,,720,25,male,up_down_width,2024-08-29_10h34.03.935,exp1,2023.1.0,60.1592777
,,,,,,,,,,,,,,,,3,7.8,10,12.2,0,0,2.2,1.8,0.4,4.8,10,match,36.05,281,361,440,0,0,9,9,9,0,0,,,,,,,0,0,0,0,0,24,24,39,,,,,,,,,,,,num_3,1.1165557,num_3,0.45,1,0.2,1.9,7.6411,72.59046,return,6.8793278,,,,,,,,,,,,,,,,,720,25,male,up_down_width,2024-08-29_10h34.03.935,exp1,2023.1.0,60.1592777
,,,,,,,,,,,,,,,,4,8.95,9.65,10.35,11.05,0,0.7,0.45,0.25,2.35,10,initial,36.05,323,348,373,398,0,9,9,9,9,0,,,,,,,0,0,0,0,0,25,25,24,,,,,,,,,,,,num_4,0.9767571,num_4,0.2,0.5,0.2,0.9,7.6411,34.38495,return,2.6760708,,,,,,,,,,,,,,,,,720,25,male,up_down_width,2024-08-29_10h34.03.935,exp1,2023.1.0,60.1592777
,,,,,,,,,,,,,,,,5,8.2,9.1,10,10.9,11.8,0.9,0.5,0.4,4,10,initial,36.05,296,328,361,393,425,9,9,9,9,9,,,,,,,0,0,0,0,0,26,26,50,,,,,,,,,,,,num_4,0.9605094,num_4,0.4,0.5,0.2,0.6,7.6411,22.9233,return,8.5046145,,,,,,,,,,,,,,,,,720,25,male,up_down_width,2024-08-29_10h34.03.935,exp1,2023.1.0,60.1592777
,,,,,,,,,,,,,,,,5,8.65,9.325,10,10.675,11.35,0.675,0.125,0.55,3.25,10,match,36.05,312,336,361,385,409,9,9,9,9,9,,,,,,,0,0,0,0,0,27,27,29,,,,,,,,,,,,num_4,1.1821817,num_4,0.4,0.8,0.4,0.5,15.2822,19.10275,return,3.3249957,,,,,,,,,,,,,,,,,720,25,male,up_down_width,2024-08-29_10h34.03.935,exp1,2023.1.0,60.1592777
,,,,,,,,,,,,,,,,5,7.8,8.9,10,11.1,12.2,1.1,0.7,0.4,4.8,10,initial,36.05,281,321,361,400,440,9,9,9,9,9,,,,,,,0,0,0,0,0,28,28,38,,,,,,,,,,,,num_4,1.1144733,num_4,0.25,0.6,0.25,1,9.55138,38.2055,return,2.4428345,,,,,,,,,,,,,,,,,720,25,male,up_down_width,2024-08-29_10h34.03.935,exp1,2023.1.0,60.1592777
,,,,,,,,,,,,,,,,4,8.825,9.608333333,10.39166667,11.175,0,0.783333333,0.533333333,0.25,2.6,10,match,36.05,318,346,375,403,0,9,9,9,9,0,,,,,,,0,0,0,0,0,29,29,5,,,,,,,,,,,,num_4,1.0017389,num_4,0.5,0.8,0.2,1.2,7.6411,45.8466,return,4.7040517,,,,,,,,,,,,,,,,,720,25,male,up_down_width,2024-08-29_10h34.03.935,exp1,2023.1.0,60.1592777
,,,,,,,,,,,,,,,,4,9.3,9.766666667,10.23333333,10.7,0,0.466666667,0.066666667,0.4,1.8,10,match,36.05,335,352,369,386,0,9,9,9,9,0,,,,,,,0,0,0,0,0,30,30,10,,,,,,,,,,,,num_4,0.9387886,num_4,0.45,0.9,0.45,0.6,17.19248,22.9233,return,2.3328573,,,,,,,,,,,,,,,,,720,25,male,up_down_width,2024-08-29_10h34.03.935,exp1,2023.1.0,60.1592777
,,,,,,,,,,,,,,,,3,8.2,10,11.8,0,0,1.8,1.25,0.55,4.15,10,match,36.05,296,361,425,0,0,9,9,9,0,0,,,,,,,0,0,0,0,0,31,31,47,,,,,,,,,,,,num_3,1.007663,num_3,0.2,0.9,0.65,1.05,24.83358,40.11578,return,6.452278,,,,,,,,,,,,,,,,,720,25,male,up_down_width,2024-08-29_10h34.03.935,exp1,2023.1.0,60.1592777
,,,,,,,,,,,,,,,,5,8.6,9.3,10,10.7,11.4,0.7,0.3,0.4,3.2,10,initial,36.05,310,335,361,386,411,9,9,9,9,9,,,,,,,0,0,0,0,0,32,32,44,,,,,,,,,,,,num_4,0.9350292,num_4,0.55,0.7,0.3,0.4,11.46165,15.2822,return,2.9127376,,,,,,,,,,,,,,,,,720,25,male,up_down_width,2024-08-29_10h34.03.935,exp1,2023.1.0,60.1592777
,,,,,,,,,,,,,,,,3,7.8,10,12.2,0,0,2.2,1.65,0.55,4.95,10,match,36.05,281,361,440,0,0,9,9,9,0,0,,,,,,,0,0,0,0,0,33,33,35,,,,,,,,,,,,num_3,1.4439254,num_3,0.4,1.2,0.4,1.35,15.2822,51.57743,return,1.8119736,,,,,,,,,,,,,,,,,720,25,male,up_down_width,2024-08-29_10h34.03.935,exp1,2023.1.0,60.1592777
,,,,,,,,,,,,,,,,3,9.3,10,10.7,0,0,0.7,0.15,0.55,1.95,10,initial,36.05,335,361,386,0,0,9,9,9,0,0,,,,,,,0,0,0,0,0,34,34,6,,,,,,,,,,,,num_3,1.0009893,num_3,0.45,1.2,0.45,0.65,17.19248,24.83358,return,5.0816956,,,,,,,,,,,,,,,,,720,25,male,up_down_width,2024-08-29_10h34.03.935,exp1,2023.1.0,60.1592777
,,,,,,,,,,,,,,,,5,8.95,9.475,10,10.525,11.05,0.525,0.125,0.4,2.5,10,match,36.05,323,342,361,379,398,9,9,9,9,9,,,,,,,0,0,0,0,0,35,35,27,,,,,,,,,,,,num_4,0.924001,num_4,0.3,1.2,0.3,0.5,11.46165,19.10275,return,3.9840662,,,,,,,,,,,,,,,,,720,25,male,up_down_width,2024-08-29_10h34.03.935,exp1,2023.1.0,60.1592777
,,,,,,,,,,,,,,,,4,8.9,9.633333333,10.36666667,11.1,0,0.733333333,0.183333333,0.55,2.75,10,match,36.05,321,347,374,400,0,9,9,9,9,0,,,,,,,0,0,0,0,0,36,36,1,,,,,,,,,,,,num_4,0.7862375,num_4,0.55,1.3,0.55,0.7,21.01303,26.74385,return,2.5607196,,,,,,,,,,,,,,,,,720,25,male,up_down_width,2024-08-29_10h34.03.935,exp1,2023.1.0,60.1592777
,,,,,,,,,,,,,,,,5,8.95,9.475,10,10.525,11.05,0.525,0.275,0.25,2.35,10,match,36.05,323,342,361,379,398,9,9,9,9,9,,,,,,,0,0,0,0,0,37,37,25,,,,,,,,,,,,num_5,0.9521341,num_5,0.2,1.1,0.2,0.4,7.6411,15.2822,return,4.1375279,,,,,,,,,,,,,,,,,720,25,male,up_down_width,2024-08-29_10h34.03.935,exp1,2023.1.0,60.1592777
,,,,,,,,,,,,,,,,5,8.65,9.325,10,10.675,11.35,0.675,0.275,0.4,3.1,10,match,36.05,312,336,361,385,409,9,9,9,9,9,,,,,,,0,0,0,0,0,38,38,33,,,,,,,,,,,,num_4,0.8924205,num_4,0.35,0.9,0.35,0.5,13.37193,19.10275,return,2.4026966,,,,,,,,,,,,,,,,,720,25,male,up_down_width,2024-08-29_10h34.03.935,exp1,2023.1.0,60.1592777
,,,,,,,,,,,,,,,,5,7.8,8.9,10,11.1,12.2,1.1,0.55,0.55,4.95,10,initial,36.05,281,321,361,400,440,9,9,9,9,9,,,,,,,0,0,0,0,0,39,39,34,,,,,,,,,,,,num_4,1.1923881,num_4,0.45,1.1,0.45,0.6,17.19248,22.9233,return,1.6385382,,,,,,,,,,,,,,,,,720,25,male,up_down_width,2024-08-29_10h34.03.935,exp1,2023.1.0,60.1592777
,,,,,,,,,,,,,,,,3,8.2,10,11.8,0,0,1.8,1.55,0.25,3.85,10,match,36.05,296,361,425,0,0,9,9,9,0,0,,,,,,,0,0,0,0,0,40,40,49,,,,,,,,,,,,num_3,0.9659117,num_3,0.35,1,0.35,0.6,13.37193,22.9233,return,3.263253,,,,,,,,,,,,,,,,,720,25,male,up_down_width,2024-08-29_10h34.03.935,exp1,2023.1.0,60.1592777
,,,,,,,,,,,,,,,,5,8.35,9.175,10,10.825,11.65,0.825,0.275,0.55,3.85,10,match,36.05,301,331,361,390,420,9,9,9,9,9,,,,,,,0,0,0,0,0,41,41,18,,,,,,,,,,,,num_4,1.0493109,num_4,0.5,1,0.5,0.6,19.10275,22.9233,return,1.5490221,,,,,,,,,,,,,,,,,720,25,male,up_down_width,2024-08-29_10h34.03.935,exp1,2023.1.0,60.1592777
,,,,,,,,,,,,,,,,3,8.525,10,11.475,0,0,1.475,1.225,0.25,3.2,10,match,36.05,307,361,414,0,0,9,9,9,0,0,,,,,,,0,0,0,0,0,42,42,45,,,,,,,,,,,,num_3,0.8212254,num_3,0.55,0.7,0.2,0.65,7.6411,24.83358,return,5.3095541,,,,,,,,,,,,,,,,,720,25,male,up_down_width,2024-08-29_10h34.03.935,exp1,2023.1.0,60.1592777
,,,,,,,,,,,,,,,,4,9.3,9.766666667,10.23333333,10.7,0,0.466666667,0.216666667,0.25,1.65,10,match,36.05,335,352,369,386,0,9,9,9,9,0,,,,,,,0,0,0,0,0,43,43,8,,,,,,,,,,,,num_4,0.8717564,num_4,0.4,0.7,0.2,0.4,7.6411,15.2822,return,4.496958,,,,,,,,,,,,,,,,,720,25,male,up_down_width,2024-08-29_10h34.03.935,exp1,2023.1.0,60.1592777
,,,,,,,,,,,,,,,,3,9.1,10,10.9,0,0,0.9,0.5,0.4,2.2,10,initial,36.05,328,361,393,0,0,9,9,9,0,0,,,,,,,0,0,0,0,0,44,44,15,,,,,,,,,,,,num_3,0.9631311,num_3,0.5,0.6,0.2,0.5,7.6411,19.10275,return,3.2866002,,,,,,,,,,,,,,,,,720,25,male,up_down_width,2024-08-29_10h34.03.935,exp1,2023.1.0,60.1592777
,,,,,,,,,,,,,,,,5,8.275,9.1375,10,10.8625,11.725,0.8625,0.6125,0.25,3.7,10,match,36.05,298,329,361,392,423,9,9,9,9,9,,,,,,,0,0,0,0,0,45,45,22,,,,,,,,,,,,num_4,1.0348676,num_4,0.35,0.7,0.2,0.5,7.6411,19.10275,return,2.1442161,,,,,,,,,,,,,,,,,720,25,male,up_down_width,2024-08-29_10h34.03.935,exp1,2023.1.0,60.1592777
,,,,,,,,,,,,,,,,3,8.9,10,11.1,0,0,1.1,0.7,0.4,2.6,10,initial,36.05,321,361,400,0,0,9,9,9,0,0,,,,,,,0,0,0,0,0,46,46,4,,,,,,,,,,,,num_3,0.9780988,num_3,0.3,1.2,0.2,0.65,7.6411,24.83358,return,3.4607941,,,,,,,,,,,,,,,,,720,25,male,up_down_width,2024-08-29_10h34.03.935,exp1,2023.1.0,60.1592777
,,,,,,,,,,,,,,,,3,8.2,10,11.8,0,0,1.8,1.4,0.4,4,10,match,36.05,296,361,425,0,0,9,9,9,0,0,,,,,,,0,0,0,0,0,47,47,51,,,,,,,,,,,,num_3,1.6490304,num_3,0.2,0.6,0.35,0.75,13.37193,28.65413,return,3.0366849,,,,,,,,,,,,,,,,,720,25,male,up_down_width,2024-08-29_10h34.03.935,exp1,2023.1.0,60.1592777
,,,,,,,,,,,,,,,,5,8.2,9.1,10,10.9,11.8,0.9,0.65,0.25,3.85,10,initial,36.05,296,328,361,393,425,9,9,9,9,9,,,,,,,0,0,0,0,0,48,48,48,,,,,,,,,,,,num_4,1.2076471,num_4,0.5,1.3,0.15,1.3,5.73083,49.66716,return,3.2382132,,,,,,,,,,,,,,,,,720,25,male,up_down_width,2024-08-29_10h34.03.935,exp1,2023.1.0,60.1592777
,,,,,,,,,,,,,,,,5,8.6,9.3,10,10.7,11.4,0.7,0.45,0.25,3.05,10,initial,36.05,310,335,361,386,411,9,9,9,9,9,,,,,,,0,0,0,0,0,49,49,42,,,,,,,,,,,,num_4,0.9516184,num_4,0.4,0.5,0.1,0.4,3.82055,15.2822,return,2.6076076,,,,,,,,,,,,,,,,,720,25,male,up_down_width,2024-08-29_10h34.03.935,exp1,2023.1.0,60.1592777
,,,,,,,,,,,,,,,,4,8.35,9.45,10.55,11.65,0,1.1,0.7,0.4,3.7,10,initial,36.05,301,341,380,420,0,9,9,9,9,0,,,,,,,0,0,0,0,0,50,50,21,,,,,,,,,,,,num_4,0.9746696,num_4,0.2,0.9,0.2,0.9,7.6411,34.38495,return,1.1887568,,,,,,,,,,,,,,,,,720,25,male,up_down_width,2024-08-29_10h34.03.935,exp1,2023.1.0,60.1592777
,,,,,,,,,,,,,,,,3,8.9,10,11.1,0,0,1.1,0.85,0.25,2.45,10,initial,36.05,321,361,400,0,0,9,9,9,0,0,,,,,,,0,0,0,0,0,51,51,2,,,,,,,,,,,,num_3,0.9442276,num_3,0.25,0.4,0.15,0.85,5.73083,32.47468,return,4.5967838,,,,,,,,,,,,,,,,,720,25,male,up_down_width,2024-08-29_10h34.03.935,exp1,2023.1.0,60.1592777
,,,,,,,,,,,,,,,,,,,,,,,,,,,,,,,,,,,,,,,,,,,,,0,0,0,0,,,,,,,,,,,,,,,,,,,,,,,,,,,,,1017.257165,1017.257165,1017.257165,,,,,,,,,,,,720,25,male,up_down_width,2024-08-29_10h34.03.935,exp1,2023.1.0,60.1592777
,,,,,,,,,,,,,,,,3,9.3,10,10.7,0,0,0.7,0.3,0.4,1.8,10,initial,36.05,335,361,386,0,0,9,9,9,0,0,,,,,,,1,0,1,0,0,0,0,9,,,,,,,,,,,,num_3,1.2320376,num_3,0.55,0.8,0.4,0.75,15.2822,28.65413,return,2.6324431,,,,,,,,,,,,,,,,,720,25,male,up_down_width,2024-08-29_10h34.03.935,exp1,2023.1.0,60.1592777
,,,,,,,,,,,,,,,,3,7.8,10,12.2,0,0,2.2,1.65,0.55,4.95,10,match,36.05,281,361,440,0,0,9,9,9,0,0,,,,,,,1,0,1,0,0,1,1,35,,,,,,,,,,,,num_3,0.968358,num_3,0.25,1.2,0.35,1.35,13.37193,51.57743,return,3.2273208,,,,,,,,,,,,,,,,,720,25,male,up_down_width,2024-08-29_10h34.03.935,exp1,2023.1.0,60.1592777
,,,,,,,,,,,,,,,,4,8.95,9.65,10.35,11.05,0,0.7,0.45,0.25,2.35,10,initial,36.05,323,348,373,398,0,9,9,9,9,0,,,,,,,1,0,1,0,0,2,2,24,,,,,,,,,,,,num_3,1.0190422,num_3,0.35,0.7,0.2,0.7,7.6411,26.74385,return,2.2565362,,,,,,,,,,,,,,,,,720,25,male,up_down_width,2024-08-29_10h34.03.935,exp1,2023.1.0,60.1592777
,,,,,,,,,,,,,,,,5,8.65,9.325,10,10.675,11.35,0.675,0.275,0.4,3.1,10,match,36.05,312,336,361,385,409,9,9,9,9,9,,,,,,,1,0,1,0,0,3,3,33,,,,,,,,,,,,num_4,0.7825154,num_4,0.2,0.4,0.3,0.5,11.46165,19.10275,return,2.7154042,,,,,,,,,,,,,,,,,720,25,male,up_down_width,2024-08-29_10h34.03.935,exp1,2023.1.0,60.1592777
,,,,,,,,,,,,,,,,3,8.9,10,11.1,0,0,1.1,0.7,0.4,2.6,10,initial,36.05,321,361,400,0,0,9,9,9,0,0,,,,,,,1,0,1,0,0,4,4,4,,,,,,,,,,,,num_3,0.9594847,num_3,0.2,0.6,0.3,0.7,11.46165,26.74385,return,3.8639593,,,,,,,,,,,,,,,,,720,25,male,up_down_width,2024-08-29_10h34.03.935,exp1,2023.1.0,60.1592777
,,,,,,,,,,,,,,,,5,8.95,9.475,10,10.525,11.05,0.525,0.125,0.4,2.5,10,match,36.05,323,342,361,379,398,9,9,9,9,9,,,,,,,1,0,1,0,0,5,5,27,,,,,,,,,,,,num_4,0.9448804,num_4,0.4,0.9,0.4,0.6,15.2822,22.9233,return,1.7138561,,,,,,,,,,,,,,,,,720,25,male,up_down_width,2024-08-29_10h34.03.935,exp1,2023.1.0,60.1592777
,,,,,,,,,,,,,,,,5,7.8,8.9,10,11.1,12.2,1.1,0.7,0.4,4.8,10,initial,36.05,281,321,361,400,440,9,9,9,9,9,,,,,,,1,0,1,0,0,6,6,38,,,,,,,,,,,,num_5,1.3260749,num_5,0.2,0.3,0.2,0.5,7.6411,19.10275,return,2.0562996,,,,,,,,,,,,,,,,,720,25,male,up_down_width,2024-08-29_10h34.03.935,exp1,2023.1.0,60.1592777
,,,,,,,,,,,,,,,,5,8.35,9.175,10,10.825,11.65,0.825,0.275,0.55,3.85,10,match,36.05,301,331,361,390,420,9,9,9,9,9,,,,,,,1,0,1,0,0,7,7,18,,,,,,,,,,,,num_5,0.8540284,num_5,0.35,0.6,0.35,0.6,13.37193,22.9233,return,0.8478867,,,,,,,,,,,,,,,,,720,25,male,up_down_width,2024-08-29_10h34.03.935,exp1,2023.1.0,60.1592777
,,,,,,,,,,,,,,,,5,8.35,9.175,10,10.825,11.65,0.825,0.575,0.25,3.55,10,match,36.05,301,331,361,390,420,9,9,9,9,9,,,,,,,1,0,1,0,0,8,8,20,,,,,,,,,,,,num_5,0.9779176,num_5,0.3,0.6,0.3,0.6,11.46165,22.9233,return,1.2680878,,,,,,,,,,,,,,,,,720,25,male,up_down_width,2024-08-29_10h34.03.935,exp1,2023.1.0,60.1592777
,,,,,,,,,,,,,,,,4,8.65,9.55,10.45,11.35,0,0.9,0.5,0.4,3.1,10,initial,36.05,312,344,377,409,0,9,9,9,9,0,,,,,,,1,0,1,0,0,9,9,32,,,,,,,,,,,,num_4,1.1920066,num_4,0.5,0.7,0.3,0.5,11.46165,19.10275,return,2.1635493,,,,,,,,,,,,,,,,,720,25,male,up_down_width,2024-08-29_10h34.03.935,exp1,2023.1.0,60.1592777
,,,,,,,,,,,,,,,,4,8.95,9.65,10.35,11.05,0,0.7,0.3,0.4,2.5,10,initial,36.05,323,348,373,398,0,9,9,9,9,0,,,,,,,1,0,1,0,0,10,10,26,,,,,,,,,,,,num_4,0.855548,num_4,0.2,1.3,0.3,0.6,11.46165,22.9233,return,5.2288931,,,,,,,,,,,,,,,,,720,25,male,up_down_width,2024-08-29_10h34.03.935,exp1,2023.1.0,60.1592777
,,,,,,,,,,,,,,,,5,7.8,8.9,10,11.1,12.2,1.1,0.55,0.55,4.95,10,initial,36.05,281,321,361,400,440,9,9,9,9,9,,,,,,,1,0,1,0,0,11,11,34,,,,,,,,,,,,num_4,0.9121726,num_4,0.2,1.3,0.3,0.6,11.46165,22.9233,return,5.0953001,,,,,,,,,,,,,,,,,720,25,male,up_down_width,2024-08-29_10h34.03.935,exp1,2023.1.0,60.1592777
,,,,,,,,,,,,,,,,3,9.3,10,10.7,0,0,0.7,0.45,0.25,1.65,10,initial,36.05,335,361,386,0,0,9,9,9,0,0,,,,,,,1,0,1,0,0,12,12,7,,,,,,,,,,,,num_3,0.8973735,num_3,0.5,0.6,0.2,0.45,7.6411,17.19248,return,4.2209153,,,,,,,,,,,,,,,,,720,25,male,up_down_width,2024-08-29_10h34.03.935,exp1,2023.1.0,60.1592777
,,,,,,,,,,,,,,,,3,8.2,10,11.8,0,0,1.8,1.55,0.25,3.85,10,match,36.05,296,361,425,0,0,9,9,9,0,0,,,,,,,1,0,1,0,0,13,13,49,,,,,,,,,,,,num_3,0.9081256,num_3,0.2,0.6,0.2,1.35,7.6411,51.57743,return,4.4185036,,,,,,,,,,,,,,,,,720,25,male,up_down_width,2024-08-29_10h34.03.935,exp1,2023.1.0,60.1592777
,,,,,,,,,,,,,,,,4,8.65,9.55,10.45,11.35,0,0.9,0.65,0.25,2.95,10,initial,36.05,312,344,377,409,0,9,9,9,9,0,,,,,,,1,0,1,0,0,14,14,30,,,,,,,,,,,,num_3,1.0854564,num_3,0.45,1.2,0.15,1.2,5.73083,45.8466,return,2.8427808,,,,,,,,,,,,,,,,,720,25,male,up_down_width,2024-08-29_10h34.03.935,exp1,2023.1.0,60.1592777
,,,,,,,,,,,,,,,,3,8.525,10,11.475,0,0,1.475,1.225,0.25,3.2,10,match,36.05,307,361,414,0,0,9,9,9,0,0,,,,,,,1,0,1,0,0,15,15,45,,,,,,,,,,,,num_3,1.4092994,num_3,0.3,0.5,0.1,1.1,3.82055,42.02605,return,5.1218331,,,,,,,,,,,,,,,,,720,25,male,up_down_width,2024-08-29_10h34.03.935,exp1,2023.1.0,60.1592777
,,,,,,,,,,,,,,,,5,8.275,9.1375,10,10.8625,11.725,0.8625,0.6125,0.25,3.7,10,match,36.05,298,329,361,392,423,9,9,9,9,9,,,,,,,1,0,1,0,0,16,16,22,,,,,,,,,,,,num_4,4.7916132,num_4,0.2,0.4,0.2,0.8,7.6411,30.5644,return,1.957947,,,,,,,,,,,,,,,,,720,25,male,up_down_width,2024-08-29_10h34.03.935,exp1,2023.1.0,60.1592777
,,,,,,,,,,,,,,,,4,8.9,9.633333333,10.36666667,11.1,0,0.733333333,0.183333333,0.55,2.75,10,match,36.05,321,347,374,400,0,9,9,9,9,0,,,,,,,1,0,1,0,0,17,17,1,,,,,,,,,,,,num_4,1.2260421,num_4,0.3,0.4,0.3,0.6,11.46165,22.9233,return,1.5856983,,,,,,,,,,,,,,,,,720,25,male,up_down_width,2024-08-29_10h34.03.935,exp1,2023.1.0,60.1592777
,,,,,,,,,,,,,,,,3,8.2,10,11.8,0,0,1.8,1.25,0.55,4.15,10,match,36.05,296,361,425,0,0,9,9,9,0,0,,,,,,,1,0,1,0,0,18,18,47,,,,,,,,,,,,num_3,0.8947197,num_3,0.2,1.2,0.5,1.2,19.10275,45.8466,return,3.0618742,,,,,,,,,,,,,,,,,720,25,male,up_down_width,2024-08-29_10h34.03.935,exp1,2023.1.0,60.1592777
,,,,,,,,,,,,,,,,4,9.1,9.7,10.3,10.9,0,0.6,0.35,0.25,2.05,10,match,36.05,328,350,371,393,0,9,9,9,9,0,,,,,,,1,0,1,0,0,19,19,14,,,,,,,,,,,,num_4,0.9721081,num_4,0.25,0.4,0.25,0.6,9.55138,22.9233,return,1.6827238,,,,,,,,,,,,,,,,,720,25,male,up_down_width,2024-08-29_10h34.03.935,exp1,2023.1.0,60.1592777
,,,,,,,,,,,,,,,,3,8.2,10,11.8,0,0,1.8,1.4,0.4,4,10,match,36.05,296,361,425,0,0,9,9,9,0,0,,,,,,,1,0,1,0,0,20,20,51,,,,,,,,,,,,num_3,0.8676008,num_3,0.45,0.6,0.35,1.1,13.37193,42.02605,return,3.4701059,,,,,,,,,,,,,,,,,720,25,male,up_down_width,2024-08-29_10h34.03.935,exp1,2023.1.0,60.1592777
,,,,,,,,,,,,,,,,3,8.9,10,11.1,0,0,1.1,0.55,0.55,2.75,10,initial,36.05,321,361,400,0,0,9,9,9,0,0,,,,,,,1,0,1,0,0,21,21,0,,,,,,,,,,,,num_3,1.6972807,num_3,0.55,1.1,0.55,1.1,21.01303,42.02605,return,1.3022963,,,,,,,,,,,,,,,,,720,25,male,up_down_width,2024-08-29_10h34.03.935,exp1,2023.1.0,60.1592777
,,,,,,,,,,,,,,,,5,8.2,9.1,10,10.9,11.8,0.9,0.35,0.55,4.15,10,initial,36.05,296,328,361,393,425,9,9,9,9,9,,,,,,,1,0,1,0,0,22,22,46,,,,,,,,,,,,num_4,1.0571712,num_4,0.35,0.7,0.35,0.9,13.37193,34.38495,return,1.5702838,,,,,,,,,,,,,,,,,720,25,male,up_down_width,2024-08-29_10h34.03.935,exp1,2023.1.0,60.1592777
,,,,,,,,,,,,,,,,4,9.1,9.7,10.3,10.9,0,0.6,0.05,0.55,2.35,10,match,36.05,328,350,371,393,0,9,9,9,9,0,,,,,,,1,0,1,0,0,23,23,12,,,,,,,,,,,,num_4,1.2898885,num_4,0.2,0.5,0.4,0.5,15.2822,19.10275,return,2.1919304,,,,,,,,,,,,,,,,,720,25,male,up_down_width,2024-08-29_10h34.03.935,exp1,2023.1.0,60.1592777
,,,,,,,,,,,,,,,,5,8.6,9.3,10,10.7,11.4,0.7,0.3,0.4,3.2,10,initial,36.05,310,335,361,386,411,9,9,9,9,9,,,,,,,1,0,1,0,0,24,24,44,,,,,,,,,,,,num_4,1.4407259,num_4,0.2,0.9,0.3,0.5,11.46165,19.10275,return,2.8488284,,,,,,,,,,,,,,,,,720,25,male,up_down_width,2024-08-29_10h34.03.935,exp1,2023.1.0,60.1592777
,,,,,,,,,,,,,,,,4,8.35,9.45,10.55,11.65,0,1.1,0.55,0.55,3.85,10,initial,36.05,301,341,380,420,0,9,9,9,9,0,,,,,,,1,0,1,0,0,25,25,17,,,,,,,,,,,,num_4,1.7129958,num_4,0.25,0.7,0.5,0.7,19.10275,26.74385,return,2.4270295,,,,,,,,,,,,,,,,,720,25,male,up_down_width,2024-08-29_10h34.03.935,exp1,2023.1.0,60.1592777
,,,,,,,,,,,,,,,,3,8.6,10,11.4,0,0,1.4,1.15,0.25,3.05,10,match,36.05,310,361,411,0,0,9,9,9,0,0,,,,,,,1,0,1,0,0,26,26,43,,,,,,,,,,,,num_3,1.0640411,num_3,0.3,0.5,0.3,1.1,11.46165,42.02605,return,2.8865699,,,,,,,,,,,,,,,,,720,25,male,up_down_width,2024-08-29_10h34.03.935,exp1,2023.1.0,60.1592777
,,,,,,,,,,,,,,,,3,8.6,10,11.4,0,0,1.4,0.85,0.55,3.35,10,match,36.05,310,361,411,0,0,9,9,9,0,0,,,,,,,1,0,1,0,0,27,27,41,,,,,,,,,,,,num_3,1.1507794,num_3,0.55,1.2,0.55,1.4,21.01303,53.48771,return,1.7234344,,,,,,,,,,,,,,,,,720,25,male,up_down_width,2024-08-29_10h34.03.935,exp1,2023.1.0,60.1592777
,,,,,,,,,,,,,,,,3,9.3,10,10.7,0,0,0.7,0.15,0.55,1.95,10,initial,36.05,335,361,386,0,0,9,9,9,0,0,,,,,,,1,0,1,0,0,28,28,6,,,,,,,,,,,,num_3,0.9625016,num_3,0.3,0.4,0.4,0.5,15.2822,19.10275,return,2.6183499,,,,,,,,,,,,,,,,,720,25,male,up_down_width,2024-08-29_10h34.03.935,exp1,2023.1.0,60.1592777
,,,,,,,,,,,,,,,,5,8.6,9.3,10,10.7,11.4,0.7,0.15,0.55,3.35,10,initial,36.05,310,335,361,386,411,9,9,9,9,9,,,,,,,1,0,1,0,0,29,29,40,,,,,,,,,,,,num_4,4.9819706,num_4,0.25,1.2,0.35,0.5,13.37193,19.10275,return,8.2957531,,,,,,,,,,,,,,,,,720,25,male,up_down_width,2024-08-29_10h34.03.935,exp1,2023.1.0,60.1592777
,,,,,,,,,,,,,,,,4,9.3,9.766666667,10.23333333,10.7,0,0.466666667,0.216666667,0.25,1.65,10,match,36.05,335,352,369,386,0,9,9,9,9,0,,,,,,,1,0,1,0,0,30,30,8,,,,,,,,,,,,num_4,1.0987132,num_4,0.35,1.2,0.25,0.4,9.55138,15.2822,return,4.1900427,,,,,,,,,,,,,,,,,720,25,male,up_down_width,2024-08-29_10h34.03.935,exp1,2023.1.0,60.1592777
,,,,,,,,,,,,,,,,3,9.1,10,10.9,0,0,0.9,0.5,0.4,2.2,10,initial,36.05,328,361,393,0,0,9,9,9,0,0,,,,,,,1,0,1,0,0,31,31,15,,,,,,,,,,,,num_3,5.5874364,num_3,0.2,1,0.15,0.6,5.73083,22.9233,return,2.8794566,,,,,,,,,,,,,,,,,720,25,male,up_down_width,2024-08-29_10h34.03.935,exp1,2023.1.0,60.1592777
,,,,,,,,,,,,,,,,3,9.1,10,10.9,0,0,0.9,0.65,0.25,2.05,10,initial,36.05,328,361,393,0,0,9,9,9,0,0,,,,,,,1,0,1,0,0,32,32,13,,,,,,,,,,,,num_3,1.0160193,num_3,0.55,1.1,0.2,0.55,7.6411,21.01303,return,6.8429292,,,,,,,,,,,,,,,,,720,25,male,up_down_width,2024-08-29_10h34.03.935,exp1,2023.1.0,60.1592777
,,,,,,,,,,,,,,,,4,9.3,9.766666667,10.23333333,10.7,0,0.466666667,0.066666667,0.4,1.8,10,match,36.05,335,352,369,386,0,9,9,9,9,0,,,,,,,1,0,1,0,0,33,33,10,,,,,,,,,,,,num_4,1.7749524,num_4,0.5,0.6,0.35,0.5,13.37193,19.10275,return,3.4744818,,,,,,,,,,,,,,,,,720,25,male,up_down_width,2024-08-29_10h34.03.935,exp1,2023.1.0,60.1592777
,,,,,,,,,,,,,,,,5,8.65,9.325,10,10.675,11.35,0.675,0.425,0.25,2.95,10,match,36.05,312,336,361,385,409,9,9,9,9,9,,,,,,,1,0,1,0,0,34,34,31,,,,,,,,,,,,num_4,0.9589736,num_4,0.2,0.5,0.2,0.9,7.6411,34.38495,return,1.7480956,,,,,,,,,,,,,,,,,720,25,male,up_down_width,2024-08-29_10h34.03.935,exp1,2023.1.0,60.1592777
,,,,,,,,,,,,,,,,4,8.9,9.633333333,10.36666667,11.1,0,0.733333333,0.483333333,0.25,2.45,10,match,36.05,321,347,374,400,0,9,9,9,9,0,,,,,,,1,0,1,0,0,35,35,3,,,,,,,,,,,,num_4,2.4359362,num_4,0.4,1.2,0.25,0.6,9.55138,22.9233,return,2.7543169,,,,,,,,,,,,,,,,,720,25,male,up_down_width,2024-08-29_10h34.03.935,exp1,2023.1.0,60.1592777
,,,,,,,,,,,,,,,,5,7.8,8.9,10,11.1,12.2,1.1,0.85,0.25,4.65,10,initial,36.05,281,321,361,400,440,9,9,9,9,9,,,,,,,1,0,1,0,0,36,36,36,,,,,,,,,,,,num_4,0.8841543,num_4,0.25,1.1,0.2,1.5,7.6411,57.30826,return,3.2917581,,,,,,,,,,,,,,,,,720,25,male,up_down_width,2024-08-29_10h34.03.935,exp1,2023.1.0,60.1592777
,,,,,,,,,,,,,,,,5,8.95,9.475,10,10.525,11.05,0.525,0.275,0.25,2.35,10,match,36.05,323,342,361,379,398,9,9,9,9,9,,,,,,,1,0,1,0,0,37,37,25,,,,,,,,,,,,num_4,1.4718378,num_4,0.35,1.3,0.2,0.5,7.6411,19.10275,return,3.5674082,,,,,,,,,,,,,,,,,720,25,male,up_down_width,2024-08-29_10h34.03.935,exp1,2023.1.0,60.1592777
,,,,,,,,,,,,,,,,5,8.6,9.3,10,10.7,11.4,0.7,0.45,0.25,3.05,10,initial,36.05,310,335,361,386,411,9,9,9,9,9,,,,,,,1,0,1,0,0,38,38,42,,,,,,,,,,,,num_4,3.3349278,num_4,0.25,0.5,0.2,0.8,7.6411,30.5644,return,2.8010384,,,,,,,,,,,,,,,,,720,25,male,up_down_width,2024-08-29_10h34.03.935,exp1,2023.1.0,60.1592777
,,,,,,,,,,,,,,,,4,8.35,9.45,10.55,11.65,0,1.1,0.85,0.25,3.55,10,initial,36.05,301,341,380,420,0,9,9,9,9,0,,,,,,,1,0,1,0,0,39,39,19,,,,,,,,,,,,num_4,2.4245558,num_4,0.4,1.2,0.2,0.5,7.6411,19.10275,return,3.7176881,,,,,,,,,,,,,,,,,720,25,male,up_down_width,2024-08-29_10h34.03.935,exp1,2023.1.0,60.1592777
,,,,,,,,,,,,,,,,5,8.2,9.1,10,10.9,11.8,0.9,0.65,0.25,3.85,10,initial,36.05,296,328,361,393,425,9,9,9,9,9,,,,,,,1,0,1,0,0,40,40,48,,,,,,,,,,,,num_4,3.1397236,num_4,0.2,1.2,0.2,1,7.6411,38.2055,return,2.1899559,,,,,,,,,,,,,,,,,720,25,male,up_down_width,2024-08-29_10h34.03.935,exp1,2023.1.0,60.1592777
,,,,,,,,,,,,,,,,3,9.1,10,10.9,0,0,0.9,0.35,0.55,2.35,10,initial,36.05,328,361,393,0,0,9,9,9,0,0,,,,,,,1,0,1,0,0,41,41,11,,,,,,,,,,,,num_3,2.5018367,num_3,0.2,1.1,0.35,0.65,13.37193,24.83358,return,3.33984,,,,,,,,,,,,,,,,,720,25,male,up_down_width,2024-08-29_10h34.03.935,exp1,2023.1.0,60.1592777
,,,,,,,,,,,,,,,,3,7.8,10,12.2,0,0,2.2,1.8,0.4,4.8,10,match,36.05,281,361,440,0,0,9,9,9,0,0,,,,,,,1,0,1,0,0,42,42,39,,,,,,,,,,,,num_3,1.2615315,num_3,0.35,0.6,0.35,2,13.37193,76.41101,return,5.6537612,,,,,,,,,,,,,,,,,720,25,male,up_down_width,2024-08-29_10h34.03.935,exp1,2023.1.0,60.1592777
,,,,,,,,,,,,,,,,3,7.8,10,12.2,0,0,2.2,1.95,0.25,4.65,10,match,36.05,281,361,440,0,0,9,9,9,0,0,,,,,,,1,0,1,0,0,43,43,37,,,,,,,,,,,,num_3,0.9593117,num_3,0.5,0.9,0.25,2.2,9.55138,84.05211,return,5.8111438,,,,,,,,,,,,,,,,,720,25,male,up_down_width,2024-08-29_10h34.03.935,exp1,2023.1.0,60.1592777
,,,,,,,,,,,,,,,,5,8.65,9.325,10,10.675,11.35,0.675,0.125,0.55,3.25,10,match,36.05,312,336,361,385,409,9,9,9,9,9,,,,,,,1,0,1,0,0,44,44,29,,,,,,,,,,,,num_4,0.9147383,num_4,0.2,0.5,0.65,0.8,24.83358,30.5644,return,8.2306676,,,,,,,,,,,,,,,,,720,25,male,up_down_width,2024-08-29_10h34.03.935,exp1,2023.1.0,60.1592777
,,,,,,,,,,,,,,,,3,8.9,10,11.1,0,0,1.1,0.85,0.25,2.45,10,initial,36.05,321,361,400,0,0,9,9,9,0,0,,,,,,,1,0,1,0,0,45,45,2,,,,,,,,,,,,num_3,1.9580611,num_3,0.25,1.2,0.25,0.8,9.55138,30.5644,return,2.3717971,,,,,,,,,,,,,,,,,720,25,male,up_down_width,2024-08-29_10h34.03.935,exp1,2023.1.0,60.1592777
,,,,,,,,,,,,,,,,4,8.65,9.55,10.45,11.35,0,0.9,0.35,0.55,3.25,10,initial,36.05,312,344,377,409,0,9,9,9,9,0,,,,,,,1,0,1,0,0,46,46,28,,,,,,,,,,,,num_4,2.2778354,num_4,0.25,0.3,0.35,0.5,13.37193,19.10275,return,4.7407045,,,,,,,,,,,,,,,,,720,25,male,up_down_width,2024-08-29_10h34.03.935,exp1,2023.1.0,60.1592777
,,,,,,,,,,,,,,,,4,9.1,9.7,10.3,10.9,0,0.6,0.2,0.4,2.2,10,match,36.05,328,350,371,393,0,9,9,9,9,0,,,,,,,1,0,1,0,0,47,47,16,,,,,,,,,,,,num_4,2.3088018,num_4,0.25,1.3,0.25,0.4,9.55138,15.2822,return,2.8384072,,,,,,,,,,,,,,,,,720,25,male,up_down_width,2024-08-29_10h34.03.935,exp1,2023.1.0,60.1592777
,,,,,,,,,,,,,,,,4,8.825,9.608333333,10.39166667,11.175,0,0.783333333,0.533333333,0.25,2.6,10,match,36.05,318,346,375,403,0,9,9,9,9,0,,,,,,,1,0,1,0,0,48,48,5,,,,,,,,,,,,num_4,2.0678712,num_4,0.25,0.6,0.25,0.4,9.55138,15.2822,return,2.1566093,,,,,,,,,,,,,,,,,720,25,male,up_down_width,2024-08-29_10h34.03.935,exp1,2023.1.0,60.1592777
,,,,,,,,,,,,,,,,5,8.2,9.1,10,10.9,11.8,0.9,0.5,0.4,4,10,initial,36.05,296,328,361,393,425,9,9,9,9,9,,,,,,,1,0,1,0,0,49,49,50,,,,,,,,,,,,num_4,1.7850714,num_4,0.3,0.8,0.2,0.4,7.6411,15.2822,return,2.0937584,,,,,,,,,,,,,,,,,720,25,male,up_down_width,2024-08-29_10h34.03.935,exp1,2023.1.0,60.1592777
,,,,,,,,,,,,,,,,4,8.95,9.65,10.35,11.05,0,0.7,0.15,0.55,2.65,10,initial,36.05,323,348,373,398,0,9,9,9,9,0,,,,,,,1,0,1,0,0,50,50,23,,,,,,,,,,,,num_4,1.1103861,num_4,0.25,0.4,0.4,0.6,15.2822,22.9233,return,3.0083117,,,,,,,,,,,,,,,,,720,25,male,up_down_width,2024-08-29_10h34.03.935,exp1,2023.1.0,60.1592777
,,,,,,,,,,,,,,,,4,8.35,9.45,10.55,11.65,0,1.1,0.7,0.4,3.7,10,initial,36.05,301,341,380,420,0,9,9,9,9,0,,,,,,,1,0,1,0,0,51,51,21,,,,,,,,,,,,num_4,3.3673871,num_4,0.5,1.1,0.35,0.5,13.37193,19.10275,return,3.3913258,,,,,,,,,,,,,,,,,720,25,male,up_down_width,2024-08-29_10h34.03.935,exp1,2023.1.0,60.1592777
,,,,,,,,,,,,,,,,,,,,,,,,,,,,,,,,,,,,,,,,,,,,,1,0,1,0,,,,,,,,,,,,,,,,,,,,,,,,,,,,,1412.30716,1412.30716,1412.30716,,,,,,,,,,,,720,25,male,up_down_width,2024-08-29_10h34.03.935,exp1,2023.1.0,60.1592777
,,,,,,,,,,,,,,,,3,9.3,10,10.7,0,0,0.7,0.45,0.25,1.65,10,initial,36.05,335,361,386,0,0,9,9,9,0,0,,,,,,,2,0,2,0,0,0,0,7,,,,,,,,,,,,num_3,1.0187864,num_3,0.2,1.2,0.2,0.6,7.6411,22.9233,return,3.0402322,,,,,,,,,,,,,,,,,720,25,male,up_down_width,2024-08-29_10h34.03.935,exp1,2023.1.0,60.1592777
,,,,,,,,,,,,,,,,5,8.95,9.475,10,10.525,11.05,0.525,0.125,0.4,2.5,10,match,36.05,323,342,361,379,398,9,9,9,9,9,,,,,,,2,0,2,0,0,1,1,27,,,,,,,,,,,,num_4,1.1925095,num_4,0.45,0.9,0.25,0.4,9.55138,15.2822,return,3.0430958,,,,,,,,,,,,,,,,,720,25,male,up_down_width,2024-08-29_10h34.03.935,exp1,2023.1.0,60.1592777
,,,,,,,,,,,,,,,,3,8.2,10,11.8,0,0,1.8,1.4,0.4,4,10,match,36.05,296,361,425,0,0,9,9,9,0,0,,,,,,,2,0,2,0,0,2,2,51,,,,,,,,,,,,num_3,0.9772658,num_3,0.45,1,0.25,1.65,9.55138,63.03908,return,3.8165446,,,,,,,,,,,,,,,,,720,25,male,up_down_width,2024-08-29_10h34.03.935,exp1,2023.1.0,60.1592777
,,,,,,,,,,,,,,,,3,9.1,10,10.9,0,0,0.9,0.5,0.4,2.2,10,initial,36.05,328,361,393,0,0,9,9,9,0,0,,,,,,,2,0,2,0,0,3,3,15,,,,,,,,,,,,num_3,1.0696091,num_3,0.3,0.4,0.3,1,11.46165,38.2055,return,2.7968605,,,,,,,,,,,,,,,,,720,25,male,up_down_width,2024-08-29_10h34.03.935,exp1,2023.1.0,60.1592777
,,,,,,,,,,,,,,,,5,8.65,9.325,10,10.675,11.35,0.675,0.125,0.55,3.25,10,match,36.05,312,336,361,385,409,9,9,9,9,9,,,,,,,2,0,2,0,0,4,4,29,,,,,,,,,,,,num_3,3.6690752,num_3,0.35,0.5,0.35,0.9,13.37193,34.38495,return,2.7684114,,,,,,,,,,,,,,,,,720,25,male,up_down_width,2024-08-29_10h34.03.935,exp1,2023.1.0,60.1592777
,,,,,,,,,,,,,,,,3,8.9,10,11.1,0,0,1.1,0.55,0.55,2.75,10,initial,36.05,321,361,400,0,0,9,9,9,0,0,,,,,,,2,0,2,0,0,5,5,0,,,,,,,,,,,,num_3,1.6278033,num_3,0.25,1.3,0.4,0.75,15.2822,28.65413,return,3.6850025,,,,,,,,,,,,,,,,,720,25,male,up_down_width,2024-08-29_10h34.03.935,exp1,2023.1.0,60.1592777
,,,,,,,,,,,,,,,,4,8.35,9.45,10.55,11.65,0,1.1,0.55,0.55,3.85,10,initial,36.05,301,341,380,420,0,9,9,9,9,0,,,,,,,2,0,2,0,0,6,6,17,,,,,,,,,,,,num_4,0.8312195,num_4,0.45,1,0.35,0.8,13.37193,30.5644,return,2.7102525,,,,,,,,,,,,,,,,,720,25,male,up_down_width,2024-08-29_10h34.03.935,exp1,2023.1.0,60.1592777
,,,,,,,,,,,,,,,,5,7.8,8.9,10,11.1,12.2,1.1,0.85,0.25,4.65,10,initial,36.05,281,321,361,400,440,9,9,9,9,9,,,,,,,2,0,2,0,0,7,7,36,,,,,,,,,,,,num_4,0.8828507,num_4,0.5,1,0.15,1.4,5.73083,53.48771,return,4.2496415,,,,,,,,,,,,,,,,,720,25,male,up_down_width,2024-08-29_10h34.03.935,exp1,2023.1.0,60.1592777
,,,,,,,,,,,,,,,,5,8.6,9.3,10,10.7,11.4,0.7,0.15,0.55,3.35,10,initial,36.05,310,335,361,386,411,9,9,9,9,9,,,,,,,2,0,2,0,0,8,8,40,,,,,,,,,,,,num_4,1.2291599,num_4,0.45,0.8,0.4,0.6,15.2822,22.9233,return,3.8656012,,,,,,,,,,,,,,,,,720,25,male,up_down_width,2024-08-29_10h34.03.935,exp1,2023.1.0,60.1592777
,,,,,,,,,,,,,,,,3,8.9,10,11.1,0,0,1.1,0.85,0.25,2.45,10,initial,36.05,321,361,400,0,0,9,9,9,0,0,,,,,,,2,0,2,0,0,9,9,2,,,,,,,,,,,,num_3,2.8823097,num_3,0.55,1,0.25,0.85,9.55138,32.47468,return,3.8707322,,,,,,,,,,,,,,,,,720,25,male,up_down_width,2024-08-29_10h34.03.935,exp1,2023.1.0,60.1592777
,,,,,,,,,,,,,,,,3,9.3,10,10.7,0,0,0.7,0.15,0.55,1.95,10,initial,36.05,335,361,386,0,0,9,9,9,0,0,,,,,,,2,0,2,0,0,10,10,6,,,,,,,,,,,,num_3,1.2067559,num_3,0.35,1.2,0.35,0.5,13.37193,19.10275,return,3.0301667,,,,,,,,,,,,,,,,,720,25,male,up_down_width,2024-08-29_10h34.03.935,exp1,2023.1.0,60.1592777
,,,,,,,,,,,,,,,,3,8.2,10,11.8,0,0,1.8,1.25,0.55,4.15,10,match,36.05,296,361,425,0,0,9,9,9,0,0,,,,,,,2,0,2,0,0,11,11,47,,,,,,,,,,,,num_3,1.1172774,num_3,0.35,0.9,0.35,1.55,13.37193,59.21853,return,3.0841321,,,,,,,,,,,,,,,,,720,25,male,up_down_width,2024-08-29_10h34.03.935,exp1,2023.1.0,60.1592777
,,,,,,,,,,,,,,,,3,7.8,10,12.2,0,0,2.2,1.65,0.55,4.95,10,match,36.05,281,361,440,0,0,9,9,9,0,0,,,,,,,2,0,2,0,0,12,12,35,,,,,,,,,,,,num_3,1.8825914,num_3,0.35,1.1,0.35,2,13.37193,76.41101,return,4.9863034,,,,,,,,,,,,,,,,,720,25,male,up_down_width,2024-08-29_10h34.03.935,exp1,2023.1.0,60.1592777
,,,,,,,,,,,,,,,,3,8.6,10,11.4,0,0,1.4,1.15,0.25,3.05,10,match,36.05,310,361,411,0,0,9,9,9,0,0,,,,,,,2,0,2,0,0,13,13,43,,,,,,,,,,,,num_3,0.9385372,num_3,0.55,0.7,0.1,1.95,3.82055,74.50073,return,7.036597,,,,,,,,,,,,,,,,,720,25,male,up_down_width,2024-08-29_10h34.03.935,exp1,2023.1.0,60.1592777
,,,,,,,,,,,,,,,,5,8.2,9.1,10,10.9,11.8,0.9,0.5,0.4,4,10,initial,36.05,296,328,361,393,425,9,9,9,9,9,,,,,,,2,0,2,0,0,14,14,50,,,,,,,,,,,,num_4,0.9610761,num_4,0.3,0.9,0.25,1.2,9.55138,45.8466,return,2.6518049,,,,,,,,,,,,,,,,,720,25,male,up_down_width,2024-08-29_10h34.03.935,exp1,2023.1.0,60.1592777
,,,,,,,,,,,,,,,,5,8.65,9.325,10,10.675,11.35,0.675,0.275,0.4,3.1,10,match,36.05,312,336,361,385,409,9,9,9,9,9,,,,,,,2,0,2,0,0,15,15,33,,,,,,,,,,,,num_4,0.9884941,num_4,0.2,0.5,0.25,0.9,9.55138,34.38495,return,2.9925266,,,,,,,,,,,,,,,,,720,25,male,up_down_width,2024-08-29_10h34.03.935,exp1,2023.1.0,60.1592777
,,,,,,,,,,,,,,,,4,8.35,9.45,10.55,11.65,0,1.1,0.7,0.4,3.7,10,initial,36.05,301,341,380,420,0,9,9,9,9,0,,,,,,,2,0,2,0,0,16,16,21,,,,,,,,,,,,num_4,1.1496026,num_4,0.25,1,0.25,0.7,9.55138,26.74385,return,3.1627563,,,,,,,,,,,,,,,,,720,25,male,up_down_width,2024-08-29_10h34.03.935,exp1,2023.1.0,60.1592777
,,,,,,,,,,,,,,,,4,9.3,9.766666667,10.23333333,10.7,0,0.466666667,0.216666667,0.25,1.65,10,match,36.05,335,352,369,386,0,9,9,9,9,0,,,,,,,2,0,2,0,0,17,17,8,,,,,,,,,,,,num_4,2.7008689,num_4,0.2,0.6,0.2,0.4,7.6411,15.2822,return,1.5311385,,,,,,,,,,,,,,,,,720,25,male,up_down_width,2024-08-29_10h34.03.935,exp1,2023.1.0,60.1592777
,,,,,,,,,,,,,,,,3,7.8,10,12.2,0,0,2.2,1.8,0.4,4.8,10,match,36.05,281,361,440,0,0,9,9,9,0,0,,,,,,,2,0,2,0,0,18,18,39,,,,,,,,,,,,num_3,2.0744554,num_3,0.2,0.7,0.2,1.4,7.6411,53.48771,return,3.5727086,,,,,,,,,,,,,,,,,720,25,male,up_down_width,2024-08-29_10h34.03.935,exp1,2023.1.0,60.1592777
,,,,,,,,,,,,,,,,4,8.65,9.55,10.45,11.35,0,0.9,0.35,0.55,3.25,10,initial,36.05,312,344,377,409,0,9,9,9,9,0,,,,,,,2,0,2,0,0,19,19,28,,,,,,,,,,,,num_3,2.0669241,num_3,0.35,1,0.35,0.7,13.37193,26.74385,return,2.0157593,,,,,,,,,,,,,,,,,720,25,male,up_down_width,2024-08-29_10h34.03.935,exp1,2023.1.0,60.1592777
,,,,,,,,,,,,,,,,5,8.65,9.325,10,10.675,11.35,0.675,0.425,0.25,2.95,10,match,36.05,312,336,361,385,409,9,9,9,9,9,,,,,,,2,0,2,0,0,20,20,31,,,,,,,,,,,,num_4,3.3532033,num_4,0.35,0.5,0.2,0.8,7.6411,30.5644,return,2.3374907,,,,,,,,,,,,,,,,,720,25,male,up_down_width,2024-08-29_10h34.03.935,exp1,2023.1.0,60.1592777
,,,,,,,,,,,,,,,,4,9.1,9.7,10.3,10.9,0,0.6,0.2,0.4,2.2,10,match,36.05,328,350,371,393,0,9,9,9,9,0,,,,,,,2,0,2,0,0,21,21,16,,,,,,,,,,,,num_4,1.2011095,num_4,0.25,0.7,0.3,0.5,11.46165,19.10275,return,1.2958356,,,,,,,,,,,,,,,,,720,25,male,up_down_width,2024-08-29_10h34.03.935,exp1,2023.1.0,60.1592777
,,,,,,,,,,,,,,,,5,8.2,9.1,10,10.9,11.8,0.9,0.35,0.55,4.15,10,initial,36.05,296,328,361,393,425,9,9,9,9,9,,,,,,,2,0,2,0,0,22,22,46,,,,,,,,,,,,num_5,2.9525524,num_5,0.25,1.1,0.2,0.35,7.6411,13.37193,return,4.6210295,,,,,,,,,,,,,,,,,720,25,male,up_down_width,2024-08-29_10h34.03.935,exp1,2023.1.0,60.1592777
,,,,,,,,,,,,,,,,4,8.35,9.45,10.55,11.65,0,1.1,0.85,0.25,3.55,10,initial,36.05,301,341,380,420,0,9,9,9,9,0,,,,,,,2,0,2,0,0,23,23,19,,,,,,,,,,,,num_4,2.8583186,num_4,0.3,0.7,0.2,0.7,7.6411,26.74385,return,2.8630852,,,,,,,,,,,,,,,,,720,25,male,up_down_width,2024-08-29_10h34.03.935,exp1,2023.1.0,60.1592777
,,,,,,,,,,,,,,,,3,9.1,10,10.9,0,0,0.9,0.65,0.25,2.05,10,initial,36.05,328,361,393,0,0,9,9,9,0,0,,,,,,,2,0,2,0,0,24,24,13,,,,,,,,,,,,num_3,1.8409595,num_3,0.35,1.3,0.25,0.6,9.55138,22.9233,return,4.2934253,,,,,,,,,,,,,,,,,720,25,male,up_down_width,2024-08-29_10h34.03.935,exp1,2023.1.0,60.1592777
,,,,,,,,,,,,,,,,5,8.6,9.3,10,10.7,11.4,0.7,0.3,0.4,3.2,10,initial,36.05,310,335,361,386,411,9,9,9,9,9,,,,,,,2,0,2,0,0,25,25,44,,,,,,,,,,,,num_4,1.8695225,num_4,0.5,0.9,0.3,0.5,11.46165,19.10275,return,2.4661402,,,,,,,,,,,,,,,,,720,25,male,up_down_width,2024-08-29_10h34.03.935,exp1,2023.1.0,60.1592777
,,,,,,,,,,,,,,,,3,8.525,10,11.475,0,0,1.475,1.225,0.25,3.2,10,match,36.05,307,361,414,0,0,9,9,9,0,0,,,,,,,2,0,2,0,0,26,26,45,,,,,,,,,,,,num_3,1.0426289,num_3,0.35,0.5,0.15,0.5,5.73083,19.10275,return,3.6488123,,,,,,,,,,,,,,,,,720,25,male,up_down_width,2024-08-29_10h34.03.935,exp1,2023.1.0,60.1592777
,,,,,,,,,,,,,,,,5,8.35,9.175,10,10.825,11.65,0.825,0.275,0.55,3.85,10,match,36.05,301,331,361,390,420,9,9,9,9,9,,,,,,,2,0,2,0,0,27,27,18,,,,,,,,,,,,num_4,2.3603974,num_4,0.3,0.8,0.3,0.4,11.46165,15.2822,return,1.6664634,,,,,,,,,,,,,,,,,720,25,male,up_down_width,2024-08-29_10h34.03.935,exp1,2023.1.0,60.1592777
,,,,,,,,,,,,,,,,4,8.95,9.65,10.35,11.05,0,0.7,0.3,0.4,2.5,10,initial,36.05,323,348,373,398,0,9,9,9,9,0,,,,,,,2,0,2,0,0,28,28,26,,,,,,,,,,,,num_4,3.9288444,num_4,0.2,1,0.25,0.4,9.55138,15.2822,return,3.1756243,,,,,,,,,,,,,,,,,720,25,male,up_down_width,2024-08-29_10h34.03.935,exp1,2023.1.0,60.1592777
,,,,,,,,,,,,,,,,4,8.65,9.55,10.45,11.35,0,0.9,0.5,0.4,3.1,10,initial,36.05,312,344,377,409,0,9,9,9,9,0,,,,,,,2,0,2,0,0,29,29,32,,,,,,,,,,,,num_3,1.8361219,num_3,0.5,0.7,0.35,0.55,13.37193,21.01303,return,2.303488,,,,,,,,,,,,,,,,,720,25,male,up_down_width,2024-08-29_10h34.03.935,exp1,2023.1.0,60.1592777
,,,,,,,,,,,,,,,,4,8.9,9.633333333,10.36666667,11.1,0,0.733333333,0.483333333,0.25,2.45,10,match,36.05,321,347,374,400,0,9,9,9,9,0,,,,,,,2,0,2,0,0,30,30,3,,,,,,,,,,,,num_3,1.0816317,num_3,0.3,0.4,0.2,0.35,7.6411,13.37193,return,3.5308416,,,,,,,,,,,,,,,,,720,25,male,up_down_width,2024-08-29_10h34.03.935,exp1,2023.1.0,60.1592777
,,,,,,,,,,,,,,,,3,7.8,10,12.2,0,0,2.2,1.95,0.25,4.65,10,match,36.05,281,361,440,0,0,9,9,9,0,0,,,,,,,2,0,2,0,0,31,31,37,,,,,,,,,,,,num_3,1.1278535,num_3,0.3,0.7,0.2,2,7.6411,76.41101,return,7.0130319,,,,,,,,,,,,,,,,,720,25,male,up_down_width,2024-08-29_10h34.03.935,exp1,2023.1.0,60.1592777
,,,,,,,,,,,,,,,,4,9.3,9.766666667,10.23333333,10.7,0,0.466666667,0.066666667,0.4,1.8,10,match,36.05,335,352,369,386,0,9,9,9,9,0,,,,,,,2,0,2,0,0,32,32,10,,,,,,,,,,,,num_4,4.2258078,num_4,0.35,1,0.35,0.4,13.37193,15.2822,return,3.2000313,,,,,,,,,,,,,,,,,720,25,male,up_down_width,2024-08-29_10h34.03.935,exp1,2023.1.0,60.1592777
,,,,,,,,,,,,,,,,4,8.9,9.633333333,10.36666667,11.1,0,0.733333333,0.183333333,0.55,2.75,10,match,36.05,321,347,374,400,0,9,9,9,9,0,,,,,,,2,0,2,0,0,33,33,1,,,,,,,,,,,,num_3,1.5789948,num_3,0.3,1.3,0.45,0.5,17.19248,19.10275,return,4.890207,,,,,,,,,,,,,,,,,720,25,male,up_down_width,2024-08-29_10h34.03.935,exp1,2023.1.0,60.1592777
,,,,,,,,,,,,,,,,5,8.2,9.1,10,10.9,11.8,0.9,0.65,0.25,3.85,10,initial,36.05,296,328,361,393,425,9,9,9,9,9,,,,,,,2,0,2,0,0,34,34,48,,,,,,,,,,,,num_4,1.8641474,num_4,0.45,1,0.15,1.2,5.73083,45.8466,return,3.815171,,,,,,,,,,,,,,,,,720,25,male,up_down_width,2024-08-29_10h34.03.935,exp1,2023.1.0,60.1592777
,,,,,,,,,,,,,,,,4,8.95,9.65,10.35,11.05,0,0.7,0.45,0.25,2.35,10,initial,36.05,323,348,373,398,0,9,9,9,9,0,,,,,,,2,0,2,0,0,35,35,24,,,,,,,,,,,,num_4,2.3963513,num_4,0.3,1,0.2,0.6,7.6411,22.9233,return,2.3585322,,,,,,,,,,,,,,,,,720,25,male,up_down_width,2024-08-29_10h34.03.935,exp1,2023.1.0,60.1592777
,,,,,,,,,,,,,,,,4,9.1,9.7,10.3,10.9,0,0.6,0.05,0.55,2.35,10,match,36.05,328,350,371,393,0,9,9,9,9,0,,,,,,,2,0,2,0,0,36,36,12,,,,,,,,,,,,num_4,2.0519656,num_4,0.4,1.3,0.4,0.5,15.2822,19.10275,return,2.4286973,,,,,,,,,,,,,,,,,720,25,male,up_down_width,2024-08-29_10h34.03.935,exp1,2023.1.0,60.1592777
,,,,,,,,,,,,,,,,5,8.95,9.475,10,10.525,11.05,0.525,0.275,0.25,2.35,10,match,36.05,323,342,361,379,398,9,9,9,9,9,,,,,,,2,0,2,0,0,37,37,25,,,,,,,,,,,,num_5,3.6774957,num_5,0.35,1.3,0.25,0.5,9.55138,19.10275,return,3.8130758,,,,,,,,,,,,,,,,,720,25,male,up_down_width,2024-08-29_10h34.03.935,exp1,2023.1.0,60.1592777
,,,,,,,,,,,,,,,,3,9.1,10,10.9,0,0,0.9,0.35,0.55,2.35,10,initial,36.05,328,361,393,0,0,9,9,9,0,0,,,,,,,2,0,2,0,0,38,38,11,,,,,,,,,,,,num_3,1.2393004,num_3,0.3,1.2,0.3,0.5,11.46165,19.10275,return,3.1712561,,,,,,,,,,,,,,,,,720,25,male,up_down_width,2024-08-29_10h34.03.935,exp1,2023.1.0,60.1592777
,,,,,,,,,,,,,,,,4,8.825,9.608333333,10.39166667,11.175,0,0.783333333,0.533333333,0.25,2.6,10,match,36.05,318,346,375,403,0,9,9,9,9,0,,,,,,,2,0,2,0,0,39,39,5,,,,,,,,,,,,num_4,1.0649741,num_4,0.5,1.2,0.25,0.7,9.55138,26.74385,return,2.793656,,,,,,,,,,,,,,,,,720,25,male,up_down_width,2024-08-29_10h34.03.935,exp1,2023.1.0,60.1592777
,,,,,,,,,,,,,,,,5,8.6,9.3,10,10.7,11.4,0.7,0.45,0.25,3.05,10,initial,36.05,310,335,361,386,411,9,9,9,9,9,,,,,,,2,0,2,0,0,40,40,42,,,,,,,,,,,,num_4,0.9433657,num_4,0.55,1,0.3,0.6,11.46165,22.9233,return,4.4713,,,,,,,,,,,,,,,,,720,25,male,up_down_width,2024-08-29_10h34.03.935,exp1,2023.1.0,60.1592777
,,,,,,,,,,,,,,,,3,8.2,10,11.8,0,0,1.8,1.55,0.25,3.85,10,match,36.05,296,361,425,0,0,9,9,9,0,0,,,,,,,2,0,2,0,0,41,41,49,,,,,,,,,,,,num_3,1.1810415,num_3,0.5,0.8,0.15,0.65,5.73083,24.83358,return,4.1373335,,,,,,,,,,,,,,,,,720,25,male,up_down_width,2024-08-29_10h34.03.935,exp1,2023.1.0,60.1592777
,,,,,,,,,,,,,,,,5,8.35,9.175,10,10.825,11.65,0.825,0.575,0.25,3.55,10,match,36.05,301,331,361,390,420,9,9,9,9,9,,,,,,,2,0,2,0,0,42,42,20,,,,,,,,,,,,num_4,1.0240842,num_4,0.4,0.9,0.2,0.7,7.6411,26.74385,return,2.5576453,,,,,,,,,,,,,,,,,720,25,male,up_down_width,2024-08-29_10h34.03.935,exp1,2023.1.0,60.1592777
,,,,,,,,,,,,,,,,3,8.9,10,11.1,0,0,1.1,0.7,0.4,2.6,10,initial,36.05,321,361,400,0,0,9,9,9,0,0,,,,,,,2,0,2,0,0,43,43,4,,,,,,,,,,,,num_3,1.0748118,num_3,0.5,0.7,0.2,0.6,7.6411,22.9233,return,2.4695732,,,,,,,,,,,,,,,,,720,25,male,up_down_width,2024-08-29_10h34.03.935,exp1,2023.1.0,60.1592777
,,,,,,,,,,,,,,,,5,7.8,8.9,10,11.1,12.2,1.1,0.55,0.55,4.95,10,initial,36.05,281,321,361,400,440,9,9,9,9,9,,,,,,,2,0,2,0,0,44,44,34,,,,,,,,,,,,num_5,4.8496456,num_5,0.2,1.3,0.3,1,11.46165,38.2055,return,2.9198968,,,,,,,,,,,,,,,,,720,25,male,up_down_width,2024-08-29_10h34.03.935,exp1,2023.1.0,60.1592777
,,,,,,,,,,,,,,,,5,7.8,8.9,10,11.1,12.2,1.1,0.7,0.4,4.8,10,initial,36.05,281,321,361,400,440,9,9,9,9,9,,,,,,,2,0,2,0,0,45,45,38,,,,,,,,,,,,num_5,1.7725458,num_5,0.45,0.6,0.2,1,7.6411,38.2055,return,7.3322533,,,,,,,,,,,,,,,,,720,25,male,up_down_width,2024-08-29_10h34.03.935,exp1,2023.1.0,60.1592777
,,,,,,,,,,,,,,,,3,8.6,10,11.4,0,0,1.4,0.85,0.55,3.35,10,match,36.05,310,361,411,0,0,9,9,9,0,0,,,,,,,2,0,2,0,0,46,46,41,,,,,,,,,,,,num_3,1.0677733,num_3,0.3,1.2,0.55,1.2,21.01303,45.8466,return,1.9208522,,,,,,,,,,,,,,,,,720,25,male,up_down_width,2024-08-29_10h34.03.935,exp1,2023.1.0,60.1592777
,,,,,,,,,,,,,,,,4,8.65,9.55,10.45,11.35,0,0.9,0.65,0.25,2.95,10,initial,36.05,312,344,377,409,0,9,9,9,9,0,,,,,,,2,0,2,0,0,47,47,30,,,,,,,,,,,,num_3,4.2432921,num_3,0.2,0.3,0.2,1.05,7.6411,40.11578,return,3.9745574,,,,,,,,,,,,,,,,,720,25,male,up_down_width,2024-08-29_10h34.03.935,exp1,2023.1.0,60.1592777
,,,,,,,,,,,,,,,,5,8.275,9.1375,10,10.8625,11.725,0.8625,0.6125,0.25,3.7,10,match,36.05,298,329,361,392,423,9,9,9,9,9,,,,,,,2,0,2,0,0,48,48,22,,,,,,,,,,,,num_1,1.4865543,num_1,0.45,9999,0.45,9999,17.19248,382016.8345,return,9.1360043,,,,,,,,,,,,,,,,,720,25,male,up_down_width,2024-08-29_10h34.03.935,exp1,2023.1.0,60.1592777
,,,,,,,,,,,,,,,,3,9.3,10,10.7,0,0,0.7,0.3,0.4,1.8,10,initial,36.05,335,361,386,0,0,9,9,9,0,0,,,,,,,2,0,2,0,0,49,49,9,,,,,,,,,,,,num_3,1.5962133,num_3,0.2,0.8,0.3,0.45,11.46165,17.19248,return,3.6127441,,,,,,,,,,,,,,,,,720,25,male,up_down_width,2024-08-29_10h34.03.935,exp1,2023.1.0,60.1592777
,,,,,,,,,,,,,,,,4,9.1,9.7,10.3,10.9,0,0.6,0.35,0.25,2.05,10,match,36.05,328,350,371,393,0,9,9,9,9,0,,,,,,,2,0,2,0,0,50,50,14,,,,,,,,,,,,num_4,1.5667213,num_4,0.45,0.5,0.2,0.3,7.6411,11.46165,return,8.7624942,,,,,,,,,,,,,,,,,720,25,male,up_down_width,2024-08-29_10h34.03.935,exp1,2023.1.0,60.1592777
,,,,,,,,,,,,,,,,4,8.95,9.65,10.35,11.05,0,0.7,0.15,0.55,2.65,10,initial,36.05,323,348,373,398,0,9,9,9,9,0,,,,,,,2,0,2,0,0,51,51,23,,,,,,,,,,,,num_4,2.4105557,num_4,0.25,0.3,0.25,0.4,9.55138,15.2822,return,2.5842577,,,,,,,,,,,,,,,,,720,25,male,up_down_width,2024-08-29_10h34.03.935,exp1,2023.1.0,60.1592777
,,,,,,,,,,,,,,,,,,,,,,,,,,,,,,,,,,,,,,,,,,,,,2,0,2,0,,,,,,,,,,,,,,,,,,,,,,,,,,,,,1872.057232,1872.057232,1872.057232,,,,,,,,,,,,720,25,male,up_down_width,2024-08-29_10h34.03.935,exp1,2023.1.0,60.1592777
,,,,,,,,,,,,,,,,4,9.1,9.7,10.3,10.9,0,0.6,0.2,0.4,2.2,10,match,36.05,328,350,371,393,0,9,9,9,9,0,,,,,,,3,0,3,0,0,0,0,16,,,,,,,,,,,,num_4,1.7508946,num_4,0.5,0.7,0.25,0.5,9.55138,19.10275,return,4.9687662,,,,,,,,,,,,,,,,,720,25,male,up_down_width,2024-08-29_10h34.03.935,exp1,2023.1.0,60.1592777
,,,,,,,,,,,,,,,,3,9.3,10,10.7,0,0,0.7,0.45,0.25,1.65,10,initial,36.05,335,361,386,0,0,9,9,9,0,0,,,,,,,3,0,3,0,0,1,1,7,,,,,,,,,,,,num_3,0.9562803,num_3,0.3,1.1,0.25,0.65,9.55138,24.83358,return,2.8591984,,,,,,,,,,,,,,,,,720,25,male,up_down_width,2024-08-29_10h34.03.935,exp1,2023.1.0,60.1592777
,,,,,,,,,,,,,,,,4,8.95,9.65,10.35,11.05,0,0.7,0.45,0.25,2.35,10,initial,36.05,323,348,373,398,0,9,9,9,9,0,,,,,,,3,0,3,0,0,2,2,24,,,,,,,,,,,,num_4,2.1315878,num_4,0.5,0.6,0.2,0.4,7.6411,15.2822,return,2.5220218,,,,,,,,,,,,,,,,,720,25,male,up_down_width,2024-08-29_10h34.03.935,exp1,2023.1.0,60.1592777
,,,,,,,,,,,,,,,,4,8.825,9.608333333,10.39166667,11.175,0,0.783333333,0.533333333,0.25,2.6,10,match,36.05,318,346,375,403,0,9,9,9,9,0,,,,,,,3,0,3,0,0,3,3,5,,,,,,,,,,,,num_4,1.0981782,num_4,0.45,0.6,0.2,0.9,7.6411,34.38495,return,4.3798537,,,,,,,,,,,,,,,,,720,25,male,up_down_width,2024-08-29_10h34.03.935,exp1,2023.1.0,60.1592777
,,,,,,,,,,,,,,,,4,8.35,9.45,10.55,11.65,0,1.1,0.85,0.25,3.55,10,initial,36.05,301,341,380,420,0,9,9,9,9,0,,,,,,,3,0,3,0,0,4,4,19,,,,,,,,,,,,num_4,1.8110621,num_4,0.5,0.8,0.2,0.6,7.6411,22.9233,return,4.261487,,,,,,,,,,,,,,,,,720,25,male,up_down_width,2024-08-29_10h34.03.935,exp1,2023.1.0,60.1592777
,,,,,,,,,,,,,,,,5,8.95,9.475,10,10.525,11.05,0.525,0.275,0.25,2.35,10,match,36.05,323,342,361,379,398,9,9,9,9,9,,,,,,,3,0,3,0,0,5,5,25,,,,,,,,,,,,num_4,0.9654556,num_4,0.3,1,0.2,0.5,7.6411,19.10275,return,2.782971,,,,,,,,,,,,,,,,,720,25,male,up_down_width,2024-08-29_10h34.03.935,exp1,2023.1.0,60.1592777
,,,,,,,,,,,,,,,,5,8.2,9.1,10,10.9,11.8,0.9,0.65,0.25,3.85,10,initial,36.05,296,328,361,393,425,9,9,9,9,9,,,,,,,3,0,3,0,0,6,6,48,,,,,,,,,,,,num_4,0.8993508,num_4,0.25,0.3,0.15,1,5.73083,38.2055,return,3.8821246,,,,,,,,,,,,,,,,,720,25,male,up_down_width,2024-08-29_10h34.03.935,exp1,2023.1.0,60.1592777
,,,,,,,,,,,,,,,,4,8.95,9.65,10.35,11.05,0,0.7,0.3,0.4,2.5,10,initial,36.05,323,348,373,398,0,9,9,9,9,0,,,,,,,3,0,3,0,0,7,7,26,,,,,,,,,,,,num_4,1.2316526,num_4,0.55,0.9,0.3,0.5,11.46165,19.10275,return,2.8256881,,,,,,,,,,,,,,,,,720,25,male,up_down_width,2024-08-29_10h34.03.935,exp1,2023.1.0,60.1592777
,,,,,,,,,,,,,,,,4,8.9,9.633333333,10.36666667,11.1,0,0.733333333,0.483333333,0.25,2.45,10,match,36.05,321,347,374,400,0,9,9,9,9,0,,,,,,,3,0,3,0,0,8,8,3,,,,,,,,,,,,num_4,1.0179595,num_4,0.2,0.4,0.2,0.5,7.6411,19.10275,return,3.8192531,,,,,,,,,,,,,,,,,720,25,male,up_down_width,2024-08-29_10h34.03.935,exp1,2023.1.0,60.1592777
,,,,,,,,,,,,,,,,3,8.2,10,11.8,0,0,1.8,1.55,0.25,3.85,10,match,36.05,296,361,425,0,0,9,9,9,0,0,,,,,,,3,0,3,0,0,9,9,49,,,,,,,,,,,,num_3,0.9439814,num_3,0.25,1.3,0.15,1.95,5.73083,74.50073,return,6.3292367,,,,,,,,,,,,,,,,,720,25,male,up_down_width,2024-08-29_10h34.03.935,exp1,2023.1.0,60.1592777
,,,,,,,,,,,,,,,,4,8.65,9.55,10.45,11.35,0,0.9,0.35,0.55,3.25,10,initial,36.05,312,344,377,409,0,9,9,9,9,0,,,,,,,3,0,3,0,0,10,10,28,,,,,,,,,,,,num_3,1.02969,num_3,0.45,0.9,0.35,1,13.37193,38.2055,return,4.0890479,,,,,,,,,,,,,,,,,720,25,male,up_down_width,2024-08-29_10h34.03.935,exp1,2023.1.0,60.1592777
,,,,,,,,,,,,,,,,3,8.6,10,11.4,0,0,1.4,0.85,0.55,3.35,10,match,36.05,310,361,411,0,0,9,9,9,0,0,,,,,,,3,0,3,0,0,11,11,41,,,,,,,,,,,,num_3,1.0244987,num_3,0.55,0.8,0.45,1.95,17.19248,74.50073,return,6.6261241,,,,,,,,,,,,,,,,,720,25,male,up_down_width,2024-08-29_10h34.03.935,exp1,2023.1.0,60.1592777
,,,,,,,,,,,,,,,,5,7.8,8.9,10,11.1,12.2,1.1,0.7,0.4,4.8,10,initial,36.05,281,321,361,400,440,9,9,9,9,9,,,,,,,3,0,3,0,0,12,12,38,,,,,,,,,,,,num_4,0.9163131,num_4,0.35,1,0.35,1.8,13.37193,68.76991,return,2.2066211,,,,,,,,,,,,,,,,,720,25,male,up_down_width,2024-08-29_10h34.03.935,exp1,2023.1.0,60.1592777
,,,,,,,,,,,,,,,,5,8.6,9.3,10,10.7,11.4,0.7,0.45,0.25,3.05,10,initial,36.05,310,335,361,386,411,9,9,9,9,9,,,,,,,3,0,3,0,0,13,13,42,,,,,,,,,,,,num_4,0.952803,num_4,0.45,1.2,0.3,0.7,11.46165,26.74385,return,2.911035,,,,,,,,,,,,,,,,,720,25,male,up_down_width,2024-08-29_10h34.03.935,exp1,2023.1.0,60.1592777
,,,,,,,,,,,,,,,,3,8.9,10,11.1,0,0,1.1,0.7,0.4,2.6,10,initial,36.05,321,361,400,0,0,9,9,9,0,0,,,,,,,3,0,3,0,0,14,14,4,,,,,,,,,,,,num_3,0.7684784,num_3,0.2,0.5,0.25,0.75,9.55138,28.65413,return,2.5256658,,,,,,,,,,,,,,,,,720,25,male,up_down_width,2024-08-29_10h34.03.935,exp1,2023.1.0,60.1592777
,,,,,,,,,,,,,,,,3,7.8,10,12.2,0,0,2.2,1.8,0.4,4.8,10,match,36.05,281,361,440,0,0,9,9,9,0,0,,,,,,,3,0,3,0,0,15,15,39,,,,,,,,,,,,num_3,0.7994996,num_3,0.4,0.5,0.2,1.95,7.6411,74.50073,return,9.5944934,,,,,,,,,,,,,,,,,720,25,male,up_down_width,2024-08-29_10h34.03.935,exp1,2023.1.0,60.1592777
,,,,,,,,,,,,,,,,5,8.2,9.1,10,10.9,11.8,0.9,0.35,0.55,4.15,10,initial,36.05,296,328,361,393,425,9,9,9,9,9,,,,,,,3,0,3,0,0,16,16,46,,,,,,,,,,,,num_4,3.1950698,num_4,0.45,0.8,0.3,0.6,11.46165,22.9233,return,2.0718776,,,,,,,,,,,,,,,,,720,25,male,up_down_width,2024-08-29_10h34.03.935,exp1,2023.1.0,60.1592777
,,,,,,,,,,,,,,,,5,8.65,9.325,10,10.675,11.35,0.675,0.125,0.55,3.25,10,match,36.05,312,336,361,385,409,9,9,9,9,9,,,,,,,3,0,3,0,0,17,17,29,,,,,,,,,,,,num_4,0.9973818,num_4,0.55,1.1,0.5,0.6,19.10275,22.9233,return,2.9685101,,,,,,,,,,,,,,,,,720,25,male,up_down_width,2024-08-29_10h34.03.935,exp1,2023.1.0,60.1592777
,,,,,,,,,,,,,,,,3,7.8,10,12.2,0,0,2.2,1.95,0.25,4.65,10,match,36.05,281,361,440,0,0,9,9,9,0,0,,,,,,,3,0,3,0,0,18,18,37,,,,,,,,,,,,num_3,0.9750109,num_3,0.55,1.1,0.2,0.85,7.6411,32.47468,return,3.328783,,,,,,,,,,,,,,,,,720,25,male,up_down_width,2024-08-29_10h34.03.935,exp1,2023.1.0,60.1592777
,,,,,,,,,,,,,,,,5,8.65,9.325,10,10.675,11.35,0.675,0.425,0.25,2.95,10,match,36.05,312,336,361,385,409,9,9,9,9,9,,,,,,,3,0,3,0,0,19,19,31,,,,,,,,,,,,num_4,0.8211362,num_4,0.4,0.7,0.2,0.5,7.6411,19.10275,return,4.1787396,,,,,,,,,,,,,,,,,720,25,male,up_down_width,2024-08-29_10h34.03.935,exp1,2023.1.0,60.1592777
,,,,,,,,,,,,,,,,3,9.1,10,10.9,0,0,0.9,0.5,0.4,2.2,10,initial,36.05,328,361,393,0,0,9,9,9,0,0,,,,,,,3,0,3,0,0,20,20,15,,,,,,,,,,,,num_3,0.9564178,num_3,0.35,1.3,0.25,0.7,9.55138,26.74385,return,3.3457686,,,,,,,,,,,,,,,,,720,25,male,up_down_width,2024-08-29_10h34.03.935,exp1,2023.1.0,60.1592777
,,,,,,,,,,,,,,,,4,9.1,9.7,10.3,10.9,0,0.6,0.35,0.25,2.05,10,match,36.05,328,350,371,393,0,9,9,9,9,0,,,,,,,3,0,3,0,0,21,21,14,,,,,,,,,,,,num_4,0.8443973,num_4,0.3,0.7,0.2,0.4,7.6411,15.2822,return,1.8633197,,,,,,,,,,,,,,,,,720,25,male,up_down_width,2024-08-29_10h34.03.935,exp1,2023.1.0,60.1592777
,,,,,,,,,,,,,,,,3,7.8,10,12.2,0,0,2.2,1.65,0.55,4.95,10,match,36.05,281,361,440,0,0,9,9,9,0,0,,,,,,,3,0,3,0,0,22,22,35,,,,,,,,,,,,num_3,1.1993766,num_3,0.5,0.8,0.35,1.65,13.37193,63.03908,return,3.8654287,,,,,,,,,,,,,,,,,720,25,male,up_down_width,2024-08-29_10h34.03.935,exp1,2023.1.0,60.1592777
,,,,,,,,,,,,,,,,5,8.2,9.1,10,10.9,11.8,0.9,0.5,0.4,4,10,initial,36.05,296,328,361,393,425,9,9,9,9,9,,,,,,,3,0,3,0,0,23,23,50,,,,,,,,,,,,num_4,0.8527774,num_4,0.4,1.2,0.2,0.5,7.6411,19.10275,return,2.5115737,,,,,,,,,,,,,,,,,720,25,male,up_down_width,2024-08-29_10h34.03.935,exp1,2023.1.0,60.1592777
,,,,,,,,,,,,,,,,5,8.35,9.175,10,10.825,11.65,0.825,0.575,0.25,3.55,10,match,36.05,301,331,361,390,420,9,9,9,9,9,,,,,,,3,0,3,0,0,24,24,20,,,,,,,,,,,,num_4,0.7344795,num_4,0.35,1.1,0.15,0.5,5.73083,19.10275,return,2.576439,,,,,,,,,,,,,,,,,720,25,male,up_down_width,2024-08-29_10h34.03.935,exp1,2023.1.0,60.1592777
,,,,,,,,,,,,,,,,3,8.9,10,11.1,0,0,1.1,0.85,0.25,2.45,10,initial,36.05,321,361,400,0,0,9,9,9,0,0,,,,,,,3,0,3,0,0,25,25,2,,,,,,,,,,,,num_3,0.7228005,num_3,0.2,0.6,0.2,0.7,7.6411,26.74385,return,1.6521345,,,,,,,,,,,,,,,,,720,25,male,up_down_width,2024-08-29_10h34.03.935,exp1,2023.1.0,60.1592777
,,,,,,,,,,,,,,,,4,8.9,9.633333333,10.36666667,11.1,0,0.733333333,0.183333333,0.55,2.75,10,match,36.05,321,347,374,400,0,9,9,9,9,0,,,,,,,3,0,3,0,0,26,26,1,,,,,,,,,,,,num_3,1.0717072,num_3,0.2,0.6,0.45,0.6,17.19248,22.9233,return,5.2167314,,,,,,,,,,,,,,,,,720,25,male,up_down_width,2024-08-29_10h34.03.935,exp1,2023.1.0,60.1592777
,,,,,,,,,,,,,,,,5,8.95,9.475,10,10.525,11.05,0.525,0.125,0.4,2.5,10,match,36.05,323,342,361,379,398,9,9,9,9,9,,,,,,,3,0,3,0,0,27,27,27,,,,,,,,,,,,num_4,0.9020503,num_4,0.55,1.3,0.3,0.4,11.46165,15.2822,return,3.8495825,,,,,,,,,,,,,,,,,720,25,male,up_down_width,2024-08-29_10h34.03.935,exp1,2023.1.0,60.1592777
,,,,,,,,,,,,,,,,4,9.3,9.766666667,10.23333333,10.7,0,0.466666667,0.066666667,0.4,1.8,10,match,36.05,335,352,369,386,0,9,9,9,9,0,,,,,,,3,0,3,0,0,28,28,10,,,,,,,,,,,,num_4,1.8279868,num_4,0.2,1.2,0.3,0.4,11.46165,15.2822,return,7.5717513,,,,,,,,,,,,,,,,,720,25,male,up_down_width,2024-08-29_10h34.03.935,exp1,2023.1.0,60.1592777
,,,,,,,,,,,,,,,,3,8.2,10,11.8,0,0,1.8,1.25,0.55,4.15,10,match,36.05,296,361,425,0,0,9,9,9,0,0,,,,,,,3,0,3,0,0,29,29,47,,,,,,,,,,,,num_3,0.903917,num_3,0.25,1.3,0.5,1.6,19.10275,61.12881,return,4.875434,,,,,,,,,,,,,,,,,720,25,male,up_down_width,2024-08-29_10h34.03.935,exp1,2023.1.0,60.1592777
,,,,,,,,,,,,,,,,3,8.6,10,11.4,0,0,1.4,1.15,0.25,3.05,10,match,36.05,310,361,411,0,0,9,9,9,0,0,,,,,,,3,0,3,0,0,30,30,43,,,,,,,,,,,,num_3,1.92892,num_3,0.3,1.2,0.3,1.45,11.46165,55.39798,return,1.7660468,,,,,,,,,,,,,,,,,720,25,male,up_down_width,2024-08-29_10h34.03.935,exp1,2023.1.0,60.1592777
,,,,,,,,,,,,,,,,4,9.1,9.7,10.3,10.9,0,0.6,0.05,0.55,2.35,10,match,36.05,328,350,371,393,0,9,9,9,9,0,,,,,,,3,0,3,0,0,31,31,12,,,,,,,,,,,,num_3,1.6593528,num_3,0.5,1,0.5,0.55,19.10275,21.01303,return,4.9677594,,,,,,,,,,,,,,,,,720,25,male,up_down_width,2024-08-29_10h34.03.935,exp1,2023.1.0,60.1592777
,,,,,,,,,,,,,,,,3,9.1,10,10.9,0,0,0.9,0.65,0.25,2.05,10,initial,36.05,328,361,393,0,0,9,9,9,0,0,,,,,,,3,0,3,0,0,32,32,13,,,,,,,,,,,,num_3,1.9064472,num_3,0.4,1.2,0.3,0.8,11.46165,30.5644,return,3.4389447,,,,,,,,,,,,,,,,,720,25,male,up_down_width,2024-08-29_10h34.03.935,exp1,2023.1.0,60.1592777
,,,,,,,,,,,,,,,,3,9.1,10,10.9,0,0,0.9,0.35,0.55,2.35,10,initial,36.05,328,361,393,0,0,9,9,9,0,0,,,,,,,3,0,3,0,0,33,33,11,,,,,,,,,,,,num_3,0.9785783,num_3,0.45,1.3,0.45,0.55,17.19248,21.01303,return,4.1326246,,,,,,,,,,,,,,,,,720,25,male,up_down_width,2024-08-29_10h34.03.935,exp1,2023.1.0,60.1592777
,,,,,,,,,,,,,,,,5,7.8,8.9,10,11.1,12.2,1.1,0.85,0.25,4.65,10,initial,36.05,281,321,361,400,440,9,9,9,9,9,,,,,,,3,0,3,0,0,34,34,36,,,,,,,,,,,,num_4,1.0738549,num_4,0.35,1.1,0.2,0.5,7.6411,19.10275,return,3.1386889,,,,,,,,,,,,,,,,,720,25,male,up_down_width,2024-08-29_10h34.03.935,exp1,2023.1.0,60.1592777
,,,,,,,,,,,,,,,,4,8.35,9.45,10.55,11.65,0,1.1,0.7,0.4,3.7,10,initial,36.05,301,341,380,420,0,9,9,9,9,0,,,,,,,3,0,3,0,0,35,35,21,,,,,,,,,,,,num_4,1.9181369,num_4,0.25,0.6,0.35,0.8,13.37193,30.5644,return,3.1954277,,,,,,,,,,,,,,,,,720,25,male,up_down_width,2024-08-29_10h34.03.935,exp1,2023.1.0,60.1592777
,,,,,,,,,,,,,,,,5,7.8,8.9,10,11.1,12.2,1.1,0.55,0.55,4.95,10,initial,36.05,281,321,361,400,440,9,9,9,9,9,,,,,,,3,0,3,0,0,36,36,34,,,,,,,,,,,,num_4,0.7708197,num_4,0.3,0.3,0.4,1.1,15.2822,42.02605,return,4.975142,,,,,,,,,,,,,,,,,720,25,male,up_down_width,2024-08-29_10h34.03.935,exp1,2023.1.0,60.1592777
,,,,,,,,,,,,,,,,3,9.3,10,10.7,0,0,0.7,0.3,0.4,1.8,10,initial,36.05,335,361,386,0,0,9,9,9,0,0,,,,,,,3,0,3,0,0,37,37,9,,,,,,,,,,,,num_3,0.8876218,num_3,0.35,0.6,0.35,0.6,13.37193,22.9233,return,1.1026327,,,,,,,,,,,,,,,,,720,25,male,up_down_width,2024-08-29_10h34.03.935,exp1,2023.1.0,60.1592777
,,,,,,,,,,,,,,,,4,8.65,9.55,10.45,11.35,0,0.9,0.65,0.25,2.95,10,initial,36.05,312,344,377,409,0,9,9,9,9,0,,,,,,,3,0,3,0,0,38,38,30,,,,,,,,,,,,num_4,1.4608429,num_4,0.4,0.9,0.25,0.6,9.55138,22.9233,return,4.2330903,,,,,,,,,,,,,,,,,720,25,male,up_down_width,2024-08-29_10h34.03.935,exp1,2023.1.0,60.1592777
,,,,,,,,,,,,,,,,5,8.35,9.175,10,10.825,11.65,0.825,0.275,0.55,3.85,10,match,36.05,301,331,361,390,420,9,9,9,9,9,,,,,,,3,0,3,0,0,39,39,18,,,,,,,,,,,,num_4,0.8934477,num_4,0.25,0.4,0.4,0.9,15.2822,34.38495,return,4.1338907,,,,,,,,,,,,,,,,,720,25,male,up_down_width,2024-08-29_10h34.03.935,exp1,2023.1.0,60.1592777
,,,,,,,,,,,,,,,,3,8.9,10,11.1,0,0,1.1,0.55,0.55,2.75,10,initial,36.05,321,361,400,0,0,9,9,9,0,0,,,,,,,3,0,3,0,0,40,40,0,,,,,,,,,,,,num_3,1.1944476,num_3,0.45,1,0.45,0.8,17.19248,30.5644,return,1.8916389,,,,,,,,,,,,,,,,,720,25,male,up_down_width,2024-08-29_10h34.03.935,exp1,2023.1.0,60.1592777
,,,,,,,,,,,,,,,,3,9.3,10,10.7,0,0,0.7,0.15,0.55,1.95,10,initial,36.05,335,361,386,0,0,9,9,9,0,0,,,,,,,3,0,3,0,0,41,41,6,,,,,,,,,,,,num_3,1.0179547,num_3,0.5,0.7,0.5,0.6,19.10275,22.9233,return,1.1153166,,,,,,,,,,,,,,,,,720,25,male,up_down_width,2024-08-29_10h34.03.935,exp1,2023.1.0,60.1592777
,,,,,,,,,,,,,,,,5,8.6,9.3,10,10.7,11.4,0.7,0.15,0.55,3.35,10,initial,36.05,310,335,361,386,411,9,9,9,9,9,,,,,,,3,0,3,0,0,42,42,40,,,,,,,,,,,,num_4,0.8752989,num_4,0.4,0.8,0.4,0.5,15.2822,19.10275,return,2.1185794,,,,,,,,,,,,,,,,,720,25,male,up_down_width,2024-08-29_10h34.03.935,exp1,2023.1.0,60.1592777
,,,,,,,,,,,,,,,,4,8.65,9.55,10.45,11.35,0,0.9,0.5,0.4,3.1,10,initial,36.05,312,344,377,409,0,9,9,9,9,0,,,,,,,3,0,3,0,0,43,43,32,,,,,,,,,,,,num_4,1.2325747,num_4,0.2,0.9,0.2,0.3,7.6411,11.46165,return,2.4582016,,,,,,,,,,,,,,,,,720,25,male,up_down_width,2024-08-29_10h34.03.935,exp1,2023.1.0,60.1592777
,,,,,,,,,,,,,,,,3,8.2,10,11.8,0,0,1.8,1.4,0.4,4,10,match,36.05,296,361,425,0,0,9,9,9,0,0,,,,,,,3,0,3,0,0,44,44,51,,,,,,,,,,,,num_3,0.8203952,num_3,0.5,1.1,0.2,1.2,7.6411,45.8466,return,3.8110705,,,,,,,,,,,,,,,,,720,25,male,up_down_width,2024-08-29_10h34.03.935,exp1,2023.1.0,60.1592777
,,,,,,,,,,,,,,,,4,8.35,9.45,10.55,11.65,0,1.1,0.55,0.55,3.85,10,initial,36.05,301,341,380,420,0,9,9,9,9,0,,,,,,,3,0,3,0,0,45,45,17,,,,,,,,,,,,num_4,1.8509134,num_4,0.5,0.8,0.25,0.6,9.55138,22.9233,return,6.201203,,,,,,,,,,,,,,,,,720,25,male,up_down_width,2024-08-29_10h34.03.935,exp1,2023.1.0,60.1592777
,,,,,,,,,,,,,,,,4,9.3,9.766666667,10.23333333,10.7,0,0.466666667,0.216666667,0.25,1.65,10,match,36.05,335,352,369,386,0,9,9,9,9,0,,,,,,,3,0,3,0,0,46,46,8,,,,,,,,,,,,num_4,1.786511,num_4,0.55,1.3,0.2,0.4,7.6411,15.2822,return,9.3708369,,,,,,,,,,,,,,,,,720,25,male,up_down_width,2024-08-29_10h34.03.935,exp1,2023.1.0,60.1592777
,,,,,,,,,,,,,,,,5,8.275,9.1375,10,10.8625,11.725,0.8625,0.6125,0.25,3.7,10,match,36.05,298,329,361,392,423,9,9,9,9,9,,,,,,,3,0,3,0,0,47,47,22,,,,,,,,,,,,num_4,0.8829199,num_4,0.35,1,0.2,0.5,7.6411,19.10275,return,4.2793454,,,,,,,,,,,,,,,,,720,25,male,up_down_width,2024-08-29_10h34.03.935,exp1,2023.1.0,60.1592777
,,,,,,,,,,,,,,,,5,8.65,9.325,10,10.675,11.35,0.675,0.275,0.4,3.1,10,match,36.05,312,336,361,385,409,9,9,9,9,9,,,,,,,3,0,3,0,0,48,48,33,,,,,,,,,,,,num_4,1.885245,num_4,0.25,0.3,0.25,0.7,9.55138,26.74385,return,1.7881853,,,,,,,,,,,,,,,,,720,25,male,up_down_width,2024-08-29_10h34.03.935,exp1,2023.1.0,60.1592777
,,,,,,,,,,,,,,,,4,8.95,9.65,10.35,11.05,0,0.7,0.15,0.55,2.65,10,initial,36.05,323,348,373,398,0,9,9,9,9,0,,,,,,,3,0,3,0,0,49,49,23,,,,,,,,,,,,num_4,0.8742756,num_4,0.25,0.4,0.3,0.5,11.46165,19.10275,return,3.6703734,,,,,,,,,,,,,,,,,720,25,male,up_down_width,2024-08-29_10h34.03.935,exp1,2023.1.0,60.1592777
,,,,,,,,,,,,,,,,5,8.6,9.3,10,10.7,11.4,0.7,0.3,0.4,3.2,10,initial,36.05,310,335,361,386,411,9,9,9,9,9,,,,,,,3,0,3,0,0,50,50,44,,,,,,,,,,,,num_5,2.2658931,num_5,0.5,0.7,0.3,0.45,11.46165,17.19248,return,3.342195,,,,,,,,,,,,,,,,,720,25,male,up_down_width,2024-08-29_10h34.03.935,exp1,2023.1.0,60.1592777
,,,,,,,,,,,,,,,,3,8.525,10,11.475,0,0,1.475,1.225,0.25,3.2,10,match,36.05,307,361,414,0,0,9,9,9,0,0,,,,,,,3,0,3,0,0,51,51,45,,,,,,,,,,,,num_3,0.8535441,num_3,0.35,1.2,0.25,1.35,9.55138,51.57743,return,2.4343238,,,,,,,,,,,,,,,,,720,25,male,up_down_width,2024-08-29_10h34.03.935,exp1,2023.1.0,60.1592777
,,,,,,,,,,,,,,,,,,,,,,,,,,,,,,,,,,,,,,,,,,,,,3,0,3,0,,,,,,,,,,,,,,,,,,,,,,,,,,,,,2283.257163,2283.257163,2283.257163,,,,,,,,,,,,720,25,male,up_down_width,2024-08-29_10h34.03.935,exp1,2023.1.0,60.1592777
,,,,,,,,,,,,,,,,4,8.9,9.633333333,10.36666667,11.1,0,0.733333333,0.483333333,0.25,2.45,10,match,36.05,321,347,374,400,0,9,9,9,9,0,,,,,,,4,0,4,0,0,0,0,3,,,,,,,,,,,,num_4,1.0382851,num_4,0.4,0.5,0.2,0.4,7.6411,15.2822,return,2.7667035,,,,,,,,,,,,,,,,,720,25,male,up_down_width,2024-08-29_10h34.03.935,exp1,2023.1.0,60.1592777
,,,,,,,,,,,,,,,,5,8.275,9.1375,10,10.8625,11.725,0.8625,0.6125,0.25,3.7,10,match,36.05,298,329,361,392,423,9,9,9,9,9,,,,,,,4,0,4,0,0,1,1,22,,,,,,,,,,,,num_4,0.798212,num_4,0.3,0.5,0.15,0.9,5.73083,34.38495,return,3.0015038,,,,,,,,,,,,,,,,,720,25,male,up_down_width,2024-08-29_10h34.03.935,exp1,2023.1.0,60.1592777
,,,,,,,,,,,,,,,,3,8.9,10,11.1,0,0,1.1,0.85,0.25,2.45,10,initial,36.05,321,361,400,0,0,9,9,9,0,0,,,,,,,4,0,4,0,0,2,2,2,,,,,,,,,,,,num_4,1.0736873,num_4,0.25,1,0.2,0.5,7.6411,19.10275,return,2.2433043,,,,,,,,,,,,,,,,,720,25,male,up_down_width,2024-08-29_10h34.03.935,exp1,2023.1.0,60.1592777
,,,,,,,,,,,,,,,,5,8.65,9.325,10,10.675,11.35,0.675,0.425,0.25,2.95,10,match,36.05,312,336,361,385,409,9,9,9,9,9,,,,,,,4,0,4,0,0,3,3,31,,,,,,,,,,,,num_5,1.7165474,num_5,0.35,0.6,0.15,0.5,5.73083,19.10275,return,2.2879829,,,,,,,,,,,,,,,,,720,25,male,up_down_width,2024-08-29_10h34.03.935,exp1,2023.1.0,60.1592777
,,,,,,,,,,,,,,,,3,9.1,10,10.9,0,0,0.9,0.65,0.25,2.05,10,initial,36.05,328,361,393,0,0,9,9,9,0,0,,,,,,,4,0,4,0,0,4,4,13,,,,,,,,,,,,num_3,0.8598613,num_3,0.2,1.3,0.2,0.55,7.6411,21.01303,return,3.0908217,,,,,,,,,,,,,,,,,720,25,male,up_down_width,2024-08-29_10h34.03.935,exp1,2023.1.0,60.1592777
,,,,,,,,,,,,,,,,5,8.65,9.325,10,10.675,11.35,0.675,0.275,0.4,3.1,10,match,36.05,312,336,361,385,409,9,9,9,9,9,,,,,,,4,0,4,0,0,5,5,33,,,,,,,,,,,,num_4,0.777645,num_4,0.5,0.6,0.25,0.5,9.55138,19.10275,return,4.5686916,,,,,,,,,,,,,,,,,720,25,male,up_down_width,2024-08-29_10h34.03.935,exp1,2023.1.0,60.1592777
,,,,,,,,,,,,,,,,4,9.1,9.7,10.3,10.9,0,0.6,0.35,0.25,2.05,10,match,36.05,328,350,371,393,0,9,9,9,9,0,,,,,,,4,0,4,0,0,6,6,14,,,,,,,,,,,,num_4,0.6603419,num_4,0.5,1.1,0.25,0.5,9.55138,19.10275,return,3.5530552,,,,,,,,,,,,,,,,,720,25,male,up_down_width,2024-08-29_10h34.03.935,exp1,2023.1.0,60.1592777
,,,,,,,,,,,,,,,,5,8.95,9.475,10,10.525,11.05,0.525,0.125,0.4,2.5,10,match,36.05,323,342,361,379,398,9,9,9,9,9,,,,,,,4,0,4,0,0,7,7,27,,,,,,,,,,,,num_4,1.937614,num_4,0.2,1.3,0.2,0.4,7.6411,15.2822,return,2.5256343,,,,,,,,,,,,,,,,,720,25,male,up_down_width,2024-08-29_10h34.03.935,exp1,2023.1.0,60.1592777
,,,,,,,,,,,,,,,,5,7.8,8.9,10,11.1,12.2,1.1,0.55,0.55,4.95,10,initial,36.05,281,321,361,400,440,9,9,9,9,9,,,,,,,4,0,4,0,0,8,8,34,,,,,,,,,,,,num_4,0.799534,num_4,0.4,1.1,0.4,0.7,15.2822,26.74385,return,1.8711478,,,,,,,,,,,,,,,,,720,25,male,up_down_width,2024-08-29_10h34.03.935,exp1,2023.1.0,60.1592777
,,,,,,,,,,,,,,,,5,7.8,8.9,10,11.1,12.2,1.1,0.85,0.25,4.65,10,initial,36.05,281,321,361,400,440,9,9,9,9,9,,,,,,,4,0,4,0,0,9,9,36,,,,,,,,,,,,num_5,1.3584242,num_5,0.4,0.8,0.25,0.65,9.55138,24.83358,return,2.654043,,,,,,,,,,,,,,,,,720,25,male,up_down_width,2024-08-29_10h34.03.935,exp1,2023.1.0,60.1592777
,,,,,,,,,,,,,,,,3,8.2,10,11.8,0,0,1.8,1.25,0.55,4.15,10,match,36.05,296,361,425,0,0,9,9,9,0,0,,,,,,,4,0,4,0,0,10,10,47,,,,,,,,,,,,num_3,0.8456902,num_3,0.35,1.2,0.35,1.45,13.37193,55.39798,return,1.9756502,,,,,,,,,,,,,,,,,720,25,male,up_down_width,2024-08-29_10h34.03.935,exp1,2023.1.0,60.1592777
,,,,,,,,,,,,,,,,4,8.65,9.55,10.45,11.35,0,0.9,0.5,0.4,3.1,10,initial,36.05,312,344,377,409,0,9,9,9,9,0,,,,,,,4,0,4,0,0,11,11,32,,,,,,,,,,,,num_3,2.6768,num_3,0.55,1.1,0.3,0.9,11.46165,34.38495,return,3.6372536,,,,,,,,,,,,,,,,,720,25,male,up_down_width,2024-08-29_10h34.03.935,exp1,2023.1.0,60.1592777
,,,,,,,,,,,,,,,,4,8.95,9.65,10.35,11.05,0,0.7,0.45,0.25,2.35,10,initial,36.05,323,348,373,398,0,9,9,9,9,0,,,,,,,4,0,4,0,0,12,12,24,,,,,,,,,,,,num_4,0.7981893,num_4,0.25,1.2,0.2,0.5,7.6411,19.10275,return,3.4184369,,,,,,,,,,,,,,,,,720,25,male,up_down_width,2024-08-29_10h34.03.935,exp1,2023.1.0,60.1592777
,,,,,,,,,,,,,,,,3,8.6,10,11.4,0,0,1.4,1.15,0.25,3.05,10,match,36.05,310,361,411,0,0,9,9,9,0,0,,,,,,,4,0,4,0,0,13,13,43,,,,,,,,,,,,num_3,0.9403899,num_3,0.35,0.6,0.2,0.85,7.6411,32.47468,return,2.4365383,,,,,,,,,,,,,,,,,720,25,male,up_down_width,2024-08-29_10h34.03.935,exp1,2023.1.0,60.1592777
,,,,,,,,,,,,,,,,4,8.35,9.45,10.55,11.65,0,1.1,0.7,0.4,3.7,10,initial,36.05,301,341,380,420,0,9,9,9,9,0,,,,,,,4,0,4,0,0,14,14,21,,,,,,,,,,,,num_4,0.859792,num_4,0.5,0.6,0.35,0.8,13.37193,30.5644,return,2.8823776,,,,,,,,,,,,,,,,,720,25,male,up_down_width,2024-08-29_10h34.03.935,exp1,2023.1.0,60.1592777
,,,,,,,,,,,,,,,,4,8.65,9.55,10.45,11.35,0,0.9,0.65,0.25,2.95,10,initial,36.05,312,344,377,409,0,9,9,9,9,0,,,,,,,4,0,4,0,0,15,15,30,,,,,,,,,,,,num_4,0.8455154,num_4,0.25,0.4,0.15,0.8,5.73083,30.5644,return,3.0944607,,,,,,,,,,,,,,,,,720,25,male,up_down_width,2024-08-29_10h34.03.935,exp1,2023.1.0,60.1592777
,,,,,,,,,,,,,,,,4,8.9,9.633333333,10.36666667,11.1,0,0.733333333,0.183333333,0.55,2.75,10,match,36.05,321,347,374,400,0,9,9,9,9,0,,,,,,,4,0,4,0,0,16,16,1,,,,,,,,,,,,num_4,0.9346038,num_4,0.3,0.4,0.3,0.7,11.46165,26.74385,return,1.3719262,,,,,,,,,,,,,,,,,720,25,male,up_down_width,2024-08-29_10h34.03.935,exp1,2023.1.0,60.1592777
,,,,,,,,,,,,,,,,4,8.825,9.608333333,10.39166667,11.175,0,0.783333333,0.533333333,0.25,2.6,10,match,36.05,318,346,375,403,0,9,9,9,9,0,,,,,,,4,0,4,0,0,17,17,5,,,,,,,,,,,,num_4,1.2810717,num_4,0.45,1,0.25,0.7,9.55138,26.74385,return,2.9412551,,,,,,,,,,,,,,,,,720,25,male,up_down_width,2024-08-29_10h34.03.935,exp1,2023.1.0,60.1592777
,,,,,,,,,,,,,,,,5,8.95,9.475,10,10.525,11.05,0.525,0.275,0.25,2.35,10,match,36.05,323,342,361,379,398,9,9,9,9,9,,,,,,,4,0,4,0,0,18,18,25,,,,,,,,,,,,num_4,0.814464,num_4,0.25,1,0.25,0.5,9.55138,19.10275,return,1.8932009,,,,,,,,,,,,,,,,,720,25,male,up_down_width,2024-08-29_10h34.03.935,exp1,2023.1.0,60.1592777
,,,,,,,,,,,,,,,,5,8.6,9.3,10,10.7,11.4,0.7,0.3,0.4,3.2,10,initial,36.05,310,335,361,386,411,9,9,9,9,9,,,,,,,4,0,4,0,0,19,19,44,,,,,,,,,,,,num_5,0.9204316,num_5,0.3,0.4,0.3,0.6,11.46165,22.9233,return,1.4593631,,,,,,,,,,,,,,,,,720,25,male,up_down_width,2024-08-29_10h34.03.935,exp1,2023.1.0,60.1592777
,,,,,,,,,,,,,,,,4,9.1,9.7,10.3,10.9,0,0.6,0.2,0.4,2.2,10,match,36.05,328,350,371,393,0,9,9,9,9,0,,,,,,,4,0,4,0,0,20,20,16,,,,,,,,,,,,num_4,0.9842611,num_4,0.55,1.3,0.35,0.5,13.37193,19.10275,return,2.9379135,,,,,,,,,,,,,,,,,720,25,male,up_down_width,2024-08-29_10h34.03.935,exp1,2023.1.0,60.1592777
,,,,,,,,,,,,,,,,5,7.8,8.9,10,11.1,12.2,1.1,0.7,0.4,4.8,10,initial,36.05,281,321,361,400,440,9,9,9,9,9,,,,,,,4,0,4,0,0,21,21,38,,,,,,,,,,,,num_4,1.4849827,num_4,0.4,1.2,0.3,0.7,11.46165,26.74385,return,2.624795,,,,,,,,,,,,,,,,,720,25,male,up_down_width,2024-08-29_10h34.03.935,exp1,2023.1.0,60.1592777
,,,,,,,,,,,,,,,,4,9.3,9.766666667,10.23333333,10.7,0,0.466666667,0.066666667,0.4,1.8,10,match,36.05,335,352,369,386,0,9,9,9,9,0,,,,,,,4,0,4,0,0,22,22,10,,,,,,,,,,,,num_4,1.0659414,num_4,0.4,1.3,0.25,0.3,9.55138,11.46165,return,3.6748812,,,,,,,,,,,,,,,,,720,25,male,up_down_width,2024-08-29_10h34.03.935,exp1,2023.1.0,60.1592777
,,,,,,,,,,,,,,,,3,7.8,10,12.2,0,0,2.2,1.95,0.25,4.65,10,match,36.05,281,361,440,0,0,9,9,9,0,0,,,,,,,4,0,4,0,0,23,23,37,,,,,,,,,,,,num_3,0.8460946,num_3,0.3,1.1,0.25,1.85,9.55138,70.68018,return,4.1067329,,,,,,,,,,,,,,,,,720,25,male,up_down_width,2024-08-29_10h34.03.935,exp1,2023.1.0,60.1592777
,,,,,,,,,,,,,,,,3,9.3,10,10.7,0,0,0.7,0.3,0.4,1.8,10,initial,36.05,335,361,386,0,0,9,9,9,0,0,,,,,,,4,0,4,0,0,24,24,9,,,,,,,,,,,,num_3,1.2901994,num_3,0.45,1.1,0.25,0.35,9.55138,13.37193,return,5.584624,,,,,,,,,,,,,,,,,720,25,male,up_down_width,2024-08-29_10h34.03.935,exp1,2023.1.0,60.1592777
,,,,,,,,,,,,,,,,3,8.2,10,11.8,0,0,1.8,1.4,0.4,4,10,match,36.05,296,361,425,0,0,9,9,9,0,0,,,,,,,4,0,4,0,0,25,25,51,,,,,,,,,,,,num_3,1.1267731,num_3,0.3,0.5,0.35,0.95,13.37193,36.29523,return,3.0268992,,,,,,,,,,,,,,,,,720,25,male,up_down_width,2024-08-29_10h34.03.935,exp1,2023.1.0,60.1592777
,,,,,,,,,,,,,,,,4,8.35,9.45,10.55,11.65,0,1.1,0.85,0.25,3.55,10,initial,36.05,301,341,380,420,0,9,9,9,9,0,,,,,,,4,0,4,0,0,26,26,19,,,,,,,,,,,,num_4,1.1596526,num_4,0.4,0.9,0.2,0.6,7.6411,22.9233,return,2.1788325,,,,,,,,,,,,,,,,,720,25,male,up_down_width,2024-08-29_10h34.03.935,exp1,2023.1.0,60.1592777
,,,,,,,,,,,,,,,,4,8.95,9.65,10.35,11.05,0,0.7,0.3,0.4,2.5,10,initial,36.05,323,348,373,398,0,9,9,9,9,0,,,,,,,4,0,4,0,0,27,27,26,,,,,,,,,,,,num_4,0.8830428,num_4,0.2,1,0.3,0.5,11.46165,19.10275,return,2.5264223,,,,,,,,,,,,,,,,,720,25,male,up_down_width,2024-08-29_10h34.03.935,exp1,2023.1.0,60.1592777
,,,,,,,,,,,,,,,,5,8.35,9.175,10,10.825,11.65,0.825,0.275,0.55,3.85,10,match,36.05,301,331,361,390,420,9,9,9,9,9,,,,,,,4,0,4,0,0,28,28,18,,,,,,,,,,,,num_4,0.8071771,num_4,0.3,1.3,0.3,0.5,11.46165,19.10275,return,2.8208327,,,,,,,,,,,,,,,,,720,25,male,up_down_width,2024-08-29_10h34.03.935,exp1,2023.1.0,60.1592777
,,,,,,,,,,,,,,,,4,8.95,9.65,10.35,11.05,0,0.7,0.15,0.55,2.65,10,initial,36.05,323,348,373,398,0,9,9,9,9,0,,,,,,,4,0,4,0,0,29,29,23,,,,,,,,,,,,num_4,2.8612752,num_4,0.3,0.8,0.4,0.5,15.2822,19.10275,return,4.7069922,,,,,,,,,,,,,,,,,720,25,male,up_down_width,2024-08-29_10h34.03.935,exp1,2023.1.0,60.1592777
,,,,,,,,,,,,,,,,3,7.8,10,12.2,0,0,2.2,1.8,0.4,4.8,10,match,36.05,281,361,440,0,0,9,9,9,0,0,,,,,,,4,0,4,0,0,30,30,39,,,,,,,,,,,,num_3,0.8639265,num_3,0.35,1.2,0.35,1.95,13.37193,74.50073,return,3.5967058,,,,,,,,,,,,,,,,,720,25,male,up_down_width,2024-08-29_10h34.03.935,exp1,2023.1.0,60.1592777
,,,,,,,,,,,,,,,,4,8.65,9.55,10.45,11.35,0,0.9,0.35,0.55,3.25,10,initial,36.05,312,344,377,409,0,9,9,9,9,0,,,,,,,4,0,4,0,0,31,31,28,,,,,,,,,,,,num_4,0.952959,num_4,0.35,0.5,0.45,0.7,17.19248,26.74385,return,3.1505328,,,,,,,,,,,,,,,,,720,25,male,up_down_width,2024-08-29_10h34.03.935,exp1,2023.1.0,60.1592777
,,,,,,,,,,,,,,,,3,9.1,10,10.9,0,0,0.9,0.5,0.4,2.2,10,initial,36.05,328,361,393,0,0,9,9,9,0,0,,,,,,,4,0,4,0,0,32,32,15,,,,,,,,,,,,num_3,0.913128,num_3,0.4,1.1,0.35,0.7,13.37193,26.74385,return,3.0477501,,,,,,,,,,,,,,,,,720,25,male,up_down_width,2024-08-29_10h34.03.935,exp1,2023.1.0,60.1592777
,,,,,,,,,,,,,,,,3,9.3,10,10.7,0,0,0.7,0.15,0.55,1.95,10,initial,36.05,335,361,386,0,0,9,9,9,0,0,,,,,,,4,0,4,0,0,33,33,6,,,,,,,,,,,,num_3,0.8895072,num_3,0.3,1.1,0.3,0.45,11.46165,17.19248,return,3.3492272,,,,,,,,,,,,,,,,,720,25,male,up_down_width,2024-08-29_10h34.03.935,exp1,2023.1.0,60.1592777
,,,,,,,,,,,,,,,,5,8.2,9.1,10,10.9,11.8,0.9,0.65,0.25,3.85,10,initial,36.05,296,328,361,393,425,9,9,9,9,9,,,,,,,4,0,4,0,0,34,34,48,,,,,,,,,,,,num_5,3.618173,num_5,0.55,1,0.25,0.6,9.55138,22.9233,return,3.6113438,,,,,,,,,,,,,,,,,720,25,male,up_down_width,2024-08-29_10h34.03.935,exp1,2023.1.0,60.1592777
,,,,,,,,,,,,,,,,5,8.2,9.1,10,10.9,11.8,0.9,0.5,0.4,4,10,initial,36.05,296,328,361,393,425,9,9,9,9,9,,,,,,,4,0,4,0,0,35,35,50,,,,,,,,,,,,num_4,0.9656674,num_4,0.2,0.6,0.35,0.9,13.37193,34.38495,return,3.2302099,,,,,,,,,,,,,,,,,720,25,male,up_down_width,2024-08-29_10h34.03.935,exp1,2023.1.0,60.1592777
,,,,,,,,,,,,,,,,5,8.35,9.175,10,10.825,11.65,0.825,0.575,0.25,3.55,10,match,36.05,301,331,361,390,420,9,9,9,9,9,,,,,,,4,0,4,0,0,36,36,20,,,,,,,,,,,,num_5,1.6017867,num_5,0.45,0.5,0.2,0.6,7.6411,22.9233,return,5.9326257,,,,,,,,,,,,,,,,,720,25,male,up_down_width,2024-08-29_10h34.03.935,exp1,2023.1.0,60.1592777
,,,,,,,,,,,,,,,,4,8.35,9.45,10.55,11.65,0,1.1,0.55,0.55,3.85,10,initial,36.05,301,341,380,420,0,9,9,9,9,0,,,,,,,4,0,4,0,0,37,37,17,,,,,,,,,,,,num_4,1.3018471,num_4,0.2,1,0.35,0.8,13.37193,30.5644,return,3.9962933,,,,,,,,,,,,,,,,,720,25,male,up_down_width,2024-08-29_10h34.03.935,exp1,2023.1.0,60.1592777
,,,,,,,,,,,,,,,,5,8.6,9.3,10,10.7,11.4,0.7,0.45,0.25,3.05,10,initial,36.05,310,335,361,386,411,9,9,9,9,9,,,,,,,4,0,4,0,0,38,38,42,,,,,,,,,,,,num_4,1.1982605,num_4,0.4,1.3,0.3,1.1,11.46165,42.02605,return,2.5696656,,,,,,,,,,,,,,,,,720,25,male,up_down_width,2024-08-29_10h34.03.935,exp1,2023.1.0,60.1592777
,,,,,,,,,,,,,,,,3,7.8,10,12.2,0,0,2.2,1.65,0.55,4.95,10,match,36.05,281,361,440,0,0,9,9,9,0,0,,,,,,,4,0,4,0,0,39,39,35,,,,,,,,,,,,num_3,1.6091501,num_3,0.45,0.8,0.35,1.5,13.37193,57.30826,return,4.2109492,,,,,,,,,,,,,,,,,720,25,male,up_down_width,2024-08-29_10h34.03.935,exp1,2023.1.0,60.1592777
,,,,,,,,,,,,,,,,5,8.2,9.1,10,10.9,11.8,0.9,0.35,0.55,4.15,10,initial,36.05,296,328,361,393,425,9,9,9,9,9,,,,,,,4,0,4,0,0,40,40,46,,,,,,,,,,,,num_5,2.585148,num_5,0.4,1,0.35,0.7,13.37193,26.74385,return,2.6228211,,,,,,,,,,,,,,,,,720,25,male,up_down_width,2024-08-29_10h34.03.935,exp1,2023.1.0,60.1592777
,,,,,,,,,,,,,,,,3,8.525,10,11.475,0,0,1.475,1.225,0.25,3.2,10,match,36.05,307,361,414,0,0,9,9,9,0,0,,,,,,,4,0,4,0,0,41,41,45,,,,,,,,,,,,num_3,0.9201538,num_3,0.55,0.7,0.25,0.9,9.55138,34.38495,return,3.4680725,,,,,,,,,,,,,,,,,720,25,male,up_down_width,2024-08-29_10h34.03.935,exp1,2023.1.0,60.1592777
,,,,,,,,,,,,,,,,3,8.6,10,11.4,0,0,1.4,0.85,0.55,3.35,10,match,36.05,310,361,411,0,0,9,9,9,0,0,,,,,,,4,0,4,0,0,42,42,41,,,,,,,,,,,,num_3,1.2684173,num_3,0.25,1.2,0.35,0.85,13.37193,32.47468,return,2.8481259,,,,,,,,,,,,,,,,,720,25,male,up_down_width,2024-08-29_10h34.03.935,exp1,2023.1.0,60.1592777
,,,,,,,,,,,,,,,,4,9.1,9.7,10.3,10.9,0,0.6,0.05,0.55,2.35,10,match,36.05,328,350,371,393,0,9,9,9,9,0,,,,,,,4,0,4,0,0,43,43,12,,,,,,,,,,,,num_4,1.2690651,num_4,0.25,0.5,0.3,0.4,11.46165,15.2822,return,3.5585879,,,,,,,,,,,,,,,,,720,25,male,up_down_width,2024-08-29_10h34.03.935,exp1,2023.1.0,60.1592777
,,,,,,,,,,,,,,,,5,8.6,9.3,10,10.7,11.4,0.7,0.15,0.55,3.35,10,initial,36.05,310,335,361,386,411,9,9,9,9,9,,,,,,,4,0,4,0,0,44,44,40,,,,,,,,,,,,num_4,1.056409,num_4,0.5,0.9,0.4,0.5,15.2822,19.10275,return,2.7812631,,,,,,,,,,,,,,,,,720,25,male,up_down_width,2024-08-29_10h34.03.935,exp1,2023.1.0,60.1592777
,,,,,,,,,,,,,,,,3,8.9,10,11.1,0,0,1.1,0.55,0.55,2.75,10,initial,36.05,321,361,400,0,0,9,9,9,0,0,,,,,,,4,0,4,0,0,45,45,0,,,,,,,,,,,,num_3,0.9099187,num_3,0.25,0.9,0.45,0.55,17.19248,21.01303,return,3.5596876,,,,,,,,,,,,,,,,,720,25,male,up_down_width,2024-08-29_10h34.03.935,exp1,2023.1.0,60.1592777
,,,,,,,,,,,,,,,,5,8.65,9.325,10,10.675,11.35,0.675,0.125,0.55,3.25,10,match,36.05,312,336,361,385,409,9,9,9,9,9,,,,,,,4,0,4,0,0,46,46,29,,,,,,,,,,,,num_4,1.3091765,num_4,0.5,1.2,0.45,0.6,17.19248,22.9233,return,4.6889539,,,,,,,,,,,,,,,,,720,25,male,up_down_width,2024-08-29_10h34.03.935,exp1,2023.1.0,60.1592777
,,,,,,,,,,,,,,,,3,8.2,10,11.8,0,0,1.8,1.55,0.25,3.85,10,match,36.05,296,361,425,0,0,9,9,9,0,0,,,,,,,4,0,4,0,0,47,47,49,,,,,,,,,,,,num_3,0.9753559,num_3,0.45,1.2,0.2,2.3,7.6411,87.87266,return,4.9994255,,,,,,,,,,,,,,,,,720,25,male,up_down_width,2024-08-29_10h34.03.935,exp1,2023.1.0,60.1592777
,,,,,,,,,,,,,,,,3,9.3,10,10.7,0,0,0.7,0.45,0.25,1.65,10,initial,36.05,335,361,386,0,0,9,9,9,0,0,,,,,,,4,0,4,0,0,48,48,7,,,,,,,,,,,,num_3,1.13639,num_3,0.35,0.9,0.15,0.5,5.73083,19.10275,return,2.7486967,,,,,,,,,,,,,,,,,720,25,male,up_down_width,2024-08-29_10h34.03.935,exp1,2023.1.0,60.1592777
,,,,,,,,,,,,,,,,3,9.1,10,10.9,0,0,0.9,0.35,0.55,2.35,10,initial,36.05,328,361,393,0,0,9,9,9,0,0,,,,,,,4,0,4,0,0,49,49,11,,,,,,,,,,,,num_3,0.9507123,num_3,0.5,1.2,0.5,0.65,19.10275,24.83358,return,2.766273,,,,,,,,,,,,,,,,,720,25,male,up_down_width,2024-08-29_10h34.03.935,exp1,2023.1.0,60.1592777
,,,,,,,,,,,,,,,,3,8.9,10,11.1,0,0,1.1,0.7,0.4,2.6,10,initial,36.05,321,361,400,0,0,9,9,9,0,0,,,,,,,4,0,4,0,0,50,50,4,,,,,,,,,,,,num_3,0.935298,num_3,0.25,0.6,0.25,0.75,9.55138,28.65413,return,2.0414811,,,,,,,,,,,,,,,,,720,25,male,up_down_width,2024-08-29_10h34.03.935,exp1,2023.1.0,60.1592777
,,,,,,,,,,,,,,,,4,9.3,9.766666667,10.23333333,10.7,0,0.466666667,0.216666667,0.25,1.65,10,match,36.05,335,352,369,386,0,9,9,9,9,0,,,,,,,4,0,4,0,0,51,51,8,,,,,,,,,,,,num_4,1.5709852,num_4,0.25,1.1,0.25,0.4,9.55138,15.2822,return,1.9698971,,,,,,,,,,,,,,,,,720,25,male,up_down_width,2024-08-29_10h34.03.935,exp1,2023.1.0,60.1592777
,,,,,,,,,,,,,,,,,,,,,,,,,,,,,,,,,,,,,,,,,,,,,4,0,4,0,,,,,,,,,,,,,,,,,,,,,,,,,,,,,2702.424152,2702.424152,2702.424152,,,,,,,,,,,,720,25,male,up_down_width,2024-08-29_10h34.03.935,exp1,2023.1.0,60.1592777
,,,,,,,,,,,,,,,,3,7.8,10,12.2,0,0,2.2,1.95,0.25,4.65,10,match,36.05,281,361,440,0,0,9,9,9,0,0,,,,,,,5,0,5,0,0,0,0,37,,,,,,,,,,,,num_3,1.2798545,num_3,0.25,1.3,0.2,1.85,7.6411,70.68018,return,3.0633482,,,,,,,,,,,,,,,,,720,25,male,up_down_width,2024-08-29_10h34.03.935,exp1,2023.1.0,60.1592777
,,,,,,,,,,,,,,,,4,9.1,9.7,10.3,10.9,0,0.6,0.2,0.4,2.2,10,match,36.05,328,350,371,393,0,9,9,9,9,0,,,,,,,5,0,5,0,0,1,1,16,,,,,,,,,,,,num_4,0.8423638,num_4,0.3,0.8,0.3,0.4,11.46165,15.2822,return,1.3478447,,,,,,,,,,,,,,,,,720,25,male,up_down_width,2024-08-29_10h34.03.935,exp1,2023.1.0,60.1592777
,,,,,,,,,,,,,,,,3,9.3,10,10.7,0,0,0.7,0.45,0.25,1.65,10,initial,36.05,335,361,386,0,0,9,9,9,0,0,,,,,,,5,0,5,0,0,2,2,7,,,,,,,,,,,,num_3,0.8631053,num_3,0.35,1.2,0.25,0.6,9.55138,22.9233,return,2.9186531,,,,,,,,,,,,,,,,,720,25,male,up_down_width,2024-08-29_10h34.03.935,exp1,2023.1.0,60.1592777
,,,,,,,,,,,,,,,,3,8.6,10,11.4,0,0,1.4,1.15,0.25,3.05,10,match,36.05,310,361,411,0,0,9,9,9,0,0,,,,,,,5,0,5,0,0,3,3,43,,,,,,,,,,,,num_3,0.9572658,num_3,0.2,0.4,0.2,1.2,7.6411,45.8466,return,3.6808305,,,,,,,,,,,,,,,,,720,25,male,up_down_width,2024-08-29_10h34.03.935,exp1,2023.1.0,60.1592777
,,,,,,,,,,,,,,,,5,8.6,9.3,10,10.7,11.4,0.7,0.15,0.55,3.35,10,initial,36.05,310,335,361,386,411,9,9,9,9,9,,,,,,,5,0,5,0,0,4,4,40,,,,,,,,,,,,num_5,1.7121984,num_5,0.35,1,0.25,0.45,9.55138,17.19248,return,4.1677783,,,,,,,,,,,,,,,,,720,25,male,up_down_width,2024-08-29_10h34.03.935,exp1,2023.1.0,60.1592777
,,,,,,,,,,,,,,,,3,8.2,10,11.8,0,0,1.8,1.55,0.25,3.85,10,match,36.05,296,361,425,0,0,9,9,9,0,0,,,,,,,5,0,5,0,0,5,5,49,,,,,,,,,,,,num_3,1.3970648,num_3,0.25,0.9,0.2,1.5,7.6411,57.30826,return,3.7711157,,,,,,,,,,,,,,,,,720,25,male,up_down_width,2024-08-29_10h34.03.935,exp1,2023.1.0,60.1592777
,,,,,,,,,,,,,,,,5,8.2,9.1,10,10.9,11.8,0.9,0.5,0.4,4,10,initial,36.05,296,328,361,393,425,9,9,9,9,9,,,,,,,5,0,5,0,0,6,6,50,,,,,,,,,,,,num_5,1.9765183,num_5,0.4,0.8,0.25,0.5,9.55138,19.10275,return,2.4232857,,,,,,,,,,,,,,,,,720,25,male,up_down_width,2024-08-29_10h34.03.935,exp1,2023.1.0,60.1592777
,,,,,,,,,,,,,,,,4,8.9,9.633333333,10.36666667,11.1,0,0.733333333,0.183333333,0.55,2.75,10,match,36.05,321,347,374,400,0,9,9,9,9,0,,,,,,,5,0,5,0,0,7,7,1,,,,,,,,,,,,num_3,1.3798274,num_3,0.2,0.5,0.45,0.95,17.19248,36.29523,return,5.4145724,,,,,,,,,,,,,,,,,720,25,male,up_down_width,2024-08-29_10h34.03.935,exp1,2023.1.0,60.1592777
,,,,,,,,,,,,,,,,3,8.2,10,11.8,0,0,1.8,1.4,0.4,4,10,match,36.05,296,361,425,0,0,9,9,9,0,0,,,,,,,5,0,5,0,0,8,8,51,,,,,,,,,,,,num_3,0.9231192,num_3,0.5,0.8,0.25,1,9.55138,38.2055,return,3.2650728,,,,,,,,,,,,,,,,,720,25,male,up_down_width,2024-08-29_10h34.03.935,exp1,2023.1.0,60.1592777
,,,,,,,,,,,,,,,,5,7.8,8.9,10,11.1,12.2,1.1,0.85,0.25,4.65,10,initial,36.05,281,321,361,400,440,9,9,9,9,9,,,,,,,5,0,5,0,0,9,9,36,,,,,,,,,,,,num_4,1.0119647,num_4,0.35,1.1,0.2,0.8,7.6411,30.5644,return,2.1325019,,,,,,,,,,,,,,,,,720,25,male,up_down_width,2024-08-29_10h34.03.935,exp1,2023.1.0,60.1592777
,,,,,,,,,,,,,,,,3,9.3,10,10.7,0,0,0.7,0.15,0.55,1.95,10,initial,36.05,335,361,386,0,0,9,9,9,0,0,,,,,,,5,0,5,0,0,10,10,6,,,,,,,,,,,,num_3,0.8914827,num_3,0.2,1,0.45,0.7,17.19248,26.74385,return,3.8092543,,,,,,,,,,,,,,,,,720,25,male,up_down_width,2024-08-29_10h34.03.935,exp1,2023.1.0,60.1592777
,,,,,,,,,,,,,,,,4,9.1,9.7,10.3,10.9,0,0.6,0.35,0.25,2.05,10,match,36.05,328,350,371,393,0,9,9,9,9,0,,,,,,,5,0,5,0,0,11,11,14,,,,,,,,,,,,num_4,0.7527655,num_4,0.4,0.9,0.2,0.5,7.6411,19.10275,return,2.2897756,,,,,,,,,,,,,,,,,720,25,male,up_down_width,2024-08-29_10h34.03.935,exp1,2023.1.0,60.1592777
,,,,,,,,,,,,,,,,4,8.65,9.55,10.45,11.35,0,0.9,0.65,0.25,2.95,10,initial,36.05,312,344,377,409,0,9,9,9,9,0,,,,,,,5,0,5,0,0,12,12,30,,,,,,,,,,,,num_4,0.8030757,num_4,0.5,0.6,0.15,0.6,5.73083,22.9233,return,5.199103,,,,,,,,,,,,,,,,,720,25,male,up_down_width,2024-08-29_10h34.03.935,exp1,2023.1.0,60.1592777
,,,,,,,,,,,,,,,,4,8.95,9.65,10.35,11.05,0,0.7,0.3,0.4,2.5,10,initial,36.05,323,348,373,398,0,9,9,9,9,0,,,,,,,5,0,5,0,0,13,13,26,,,,,,,,,,,,num_4,4.0112772,num_4,0.4,1.1,0.25,0.5,9.55138,19.10275,return,2.5949596,,,,,,,,,,,,,,,,,720,25,male,up_down_width,2024-08-29_10h34.03.935,exp1,2023.1.0,60.1592777
,,,,,,,,,,,,,,,,3,9.1,10,10.9,0,0,0.9,0.35,0.55,2.35,10,initial,36.05,328,361,393,0,0,9,9,9,0,0,,,,,,,5,0,5,0,0,14,14,11,,,,,,,,,,,,num_4,1.0765443,num_4,0.5,1,0.35,0.6,13.37193,22.9233,return,2.48556,,,,,,,,,,,,,,,,,720,25,male,up_down_width,2024-08-29_10h34.03.935,exp1,2023.1.0,60.1592777
,,,,,,,,,,,,,,,,3,9.1,10,10.9,0,0,0.9,0.65,0.25,2.05,10,initial,36.05,328,361,393,0,0,9,9,9,0,0,,,,,,,5,0,5,0,0,15,15,13,,,,,,,,,,,,num_4,1.7592311,num_4,0.25,0.4,0.15,0.6,5.73083,22.9233,return,3.6652846,,,,,,,,,,,,,,,,,720,25,male,up_down_width,2024-08-29_10h34.03.935,exp1,2023.1.0,60.1592777
,,,,,,,,,,,,,,,,5,8.65,9.325,10,10.675,11.35,0.675,0.125,0.55,3.25,10,match,36.05,312,336,361,385,409,9,9,9,9,9,,,,,,,5,0,5,0,0,16,16,29,,,,,,,,,,,,num_4,1.6388858,num_4,0.45,0.8,0.3,0.5,11.46165,19.10275,return,2.2127987,,,,,,,,,,,,,,,,,720,25,male,up_down_width,2024-08-29_10h34.03.935,exp1,2023.1.0,60.1592777
,,,,,,,,,,,,,,,,3,8.525,10,11.475,0,0,1.475,1.225,0.25,3.2,10,match,36.05,307,361,414,0,0,9,9,9,0,0,,,,,,,5,0,5,0,0,17,17,45,,,,,,,,,,,,num_3,0.920775,num_3,0.25,1.2,0.2,1.45,7.6411,55.39798,return,2.5600163,,,,,,,,,,,,,,,,,720,25,male,up_down_width,2024-08-29_10h34.03.935,exp1,2023.1.0,60.1592777
,,,,,,,,,,,,,,,,4,9.3,9.766666667,10.23333333,10.7,0,0.466666667,0.216666667,0.25,1.65,10,match,36.05,335,352,369,386,0,9,9,9,9,0,,,,,,,5,0,5,0,0,18,18,8,,,,,,,,,,,,num_4,4.1324557,num_4,0.45,1.2,0.2,0.5,7.6411,19.10275,return,3.005331,,,,,,,,,,,,,,,,,720,25,male,up_down_width,2024-08-29_10h34.03.935,exp1,2023.1.0,60.1592777
,,,,,,,,,,,,,,,,5,8.65,9.325,10,10.675,11.35,0.675,0.275,0.4,3.1,10,match,36.05,312,336,361,385,409,9,9,9,9,9,,,,,,,5,0,5,0,0,19,19,33,,,,,,,,,,,,num_5,4.0862175,num_5,0.25,1,0.2,0.45,7.6411,17.19248,return,3.7601346,,,,,,,,,,,,,,,,,720,25,male,up_down_width,2024-08-29_10h34.03.935,exp1,2023.1.0,60.1592777
,,,,,,,,,,,,,,,,4,8.65,9.55,10.45,11.35,0,0.9,0.35,0.55,3.25,10,initial,36.05,312,344,377,409,0,9,9,9,9,0,,,,,,,5,0,5,0,0,20,20,28,,,,,,,,,,,,num_4,1.0262851,num_4,0.45,1.2,0.25,0.6,9.55138,22.9233,return,2.8809227,,,,,,,,,,,,,,,,,720,25,male,up_down_width,2024-08-29_10h34.03.935,exp1,2023.1.0,60.1592777
,,,,,,,,,,,,,,,,4,8.65,9.55,10.45,11.35,0,0.9,0.5,0.4,3.1,10,initial,36.05,312,344,377,409,0,9,9,9,9,0,,,,,,,5,0,5,0,0,21,21,32,,,,,,,,,,,,num_4,0.8065254,num_4,0.3,0.7,0.25,0.4,9.55138,15.2822,return,2.549086,,,,,,,,,,,,,,,,,720,25,male,up_down_width,2024-08-29_10h34.03.935,exp1,2023.1.0,60.1592777
,,,,,,,,,,,,,,,,4,8.9,9.633333333,10.36666667,11.1,0,0.733333333,0.483333333,0.25,2.45,10,match,36.05,321,347,374,400,0,9,9,9,9,0,,,,,,,5,0,5,0,0,22,22,3,,,,,,,,,,,,num_4,0.823764,num_4,0.2,1.2,0.2,0.8,7.6411,30.5644,return,2.7405001,,,,,,,,,,,,,,,,,720,25,male,up_down_width,2024-08-29_10h34.03.935,exp1,2023.1.0,60.1592777
,,,,,,,,,,,,,,,,3,7.8,10,12.2,0,0,2.2,1.65,0.55,4.95,10,match,36.05,281,361,440,0,0,9,9,9,0,0,,,,,,,5,0,5,0,0,23,23,35,,,,,,,,,,,,num_4,1.60969,num_4,0.25,0.4,0.2,1.2,7.6411,45.8466,return,2.9902672,,,,,,,,,,,,,,,,,720,25,male,up_down_width,2024-08-29_10h34.03.935,exp1,2023.1.0,60.1592777
,,,,,,,,,,,,,,,,5,8.65,9.325,10,10.675,11.35,0.675,0.425,0.25,2.95,10,match,36.05,312,336,361,385,409,9,9,9,9,9,,,,,,,5,0,5,0,0,24,24,31,,,,,,,,,,,,num_4,0.9136174,num_4,0.5,0.8,0.25,1.5,9.55138,57.30826,return,2.7792851,,,,,,,,,,,,,,,,,720,25,male,up_down_width,2024-08-29_10h34.03.935,exp1,2023.1.0,60.1592777
,,,,,,,,,,,,,,,,4,8.35,9.45,10.55,11.65,0,1.1,0.7,0.4,3.7,10,initial,36.05,301,341,380,420,0,9,9,9,9,0,,,,,,,5,0,5,0,0,25,25,21,,,,,,,,,,,,num_4,1.1297226,num_4,0.55,0.7,0.2,1.2,7.6411,45.8466,return,2.5826747,,,,,,,,,,,,,,,,,720,25,male,up_down_width,2024-08-29_10h34.03.935,exp1,2023.1.0,60.1592777
,,,,,,,,,,,,,,,,4,9.3,9.766666667,10.23333333,10.7,0,0.466666667,0.066666667,0.4,1.8,10,match,36.05,335,352,369,386,0,9,9,9,9,0,,,,,,,5,0,5,0,0,26,26,10,,,,,,,,,,,,num_4,0.9075086,num_4,0.25,0.7,0.25,0.4,9.55138,15.2822,return,3.1214485,,,,,,,,,,,,,,,,,720,25,male,up_down_width,2024-08-29_10h34.03.935,exp1,2023.1.0,60.1592777
,,,,,,,,,,,,,,,,3,8.9,10,11.1,0,0,1.1,0.7,0.4,2.6,10,initial,36.05,321,361,400,0,0,9,9,9,0,0,,,,,,,5,0,5,0,0,27,27,4,,,,,,,,,,,,num_3,1.0031806,num_3,0.3,0.9,0.2,1.2,7.6411,45.8466,return,2.8936618,,,,,,,,,,,,,,,,,720,25,male,up_down_width,2024-08-29_10h34.03.935,exp1,2023.1.0,60.1592777
,,,,,,,,,,,,,,,,5,8.6,9.3,10,10.7,11.4,0.7,0.45,0.25,3.05,10,initial,36.05,310,335,361,386,411,9,9,9,9,9,,,,,,,5,0,5,0,0,28,28,42,,,,,,,,,,,,num_4,0.8384385,num_4,0.25,1.3,0.15,1.5,5.73083,57.30826,return,2.3696778,,,,,,,,,,,,,,,,,720,25,male,up_down_width,2024-08-29_10h34.03.935,exp1,2023.1.0,60.1592777
,,,,,,,,,,,,,,,,5,7.8,8.9,10,11.1,12.2,1.1,0.55,0.55,4.95,10,initial,36.05,281,321,361,400,440,9,9,9,9,9,,,,,,,5,0,5,0,0,29,29,34,,,,,,,,,,,,num_4,1.1478697,num_4,0.2,0.3,0.3,1.2,11.46165,45.8466,return,4.3270816,,,,,,,,,,,,,,,,,720,25,male,up_down_width,2024-08-29_10h34.03.935,exp1,2023.1.0,60.1592777
,,,,,,,,,,,,,,,,4,8.95,9.65,10.35,11.05,0,0.7,0.45,0.25,2.35,10,initial,36.05,323,348,373,398,0,9,9,9,9,0,,,,,,,5,0,5,0,0,30,30,24,,,,,,,,,,,,num_4,0.8924068,num_4,0.4,0.8,0.25,0.6,9.55138,22.9233,return,1.7473473,,,,,,,,,,,,,,,,,720,25,male,up_down_width,2024-08-29_10h34.03.935,exp1,2023.1.0,60.1592777
,,,,,,,,,,,,,,,,3,8.9,10,11.1,0,0,1.1,0.55,0.55,2.75,10,initial,36.05,321,361,400,0,0,9,9,9,0,0,,,,,,,5,0,5,0,0,31,31,0,,,,,,,,,,,,num_4,1.2027818,num_4,0.35,0.4,0.2,0.8,7.6411,30.5644,return,3.2010465,,,,,,,,,,,,,,,,,720,25,male,up_down_width,2024-08-29_10h34.03.935,exp1,2023.1.0,60.1592777
,,,,,,,,,,,,,,,,4,8.35,9.45,10.55,11.65,0,1.1,0.55,0.55,3.85,10,initial,36.05,301,341,380,420,0,9,9,9,9,0,,,,,,,5,0,5,0,0,32,32,17,,,,,,,,,,,,num_4,0.9330991,num_4,0.55,0.6,0.25,0.7,9.55138,26.74385,return,3.4069123,,,,,,,,,,,,,,,,,720,25,male,up_down_width,2024-08-29_10h34.03.935,exp1,2023.1.0,60.1592777
,,,,,,,,,,,,,,,,3,8.2,10,11.8,0,0,1.8,1.25,0.55,4.15,10,match,36.05,296,361,425,0,0,9,9,9,0,0,,,,,,,5,0,5,0,0,33,33,47,,,,,,,,,,,,num_3,0.9421488,num_3,0.3,1.3,0.5,1.3,19.10275,49.66716,return,4.4978059,,,,,,,,,,,,,,,,,720,25,male,up_down_width,2024-08-29_10h34.03.935,exp1,2023.1.0,60.1592777
,,,,,,,,,,,,,,,,5,8.35,9.175,10,10.825,11.65,0.825,0.275,0.55,3.85,10,match,36.05,301,331,361,390,420,9,9,9,9,9,,,,,,,5,0,5,0,0,34,34,18,,,,,,,,,,,,num_4,1.0565817,num_4,0.3,0.4,0.4,1.1,15.2822,42.02605,return,4.3882566,,,,,,,,,,,,,,,,,720,25,male,up_down_width,2024-08-29_10h34.03.935,exp1,2023.1.0,60.1592777
,,,,,,,,,,,,,,,,4,8.825,9.608333333,10.39166667,11.175,0,0.783333333,0.533333333,0.25,2.6,10,match,36.05,318,346,375,403,0,9,9,9,9,0,,,,,,,5,0,5,0,0,35,35,5,,,,,,,,,,,,num_4,1.5697224,num_4,0.3,0.9,0.3,0.5,11.46165,19.10275,return,1.6749618,,,,,,,,,,,,,,,,,720,25,male,up_down_width,2024-08-29_10h34.03.935,exp1,2023.1.0,60.1592777
,,,,,,,,,,,,,,,,5,8.35,9.175,10,10.825,11.65,0.825,0.575,0.25,3.55,10,match,36.05,301,331,361,390,420,9,9,9,9,9,,,,,,,5,0,5,0,0,36,36,20,,,,,,,,,,,,num_4,0.7604646,num_4,0.2,0.3,0.2,0.8,7.6411,30.5644,return,2.0967428,,,,,,,,,,,,,,,,,720,25,male,up_down_width,2024-08-29_10h34.03.935,exp1,2023.1.0,60.1592777
,,,,,,,,,,,,,,,,3,7.8,10,12.2,0,0,2.2,1.8,0.4,4.8,10,match,36.05,281,361,440,0,0,9,9,9,0,0,,,,,,,5,0,5,0,0,37,37,39,,,,,,,,,,,,num_3,0.9517737,num_3,0.35,0.9,0.2,1.7,7.6411,64.94936,return,4.1875042,,,,,,,,,,,,,,,,,720,25,male,up_down_width,2024-08-29_10h34.03.935,exp1,2023.1.0,60.1592777
,,,,,,,,,,,,,,,,5,8.275,9.1375,10,10.8625,11.725,0.8625,0.6125,0.25,3.7,10,match,36.05,298,329,361,392,423,9,9,9,9,9,,,,,,,5,0,5,0,0,38,38,22,,,,,,,,,,,,num_4,3.9258404,num_4,0.3,1.3,0.2,0.9,7.6411,34.38495,return,2.3720852,,,,,,,,,,,,,,,,,720,25,male,up_down_width,2024-08-29_10h34.03.935,exp1,2023.1.0,60.1592777
,,,,,,,,,,,,,,,,5,8.2,9.1,10,10.9,11.8,0.9,0.65,0.25,3.85,10,initial,36.05,296,328,361,393,425,9,9,9,9,9,,,,,,,5,0,5,0,0,39,39,48,,,,,,,,,,,,num_4,1.4398341,num_4,0.25,1,0.15,0.8,5.73083,30.5644,return,2.1113887,,,,,,,,,,,,,,,,,720,25,male,up_down_width,2024-08-29_10h34.03.935,exp1,2023.1.0,60.1592777
,,,,,,,,,,,,,,,,5,7.8,8.9,10,11.1,12.2,1.1,0.7,0.4,4.8,10,initial,36.05,281,321,361,400,440,9,9,9,9,9,,,,,,,5,0,5,0,0,40,40,38,,,,,,,,,,,,num_4,0.7826094,num_4,0.35,1.1,0.25,1.4,9.55138,53.48771,return,1.9317338,,,,,,,,,,,,,,,,,720,25,male,up_down_width,2024-08-29_10h34.03.935,exp1,2023.1.0,60.1592777
,,,,,,,,,,,,,,,,4,8.95,9.65,10.35,11.05,0,0.7,0.15,0.55,2.65,10,initial,36.05,323,348,373,398,0,9,9,9,9,0,,,,,,,5,0,5,0,0,41,41,23,,,,,,,,,,,,num_3,0.9674866,num_3,0.55,1,0.4,0.6,15.2822,22.9233,return,3.387408,,,,,,,,,,,,,,,,,720,25,male,up_down_width,2024-08-29_10h34.03.935,exp1,2023.1.0,60.1592777
,,,,,,,,,,,,,,,,4,8.35,9.45,10.55,11.65,0,1.1,0.85,0.25,3.55,10,initial,36.05,301,341,380,420,0,9,9,9,9,0,,,,,,,5,0,5,0,0,42,42,19,,,,,,,,,,,,num_4,0.9425018,num_4,0.45,0.9,0.25,0.5,9.55138,19.10275,return,2.1965826,,,,,,,,,,,,,,,,,720,25,male,up_down_width,2024-08-29_10h34.03.935,exp1,2023.1.0,60.1592777
,,,,,,,,,,,,,,,,5,8.95,9.475,10,10.525,11.05,0.525,0.275,0.25,2.35,10,match,36.05,323,342,361,379,398,9,9,9,9,9,,,,,,,5,0,5,0,0,43,43,25,,,,,,,,,,,,num_4,0.7656165,num_4,0.2,0.5,0.2,0.5,7.6411,19.10275,return,1.085546,,,,,,,,,,,,,,,,,720,25,male,up_down_width,2024-08-29_10h34.03.935,exp1,2023.1.0,60.1592777
,,,,,,,,,,,,,,,,5,8.95,9.475,10,10.525,11.05,0.525,0.125,0.4,2.5,10,match,36.05,323,342,361,379,398,9,9,9,9,9,,,,,,,5,0,5,0,0,44,44,27,,,,,,,,,,,,num_4,0.8749854,num_4,0.25,0.6,0.3,0.5,11.46165,19.10275,return,2.6094963,,,,,,,,,,,,,,,,,720,25,male,up_down_width,2024-08-29_10h34.03.935,exp1,2023.1.0,60.1592777
,,,,,,,,,,,,,,,,3,8.9,10,11.1,0,0,1.1,0.85,0.25,2.45,10,initial,36.05,321,361,400,0,0,9,9,9,0,0,,,,,,,5,0,5,0,0,45,45,2,,,,,,,,,,,,num_3,0.8915718,num_3,0.3,1.2,0.25,0.7,9.55138,26.74385,return,3.0597063,,,,,,,,,,,,,,,,,720,25,male,up_down_width,2024-08-29_10h34.03.935,exp1,2023.1.0,60.1592777
,,,,,,,,,,,,,,,,4,9.1,9.7,10.3,10.9,0,0.6,0.05,0.55,2.35,10,match,36.05,328,350,371,393,0,9,9,9,9,0,,,,,,,5,0,5,0,0,46,46,12,,,,,,,,,,,,num_3,3.225938,num_3,0.55,0.6,0.45,0.5,17.19248,19.10275,return,5.1052603,,,,,,,,,,,,,,,,,720,25,male,up_down_width,2024-08-29_10h34.03.935,exp1,2023.1.0,60.1592777
,,,,,,,,,,,,,,,,3,9.3,10,10.7,0,0,0.7,0.3,0.4,1.8,10,initial,36.05,335,361,386,0,0,9,9,9,0,0,,,,,,,5,0,5,0,0,47,47,9,,,,,,,,,,,,num_3,0.9644592,num_3,0.5,1.1,0.3,0.4,11.46165,15.2822,return,4.6043133,,,,,,,,,,,,,,,,,720,25,male,up_down_width,2024-08-29_10h34.03.935,exp1,2023.1.0,60.1592777
,,,,,,,,,,,,,,,,5,8.6,9.3,10,10.7,11.4,0.7,0.3,0.4,3.2,10,initial,36.05,310,335,361,386,411,9,9,9,9,9,,,,,,,5,0,5,0,0,48,48,44,,,,,,,,,,,,num_4,1.0633216,num_4,0.35,0.7,0.35,0.4,13.37193,15.2822,return,2.1972531,,,,,,,,,,,,,,,,,720,25,male,up_down_width,2024-08-29_10h34.03.935,exp1,2023.1.0,60.1592777
,,,,,,,,,,,,,,,,3,8.6,10,11.4,0,0,1.4,0.85,0.55,3.35,10,match,36.05,310,361,411,0,0,9,9,9,0,0,,,,,,,5,0,5,0,0,49,49,41,,,,,,,,,,,,num_3,0.938365,num_3,0.25,0.6,0.4,0.75,15.2822,28.65413,return,2.6063238,,,,,,,,,,,,,,,,,720,25,male,up_down_width,2024-08-29_10h34.03.935,exp1,2023.1.0,60.1592777
,,,,,,,,,,,,,,,,3,9.1,10,10.9,0,0,0.9,0.5,0.4,2.2,10,initial,36.05,328,361,393,0,0,9,9,9,0,0,,,,,,,5,0,5,0,0,50,50,15,,,,,,,,,,,,num_3,1.7525467,num_3,0.45,1.1,0.3,0.8,11.46165,30.5644,return,2.3465237,,,,,,,,,,,,,,,,,720,25,male,up_down_width,2024-08-29_10h34.03.935,exp1,2023.1.0,60.1592777
,,,,,,,,,,,,,,,,5,8.2,9.1,10,10.9,11.8,0.9,0.35,0.55,4.15,10,initial,36.05,296,328,361,393,425,9,9,9,9,9,,,,,,,5,0,5,0,0,51,51,46,,,,,,,,,,,,num_4,1.0083232,num_4,0.45,0.5,0.3,0.6,11.46165,22.9233,return,5.0738992,,,,,,,,,,,,,,,,,720,25,male,up_down_width,2024-08-29_10h34.03.935,exp1,2023.1.0,60.1592777
,,,,,,,,,,,,,,,,,,,,,,,,,,,,,,,,,,,,,,,,,,,,,5,0,5,0,,,,,,,,,,,,,,,,,,,,,,,,,,,,,3286.607499,3286.607499,3286.607499,,,,,,,,,,,,720,25,male,up_down_width,2024-08-29_10h34.03.935,exp1,2023.1.0,60.1592777
